xa_S1,ya_S1,za_S1,xgb_S1,ybg_S1,zbg_S1,tilt_x_S1,tilt_y_S1,tilt_z_S1,tilt_accx_S1,tilt_accy_S1,tilt_accz_S1,xa_S2,ya_S2,za_S2,xgb_S2,ybg_S2,zbg_S2,tilt_x_S2,tilt_y_S2,tilt_z_S2,tilt_accx_S2,tilt_accy_S2,tilt_accz_S2,Posture
-0.07202148,-0.4418945,-0.1911621,0.3060229,-0.0470382,0.5338321,-64.32484,8.837849,-113.8306,-65.18981,8.507595,-113.1207,-0.02636719,-0.9853516,0.3618164,0.2350382,0.8887863,-0.3666183,-69.85907,1.632857,-70.08561,-69.78786,1.438925,-69.84364,LR
-0.0703125,-0.4404297,-0.1955566,0.2449541,-0.1539084,0.4269619,-64.32954,8.824857,-113.8212,-64.74012,8.30139,-113.6756,-0.02856445,-0.9841309,0.361084,0.3724428,0.7361145,-0.2292137,-69.85229,1.642238,-70.08446,-69.79372,1.560856,-69.85938,LR
-0.07788086,-0.4411621,-0.2070313,0.1533511,-0.3218473,0.442229,-64.30812,8.825226,-113.8344,-63.37116,9.079823,-114.8035,-0.03466797,-0.9858398,0.3632813,0.2350382,0.2780993,-0.2750153,-69.84553,1.651279,-70.08247,-69.68679,1.889895,-69.78268,LR
-0.07104492,-0.4367676,-0.1923828,0.1991527,-0.01650381,0.2437558,-64.31599,8.817816,-113.824,-64.84786,8.466875,-113.4973,-0.02905273,-0.9863281,0.3601074,0.2045038,0.1101603,-0.0002061129,-69.84327,1.651571,-70.07983,-69.88296,1.584913,-69.95092,LR
-0.08178711,-0.4353027,-0.1936035,-0.01458788,0.01403052,-0.1531909,-64.31456,8.836597,-113.8232,-64.22812,9.741136,-113.6105,-0.03100586,-0.980957,0.3642578,-0.1771755,0.2322977,-0.2139466,-69.84162,1.65772,-70.07581,-69.561,1.697228,-69.63791,LR
-0.0715332,-0.4436035,-0.1972656,0.4586947,0.1972366,-0.3211298,-64.31522,8.830401,-113.8255,-64.68474,8.38183,-113.7023,-0.02783203,-0.9899902,0.3605957,-0.4214504,0.6597786,-0.2444809,-69.84962,1.664528,-70.07777,-69.93149,1.513155,-69.99355,LR
-0.07275391,-0.4401855,-0.1982422,0.1075497,-0.001236677,-0.4738016,-64.31477,8.825178,-113.8351,-64.37151,8.570106,-113.9571,-0.02563477,-0.989502,0.34375,-0.4214504,0.06435877,-0.2902825,-69.87469,1.660221,-70.09746,-70.79362,1.401867,-70.84888,LR
-0.07128906,-0.4367676,-0.201416,0.5044961,-0.4897862,0.1063511,-64.29971,8.810093,-113.8463,-63.93284,8.430923,-114.4716,-0.03564453,-0.9821777,0.3618164,-0.07030535,-0.1188473,-0.01547329,-69.87198,1.664277,-70.09151,-69.6872,1.950405,-69.78934,LR
-0.07739258,-0.4321289,-0.1940918,-0.06038928,-0.4439847,-0.06158781,-64.29855,8.812502,-113.8473,-64.19426,9.278629,-113.8511,-0.03393555,-0.9887695,0.3596191,-0.07030535,-0.2715191,0.01506107,-69.87428,1.663682,-70.08993,-69.93176,1.847374,-70.02431,LR
-0.07373047,-0.4360352,-0.1992188,-0.3351984,-0.5813893,-0.168458,-64.29802,8.802578,-113.8579,-64.02588,8.743612,-114.2512,-0.02612305,-0.9851074,0.3642578,-0.08557248,-0.3173206,0.0,-69.87124,1.654239,-70.08241,-69.65954,1.424772,-69.71394,LR
-0.07519531,-0.4362793,-0.2011719,-0.289397,-0.3065802,-0.2905953,-64.29212,8.799932,-113.8738,-63.79048,8.895636,-114.4374,-0.02294922,-0.9851074,0.3569336,-0.2840458,0.04909158,-0.04600763,-69.87889,1.64697,-70.0832,-70.04517,1.254735,-70.08803,LR
-0.07470703,-0.4399414,-0.1965332,0.2449541,-0.06230533,-0.2142596,-64.2918,8.799282,-113.8748,-64.45631,8.813194,-113.7697,-0.01855469,-0.9694824,0.3657227,-0.558855,0.171229,-0.2902825,-69.87568,1.637066,-70.07251,-69.30744,1.025885,-69.33524,LR
-0.0793457,-0.4404297,-0.2041016,0.1228168,0.2125039,-0.2905953,-64.27543,8.812085,-113.8919,-63.56338,9.283284,-114.5164,-0.0246582,-0.9865723,0.3647461,-0.5130534,0.2780993,-0.336084,-69.87906,1.635271,-70.07032,-69.66759,1.342936,-69.71594,LR
-0.07519531,-0.440918,-0.1948242,0.1686182,0.09036642,-0.1989923,-64.28056,8.814497,-113.8877,-64.65636,8.866288,-113.5366,-0.02587891,-0.9814453,0.362793,-0.1771755,0.430771,-0.2139466,-69.87739,1.637234,-70.06645,-69.66574,1.416779,-69.71955,LR
-0.07543945,-0.4384766,-0.1943359,0.4434273,0.07509923,0.1063511,-64.27988,8.818089,-113.8803,-64.5722,8.938958,-113.5952,-0.02563477,-0.9904785,0.3620605,-0.1161069,0.59871,-0.2444809,-69.87903,1.64114,-70.06726,-69.87433,1.392475,-69.92675,LR
-0.07446289,-0.4372559,-0.1965332,0.1838853,-0.001236677,0.091084,-64.27814,8.818291,-113.8793,-64.32877,8.829046,-113.8977,-0.02246094,-0.986084,0.3569336,-0.2687786,0.430771,-0.2292137,-69.8867,1.639189,-70.0714,-70.06496,1.226972,-70.10597,LR
-0.07275391,-0.4321289,-0.2038574,0.3670917,0.05983204,0.182687,-64.25471,8.81602,-113.8979,-63.39397,8.657832,-114.948,-0.02758789,-0.9865723,0.3659668,-0.08557248,0.6750459,-0.1834122,-69.88219,1.647026,-70.06595,-69.59478,1.501819,-69.65507,LR
-0.07324219,-0.4382324,-0.1962891,0.2754886,0.3499084,-0.0005190372,-64.25453,8.818293,-113.8966,-64.44865,8.672442,-113.835,-0.02124023,-0.986084,0.3554688,-0.3145801,0.7361145,-0.1834122,-69.89205,1.648124,-70.07094,-70.14391,1.160858,-70.18075,LR
-0.0769043,-0.434082,-0.1975098,0.32129,0.3804427,0.2284887,-64.24421,8.830729,-113.898,-63.97465,9.16051,-114.1337,-0.01635742,-0.9870605,0.3571777,0.1129008,0.6597786,-0.2750153,-69.8943,1.642715,-70.07575,-70.08762,0.8927672,-70.10935,LR
-0.07128906,-0.4431152,-0.1965332,0.04648089,0.2125039,0.07581687,-64.25348,8.824564,-113.8919,-64.74191,8.366261,-113.6484,-0.03442383,-0.9992676,0.3583984,0.03656495,0.59871,-0.1986794,-69.89958,1.655807,-70.08276,-70.18531,1.857251,-70.27986,LR
-0.07128906,-0.4428711,-0.2009277,0.0922823,-0.06230533,0.182687,-64.25293,8.813947,-113.8939,-64.29368,8.339531,-114.1289,-0.03149414,-0.9914551,0.3581543,0.2350382,0.7055801,-0.07654199,-69.89949,1.667288,-70.08517,-70.06757,1.711259,-70.14743,LR
-0.06738281,-0.4423828,-0.1958008,-0.1214581,-0.2607787,0.3200917,-64.26799,8.792422,-113.884,-64.9166,7.929415,-113.6322,-0.02246094,-0.9907227,0.3518066,0.1587023,0.3849695,0.2593359,-69.90743,1.664079,-70.08874,-70.41322,1.223896,-70.45464,LR
-0.07446289,-0.453125,-0.1887207,-0.09092379,-0.7493282,0.3353589,-64.30157,8.778079,-113.8482,-65.88027,8.626038,-112.3414,-0.02783203,-0.9887695,0.3547363,0.1892367,0.2475649,0.2746031,-69.91065,1.66479,-70.08835,-70.20782,1.517676,-70.27098,LR
-0.07250977,-0.4243164,-0.2036133,-0.3046641,-0.8867329,0.2742901,-64.28015,8.764651,-113.8735,-63.00655,8.75847,-115.3144,-0.01879883,-0.9782715,0.3439941,0.5709161,-0.04251146,0.4120076,-69.91605,1.651641,-70.09312,-70.59981,1.03856,-70.62987,LR
-0.06884766,-0.4372559,-0.1987305,-0.5031376,-0.7493282,0.1368854,-64.2882,8.741491,-113.8776,-64.31263,8.157411,-114.1783,-0.03393555,-0.9868164,0.3522949,0.1434351,-0.07304579,0.2746031,-69.92101,1.654634,-70.09451,-70.26942,1.854986,-70.36407,LR
-0.07446289,-0.4516602,-0.2041016,-0.3351984,-0.8867329,-0.01578617,-64.29359,8.724508,-113.8809,-64.3112,8.54406,-114.0308,-0.03271484,-0.9892578,0.3603516,0.08236647,-0.2409847,0.3509389,-69.91956,1.653594,-70.08736,-69.90937,1.779766,-69.99517,LR
-0.0703125,-0.4355469,-0.1999512,-0.3962674,-0.7187939,0.2895572,-64.29494,8.705678,-113.8864,-64.05069,8.346507,-114.3806,-0.02661133,-0.9882813,0.3596191,0.2961069,-0.2257175,0.3051374,-69.91561,1.645973,-70.08105,-69.95407,1.449486,-70.01106,LR
-0.07617188,-0.4436035,-0.204834,0.0,-0.8409313,0.1063511,-64.28451,8.697243,-113.8966,-63.77311,8.860781,-114.4698,-0.03076172,-0.9899902,0.354248,0.1892367,-0.2257175,0.3204046,-69.91956,1.643472,-70.08144,-70.2429,1.675775,-70.32004,LR
-0.07446289,-0.439209,-0.2055664,-0.3199313,0.0,0.1674199,-64.27424,8.697892,-113.9116,-63.53598,8.729712,-114.7711,-0.02246094,-0.9870605,0.3549805,0.2808397,-0.179916,0.4120076,-69.92071,1.632491,-70.07824,-70.18321,1.226673,-70.22441,LR
-0.0769043,-0.4406738,-0.1960449,-0.4726033,-0.8256641,0.3353589,-64.28486,8.692986,-113.9017,-64.45778,9.059465,-113.6655,-0.01953125,-0.9904785,0.354248,0.4182443,-0.02724427,0.5036107,-69.922,1.620715,-70.07574,-70.29264,1.0637,-70.32376,LR
-0.07641602,-0.4370117,-0.1953125,-0.289397,-0.810397,0.2284887,-64.29067,8.68862,-113.8956,-64.36286,9.070272,-113.7614,-0.03271484,-0.9887695,0.3566895,0.5709161,0.04909158,0.5036107,-69.91691,1.624675,-70.0703,-70.08683,1.782655,-70.17356,LR
-0.07714844,-0.4362793,-0.2004395,-0.2741299,-0.8714657,0.5185649,-64.28468,8.684608,-113.8969,-63.78964,9.128575,-114.3425,-0.03540039,-0.9853516,0.3613281,0.5403817,0.1406947,0.6257481,-69.9061,1.632887,-70.05718,-69.77341,1.931873,-69.87397,LR
-0.07446289,-0.4396973,-0.2011719,-0.3504658,-0.810397,0.8086412,-64.28403,8.674097,-113.8927,-63.9941,8.754641,-114.2802,-0.02856445,-0.9807129,0.3569336,0.5403817,-0.05777865,0.4272748,-69.89888,1.630736,-70.04993,-69.94201,1.567785,-70.00867,LR
-0.07788086,-0.4338379,-0.1955566,-0.3351984,-0.7493282,0.4727633,-64.28563,8.67549,-113.8864,-64.11776,9.294515,-113.9253,-0.02539063,-0.9868164,0.3740234,0.479313,0.1406947,0.0,-69.87783,1.627754,-70.0339,-69.19859,1.37825,-69.24855,LR
-0.07885742,-0.4389648,-0.1928711,0.0,-0.4745191,0.5490992,-64.29205,8.681799,-113.8683,-64.60709,9.339745,-113.3863,-0.02563477,-0.9868164,0.362793,0.3724428,0.09489316,0.04559542,-69.87016,1.624528,-70.02896,-69.76831,1.396694,-69.82082,LR
-0.07958984,-0.4423828,-0.1972656,-0.2435954,-0.3371145,0.5338321,-64.29619,8.689832,-113.857,-64.31978,9.331203,-113.6952,-0.02978516,-0.9816895,0.3642578,0.38771,0.3239008,0.1524656,-69.85867,1.629387,-70.01916,-69.58018,1.629376,-69.65113,LR
-0.07666016,-0.442627,-0.2004395,-0.06038928,-0.4745191,0.3048244,-64.29384,8.688373,-113.8563,-64.13447,8.965699,-114.0463,-0.02978516,-0.9819336,0.3618164,0.4640458,0.4765725,0.0,-69.84886,1.636411,-70.0144,-69.70965,1.630337,-69.78104,LR
-0.07666016,-0.4387207,-0.2050781,0.03121376,-0.5661222,0.2895572,-64.27708,8.686184,-113.8694,-63.4791,8.995013,-114.7246,-0.02441406,-0.9841309,0.3547363,0.3266413,0.339168,0.2288015,-69.84978,1.635407,-70.01442,-70.13474,1.33692,-70.18359,LR
-0.07763672,-0.4370117,-0.1896973,-0.197794,-0.5355878,0.3658931,-64.2919,8.689701,-113.8495,-64.87223,9.255716,-113.1412,-0.03198242,-0.9853516,0.3596191,0.1892367,0.3239008,0.0,-69.84754,1.642389,-70.01332,-69.87688,1.746445,-69.95939,LR
-0.07055664,-0.4431152,-0.1923828,-0.09092379,-0.2760458,0.3811603,-64.31105,8.678043,-113.831,-65.18241,8.309696,-113.2076,-0.02783203,-0.9899902,0.3654785,0.1892367,0.4155039,0.0,-69.84147,1.645864,-70.00794,-69.68329,1.510746,-69.74452,LR
-0.07568359,-0.4377441,-0.2055664,-0.2435954,-0.382916,0.5490992,-64.29672,8.676744,-113.843,-63.41568,8.894504,-114.8318,-0.02929688,-0.9804688,0.354248,0.1892367,0.09489316,0.4272748,-69.84331,1.646536,-70.00436,-70.07248,1.609729,-70.14314,LR
-0.08325195,-0.4365234,-0.2004395,-0.8848166,-1.161542,0.5338321,-64.29593,8.68165,-113.8433,-63.56326,9.83271,-114.2774,-0.02294922,-0.9821777,0.3615723,0.4640458,-0.1646488,0.6562824,-69.83421,1.636146,-69.98988,-69.7523,1.256126,-69.79473,LR
-0.08276367,-0.4282227,-0.1955566,-0.5489388,-4.764596,-0.1531909,-64.29002,8.64207,-113.8515,-63.62387,9.971148,-114.1502,-0.02539063,-0.9858398,0.3642578,-0.131374,-0.1951832,0.6562824,-69.83285,1.628424,-69.97563,-69.67606,1.383936,-69.72741,LR
-0.08056641,-0.432373,-0.190918,-0.2130611,-0.6119237,-0.0005190372,-64.29521,8.653703,-113.8438,-64.39324,9.673521,-113.465,-0.0324707,-0.9821777,0.3669434,-0.05503809,-0.05777865,0.4578092,-69.82581,1.630483,-69.95988,-69.44086,1.773835,-69.52448,LR
-0.07348633,-0.4367676,-0.1904297,0.0922823,-0.3676488,-0.0005190372,-64.30689,8.650215,-113.8322,-64.95165,8.767578,-113.2655,-0.03051758,-0.9855957,0.3666992,0.1129008,-0.2257175,0.2746031,-69.81807,1.627579,-69.94839,-69.52715,1.662262,-69.60083,LR
-0.08032227,-0.4372559,-0.1962891,-0.02985501,-0.5661222,0.259023,-64.30369,8.659159,-113.8282,-64.12467,9.513496,-113.8226,-0.03710938,-0.9846191,0.3625488,0.03656495,-0.6837328,0.0,-69.81494,1.625489,-69.9454,-69.68866,2.025573,-69.79885,LR
-0.06347656,-0.4350586,-0.1994629,-0.2130611,-0.9478015,-0.04632068,-64.30688,8.623142,-113.8404,-64.3064,7.55497,-114.4024,-0.02978516,-0.9985352,0.3674316,0.02129769,-0.5005267,0.2135344,-69.81306,1.617691,-69.93947,-69.73698,1.603507,-69.80611,LR
-0.08251953,-0.4377441,-0.2104492,-0.07565641,-0.810397,0.5490992,-64.2757,8.630818,-113.8607,-62.68834,9.642286,-115.2878,-0.02270508,-0.9875488,0.376709,0.1434351,-0.1646488,0.2593359,-69.79626,1.607368,-69.91912,-69.0856,1.230611,-69.12526,LR
-0.08105469,-0.4416504,-0.1962891,-0.2588627,-0.4897862,0.1521528,-64.28013,8.641891,-113.8537,-64.3196,9.520415,-113.6122,-0.02734375,-0.9833984,0.3671875,-0.2382443,0.3086336,0.2135344,-69.79307,1.609298,-69.90845,-69.47308,1.492147,-69.53231,LR
-0.09057617,-0.4345703,-0.2026367,-0.2130611,-0.2760458,0.2132213,-64.25655,8.678937,-113.8642,-62.94412,10.69713,-114.5359,-0.02880859,-0.9821777,0.3647461,-0.3145801,0.5071069,0.1677328,-69.7932,1.616067,-69.90051,-69.56857,1.575037,-69.63482,LR
-0.07470703,-0.4299316,-0.2021484,-0.02985501,0.04456491,0.182687,-64.2394,8.684746,-113.8813,-63.37682,8.936582,-114.8557,-0.03662109,-0.9807129,0.3457031,-0.3145801,0.5071069,0.183,-69.81159,1.63154,-69.91171,-70.4819,2.016971,-70.59486,LR
-0.06469727,-0.4360352,-0.1955566,-0.02985501,-0.1691756,0.1216183,-64.24934,8.662765,-113.8804,-64.71416,7.710053,-113.9236,-0.03588867,-0.9836426,0.3583984,-0.009236574,0.2475649,0.09139694,-69.81326,1.641816,-69.91197,-69.88824,1.96338,-69.99262,LR
-0.07519531,-0.4335938,-0.1940918,-0.06038928,-0.1081069,0.06054974,-64.25243,8.667706,-113.8778,-64.35642,8.994628,-113.8,-0.03295898,-0.9821777,0.3601074,-0.1619084,0.4460382,-0.0002061129,-69.81529,1.652065,-69.91124,-69.7876,1.804574,-69.87537,LR
-0.07446289,-0.4348145,-0.197998,-0.1061909,0.3499084,0.2284887,-64.25008,8.676666,-113.8804,-64.05709,8.858521,-114.1719,-0.03564453,-0.9846191,0.3635254,-0.3451145,0.5681756,-0.1070763,-69.81699,1.666277,-69.90955,-69.64642,1.945054,-69.74783,LR
-0.07617188,-0.4372559,-0.1972656,0.07701516,0.3346412,-0.168458,-64.24777,8.688508,-113.8845,-64.19112,9.022813,-113.9628,-0.02734375,-0.9831543,0.3615723,-0.3451145,0.6750459,-0.1834122,-69.82084,1.672779,-69.91036,-69.75513,1.495251,-69.81528,LR
-0.07324219,-0.4318848,-0.1994629,0.2449541,0.3804427,0.07581687,-64.23528,8.695381,-113.8953,-63.80306,8.752566,-114.4817,-0.03710938,-0.9833984,0.3735352,-0.3603816,0.430771,-0.336084,-69.81187,1.686063,-69.90139,-69.10759,2.020369,-69.21469,LR
-0.07641602,-0.4387207,-0.1987305,0.2449541,0.1209008,-0.1226563,-64.22921,8.70356,-113.9002,-64.11219,9.015429,-114.0492,-0.02856445,-0.9899902,0.3598633,-0.390916,0.4918396,-0.1376107,-69.8207,1.690639,-69.90601,-69.96586,1.553325,-70.03135,LR
-0.07275391,-0.4396973,-0.1999512,0.1991527,0.05983204,-0.168458,-64.22523,8.701679,-113.9079,-64.17698,8.565565,-114.1633,-0.03125,-0.987793,0.3439941,-0.1008396,0.5834427,-0.1834122,-69.84029,1.699628,-69.92677,-70.72633,1.711282,-70.80847,LR
-0.07446289,-0.4377441,-0.1984863,0.1533511,-0.123374,0.06054974,-64.22047,8.700994,-113.9101,-64.15965,8.80647,-114.0851,-0.02832031,-0.9831543,0.354248,-0.3451145,0.1864962,-0.1376107,-69.8538,1.700886,-69.93518,-70.12672,1.552338,-70.19258,LR
-0.07470703,-0.4365234,-0.2001953,0.0922823,-0.1386412,-0.1989923,-64.21307,8.701779,-113.9213,-63.91802,8.842159,-114.3249,-0.03051758,-0.9931641,0.3640137,-0.1161069,0.171229,-0.01547329,-69.85455,1.702437,-69.9343,-69.80623,1.652572,-69.87988,LR
-0.06860352,-0.4321289,-0.2004395,-0.1214581,0.09036642,-0.0005190372,-64.20826,8.692978,-113.9352,-63.88322,8.1953,-114.6127,-0.03515625,-0.9689941,0.3613281,-0.390916,0.1864962,0.1219313,-69.85244,1.710069,-69.92506,-69.4615,1.947,-69.56236,LR
-0.07299805,-0.4399414,-0.1928711,0.06174803,-0.2455115,-0.04632068,-64.22083,8.688086,-113.9249,-64.8851,8.640821,-113.3879,-0.03393555,-0.9875488,0.3635254,0.02129769,-0.04251146,0.1982672,-69.84926,1.712142,-69.91949,-69.71018,1.84703,-69.80186,LR
-0.07519531,-0.4362793,-0.199707,-0.1519923,0.09036642,0.1368854,-64.21736,8.693788,-113.93,-63.93565,8.906792,-114.2801,-0.02954102,-0.9868164,0.3491211,-0.3298473,-0.3783893,0.1219313,-69.86618,1.704668,-69.9298,-70.45261,1.616548,-70.52504,LR
-0.07543945,-0.4365234,-0.2016602,-0.1367252,-0.2149771,0.1063511,-64.20995,8.695078,-113.9394,-63.74584,8.916269,-114.476,-0.03198242,-0.9853516,0.3637695,0.2961069,-0.5005267,-0.0002061129,-69.85781,1.698098,-69.92614,-69.66521,1.744069,-69.74679,LR
-0.07568359,-0.435791,-0.1931152,-0.1367252,-0.550855,-0.1073892,-64.21871,8.693519,-113.9339,-64.54773,9.022001,-113.5862,-0.02783203,-0.9829102,0.3579102,0.3419085,-0.5005267,0.2746031,-69.85435,1.68726,-69.92356,-69.93616,1.524103,-69.99914,LR
-0.07592773,-0.4377441,-0.2104492,-0.3962674,-0.5050534,0.1979542,-64.19874,8.689921,-113.9592,-62.92881,8.884851,-115.3462,-0.03295898,-0.9873047,0.361084,0.0976336,-0.5921298,0.3356718,-69.85252,1.680726,-69.91859,-69.83437,1.795739,-69.92146,LR
-0.0793457,-0.435791,-0.1970215,-0.381,-0.2455115,0.3964274,-64.20068,8.700912,-113.9538,-64.01601,9.419881,-113.9789,-0.02954102,-0.9887695,0.3625488,0.3266413,-0.02724427,0.2288015,-69.84671,1.678846,-69.91429,-69.80235,1.606747,-69.87196,LR
-0.07983398,-0.4353027,-0.2016602,0.0006792545,-0.09283972,-0.04632068,-64.18697,8.714488,-113.9654,-63.51541,9.447968,-114.4971,-0.02685547,-0.987793,0.3625488,0.2961069,-0.1188473,0.09139694,-69.84132,1.672762,-69.91171,-69.79462,1.462018,-69.85223,LR
-0.08056641,-0.4375,-0.1916504,0.06174803,-0.0470382,0.0147481,-64.19394,8.730948,-113.952,-64.58334,9.574379,-113.307,-0.02807617,-0.9899902,0.3586426,0.1739695,0.04909158,-0.09180916,-69.84236,1.670624,-69.91679,-70.03001,1.527389,-70.09351,LR
-0.07714844,-0.4382324,-0.1977539,0.1075497,0.2125039,-0.1226563,-64.19148,8.741985,-113.9541,-64.1555,9.116167,-113.9613,-0.02929688,-0.9909668,0.3535156,0.02129769,0.1254275,-0.06127481,-69.85127,1.671079,-69.92691,-70.30461,1.594998,-70.37466,LR
-0.07104492,-0.4384766,-0.1972656,0.03121376,0.1056336,-0.06158781,-64.19608,8.736804,-113.9548,-64.44398,8.405308,-113.9459,-0.03442383,-0.9819336,0.3632813,0.00603056,-0.179916,-0.09180916,-69.84643,1.672676,-69.9239,-69.61379,1.883159,-69.70873,LR
-0.07543945,-0.4367676,-0.2058105,-0.1825268,0.01403052,0.1216183,-64.18182,8.739882,-113.9721,-63.34925,8.880359,-114.9072,-0.03271484,-0.9804688,0.3708496,-0.1008396,-0.08831299,-0.06127481,-69.83514,1.673675,-69.91216,-69.20793,1.787548,-69.29207,LR
-0.08374023,-0.4367676,-0.1928711,-0.1061909,0.07509923,0.06054974,-64.18572,8.765218,-113.9606,-64.29321,9.947815,-113.4458,-0.02758789,-0.9912109,0.362793,0.08236647,-0.2715191,0.03032825,-69.83401,1.665887,-69.91151,-69.84351,1.497189,-69.90403,LR
-0.07641602,-0.4375,-0.1948242,-0.1061909,0.3499084,0.4269619,-64.1923,8.776371,-113.9488,-64.43625,9.065672,-113.6857,-0.03295898,-0.9907227,0.3615723,-0.05503809,0.06435877,-0.1223435,-69.8356,1.669316,-69.91429,-69.87357,1.789991,-69.96024,LR
-0.07714844,-0.4321289,-0.2058105,0.03121376,0.4109771,0.2895572,-64.16881,8.790012,-113.968,-63.0406,9.156387,-115.1199,-0.03051758,-0.9931641,0.3598633,0.4182443,-0.04251146,-0.1376107,-69.83308,1.6684,-69.91986,-70.01667,1.654794,-70.09117,LR
-0.08007813,-0.4377441,-0.1987305,0.1075497,0.319374,0.3048244,-64.16225,8.808047,-113.9654,-63.92017,9.457024,-114.0644,-0.03076172,-0.9934082,0.3581543,0.5709161,0.430771,0.01506107,-69.83016,1.674736,-69.9249,-70.10693,1.668579,-70.18295,LR
-0.07543945,-0.4350586,-0.1948242,0.1533511,0.2125039,0.7475727,-64.16373,8.814867,-113.9513,-64.34916,8.992885,-113.8084,-0.03540039,-0.9833984,0.3679199,0.5556489,0.262832,-0.0002061129,-69.81341,1.683726,-69.91639,-69.40082,1.931031,-69.49978,LR
-0.07641602,-0.4379883,-0.197998,0.0922823,0.1819695,0.6712368,-64.16205,8.821911,-113.9425,-64.14693,9.033308,-114.0051,-0.02856445,-0.9934082,0.3569336,0.5098474,0.8429847,-0.01547329,-69.81322,1.693444,-69.92316,-70.17827,1.550062,-70.24406,LR
-0.07861328,-0.4506836,-0.2019043,0.0006792545,0.227771,0.4269619,-64.16528,8.829941,-113.9332,-64.3238,9.044839,-113.8134,-0.04296875,-0.9909668,0.3666992,0.4945802,0.3849695,-0.168145,-69.80052,1.712185,-69.92156,-69.56593,2.328681,-69.71092,LR
-0.07373047,-0.4240723,-0.1987305,0.2144198,0.2735725,0.9918472,-64.14766,8.836301,-113.9357,-63.44243,8.946836,-114.7827,-0.01806641,-0.9912109,0.3549805,0.5403817,0.4002366,0.03032825,-69.80202,1.703487,-69.92867,-70.27259,0.9830643,-70.29915,LR
-0.07275391,-0.4504395,-0.1933594,0.03121376,-0.0470382,0.9307787,-64.17148,8.827728,-113.9026,-65.36147,8.442245,-112.9661,-0.03686523,-0.9938965,0.3500977,0.738855,0.2780993,-0.0002061129,-69.80504,1.713578,-69.94225,-70.4961,2.003655,-70.60764,LR
-0.07373047,-0.4423828,-0.2124023,-0.2588627,-0.2760458,0.8544428,-64.15328,8.817737,-113.918,-63.05864,8.544555,-115.3422,-0.03100586,-0.9997559,0.3547363,1.166336,0.003290057,0.4120076,-69.79855,1.712842,-69.9464,-70.39533,1.674168,-70.47282,LR
-0.0793457,-0.4389648,-0.2009277,-0.5336719,-0.5050534,0.0,-64.15347,8.821123,-113.9246,-63.79689,9.333504,-114.2483,-0.02734375,-0.9868164,0.3630371,1.288473,0.09489316,0.7173512,-69.7799,1.70968,-69.93381,-69.7495,1.489647,-69.8092,LR
-0.07836914,-0.4335938,-0.199707,-0.7626796,-0.4897862,0.9460459,-64.15585,8.82348,-113.9189,-63.67472,9.322915,-114.382,-0.03198242,-0.9853516,0.3581543,1.09,0.1101603,0.7631527,-69.76624,1.712159,-69.92386,-69.95171,1.74728,-70.03455,LR
-0.07763672,-0.4328613,-0.1938477,-0.8084807,-0.5661222,1.220855,-64.16877,8.825171,-113.8995,-64.24687,9.296429,-113.7876,-0.02758789,-0.9997559,0.3603516,1.044199,-0.02724427,0.8089542,-69.75909,1.707283,-69.91801,-70.12536,1.487053,-70.18578,LR
-0.07348633,-0.4360352,-0.2006836,-0.8542824,-0.6271908,1.037649,-64.17657,8.812917,-113.8935,-63.88901,8.704189,-114.4107,-0.03076172,-0.9802246,0.3618164,1.181603,-0.2409847,0.7173512,-69.73884,1.703086,-69.90338,-69.67297,1.686343,-69.74925,LR
-0.07446289,-0.4353027,-0.1953125,-0.9306183,-0.7493282,0.9918472,-64.19283,8.80379,-113.8792,-64.3504,8.870602,-113.8578,-0.03271484,-0.9816895,0.3620605,0.8457253,-0.2867863,0.7478855,-69.72605,1.700906,-69.89037,-69.67958,1.790846,-69.76566,LR
-0.07788086,-0.4362793,-0.1916504,-0.8695498,-0.9783359,0.0,-64.21523,8.798018,-113.8693,-64.63113,9.282204,-113.3859,-0.02636719,-0.979248,0.359375,1.166336,-0.4547252,0.9158244,-69.70919,1.688718,-69.87527,-69.79754,1.447985,-69.85404,LR
-0.07885742,-0.4389648,-0.1999512,0.0,0.0,0.5949008,-64.20914,8.807753,-113.8661,-63.91129,9.284735,-114.1481,-0.03491211,-0.9841309,0.3618164,1.013664,-0.9280076,0.9310915,-69.69466,1.679442,-69.8606,-69.72787,1.907021,-69.82568,LR
-0.07836914,-0.4343262,-0.1999512,0.0,-1.131008,0.3200917,-64.19874,8.801136,-113.8716,-63.68904,9.308215,-114.3731,-0.02905273,-0.986084,0.3779297,0.7693894,-0.9890764,0.0,-69.66893,1.662832,-69.84415,-68.97354,1.575887,-69.03831,LR
-0.08032227,-0.4331055,-0.1950684,0.0,-1.298947,0.2895572,-64.19537,8.797974,-113.8676,-64.03009,9.597746,-113.8858,-0.01757813,-0.9833984,0.3674316,0.5403817,0.0,0.0,-69.65743,1.648761,-69.83759,-69.4911,0.9592865,-69.51557,LR
-0.08203125,-0.4384766,-0.2016602,-1.220695,-1.222611,0.442229,-64.20131,8.796968,-113.8703,-63.59534,9.646282,-114.3262,-0.02856445,-0.9851074,0.3774414,0.5251145,0.0,0.8852901,-69.63619,1.646806,-69.80869,-68.98107,1.55101,-69.04383,LR
-0.08496094,-0.4414063,-0.1945801,-1.419168,-1.176809,0.4727633,-64.22439,8.803504,-113.854,-64.31207,9.98876,-113.4065,-0.02563477,-0.9841309,0.3679199,0.5403817,-0.958542,0.0,-69.62465,1.627732,-69.80268,-69.45606,1.397672,-69.50797,LR
-0.08447266,-0.4365234,-0.1992188,-1.602374,-1.039405,0.1063511,-64.23609,8.811842,-113.8581,-63.63204,9.98436,-114.1354,-0.0246582,-0.984375,0.3720703,0.38771,-0.5157939,0.0,-69.61153,1.614441,-69.79264,-69.25304,1.34229,-69.30054,LR
-0.0871582,-0.4360352,-0.1999512,-1.648176,-1.039405,0.3811603,-64.24408,8.826286,-113.8596,-63.42402,10.29802,-114.2121,-0.02783203,-0.9887695,0.3730469,0.4335115,-0.6226641,0.0,-69.59846,1.603171,-69.78352,-69.27673,1.508599,-69.33681,LR
-0.08447266,-0.4367676,-0.1965332,-1.19016,-0.9172672,0.5949008,-64.25481,8.836327,-113.8504,-63.90552,10.00246,-113.8351,-0.03344727,-0.9853516,0.3745117,0.4182443,-0.4547252,1.312771,-69.58262,1.600771,-69.75256,-69.11354,1.817381,-69.20019,LR
-0.07861328,-0.4335938,-0.1989746,-1.235962,-0.5661222,0.4574962,-64.26142,8.838979,-113.8531,-63.73761,9.357338,-114.3008,-0.02441406,-0.984375,0.3752441,0.38771,-0.01197708,1.068496,-69.56751,1.595143,-69.72562,-69.09283,1.327584,-69.139,LR
-0.08129883,-0.4387207,-0.1948242,-0.9611526,-0.2455115,0.5643663,-64.2764,8.850839,-113.8395,-64.30376,9.61244,-113.588,-0.03515625,-0.9865723,0.3691406,0.5556489,0.2322977,0.8547558,-69.55602,1.604886,-69.7085,-69.40087,1.911538,-69.49785,LR
-0.07861328,-0.4353027,-0.1967773,-0.8390155,0.09036642,0.7933741,-64.28408,8.862048,-113.8307,-64.04382,9.344936,-113.9819,-0.03588867,-0.994873,0.3620605,0.219771,0.6750459,0.0,-69.55991,1.621541,-69.71461,-69.91203,1.941503,-70.01419,LR
-0.07885742,-0.4282227,-0.199707,-0.7321453,0.3804427,0.8544428,-64.27729,8.880272,-113.8334,-63.37065,9.474968,-114.6386,-0.0378418,-0.9865723,0.369873,0.4640458,0.5223741,1.007427,-69.54845,1.63844,-69.69377,-69.35036,2.056935,-69.46246,LR
-0.08081055,-0.434082,-0.2009277,-1.556572,-0.6271908,0.610168,-64.28432,8.885231,-113.8372,-63.48477,9.589188,-114.4684,-0.02905273,-0.9753418,0.3706055,0.6930535,0.2780993,1.221168,-69.53001,1.641659,-69.666,-69.13612,1.59498,-69.20289,LR
-0.08276367,-0.4279785,-0.2004395,-1.388634,-0.6577252,0.8544428,-64.28026,8.897169,-113.8426,-63.12892,9.933347,-114.694,-0.03125,-0.972168,0.3635254,0.4182443,0.430771,1.282237,-69.52224,1.649227,-69.64523,-69.42829,1.724571,-69.50729,LR
-0.07861328,-0.4309082,-0.1879883,-1.129092,-0.3523817,0.9307787,-64.30509,8.903906,-113.8166,-64.69193,9.492961,-113.2279,-0.03710938,-0.989502,0.3620605,0.3419085,0.339168,1.129565,-69.52288,1.66157,-69.63403,-69.80553,2.017092,-69.91532,LR
-0.07739258,-0.439209,-0.2150879,-0.9458857,-0.1386412,0.9765801,-64.283,8.903641,-113.8409,-62.50512,8.99258,-115.7474,-0.04394531,-0.9907227,0.3652344,0.7083206,0.2017633,0.9463588,-69.5146,1.678969,-69.62307,-69.62936,2.383204,-69.78163,LR
-0.07983398,-0.435791,-0.1982422,-1.129092,-0.6729923,0.0,-64.29257,8.904355,-113.8462,-63.87651,9.467002,-114.1064,-0.04394531,-0.9916992,0.3710938,0.7083206,-0.4852595,0.9463588,-69.50026,1.685312,-69.60582,-69.35286,2.37656,-69.50259,LR
-0.07592773,-0.4360352,-0.2038574,-1.235962,-0.7035267,0.8544428,-64.29338,8.895899,-113.8521,-63.48536,8.964181,-114.7305,-0.04516602,-0.9855957,0.3652344,0.6777863,-0.6531985,1.083763,-69.49144,1.691854,-69.59255,-69.52462,2.460518,-69.68626,LR
-0.07958984,-0.4365234,-0.2043457,-1.19016,-0.9325343,0.5185649,-64.29153,8.891805,-113.862,-63.32621,9.376589,-114.7274,-0.05102539,-0.9816895,0.3679199,0.6625191,-0.3631221,1.358572,-69.47737,1.708408,-69.57034,-69.27488,2.786454,-69.48028,LR
-0.08325195,-0.4318848,-0.2026367,-1.495504,-0.810397,0.4727633,-64.28976,8.900037,-113.8725,-63.10376,9.899031,-114.736,-0.03881836,-0.987793,0.3625488,0.08236647,-0.3020534,1.465443,-69.48141,1.712055,-69.55458,-69.73953,2.112781,-69.85968,LR
-0.08081055,-0.4318848,-0.2011719,-1.46497,-0.8561985,0.2132213,-64.29239,8.90198,-113.884,-63.34443,9.626518,-114.6009,-0.03955078,-0.9880371,0.3640137,-0.1924427,-0.4852595,1.312771,-69.48792,1.713703,-69.53999,-69.66583,2.151107,-69.79001,LR
-0.07983398,-0.4343262,-0.2009277,-1.373366,-0.5661222,0.04528236,-64.29745,8.905041,-113.8949,-63.53595,9.471112,-114.4654,-0.03637695,-0.9812012,0.3642578,0.3113741,-0.2562519,1.251702,-69.4844,1.715474,-69.52371,-69.5403,1.990582,-69.64606,LR
-0.08105469,-0.434082,-0.2016602,-1.266496,-0.7035267,0.3353589,-64.29819,8.908828,-113.903,-63.40339,9.611542,-114.5449,-0.04077148,-0.9724121,0.3632813,0.1129008,-0.5157939,1.190634,-69.48099,1.718567,-69.50636,-69.39709,2.249238,-69.53142,LR
-0.08251953,-0.4355469,-0.1962891,-1.342832,-0.5966565,0.1521528,-64.32143,8.913203,-113.8992,-63.94701,9.800048,-113.8835,-0.03881836,-0.9794922,0.3779297,0.1434351,-0.5310611,1.251702,-69.46414,1.714575,-69.46635,-68.8001,2.117507,-68.91636,LR
-0.08300781,-0.4316406,-0.2062988,-1.08329,-0.3523817,0.091084,-64.3058,8.926626,-113.9227,-62.7434,9.843332,-115.1426,-0.03857422,-0.9807129,0.3735352,0.2961069,-0.3783893,1.053229,-69.45147,1.716823,-69.44482,-69.04781,2.105069,-69.16383,LR
-0.08666992,-0.4304199,-0.1984863,-0.8390155,-0.1997099,0.1216183,-64.2978,8.952405,-113.929,-63.28884,10.36235,-114.3264,-0.04345703,-0.980957,0.369873,0.2655725,-0.1341145,1.129565,-69.44276,1.727988,-69.42651,-69.21089,2.373662,-69.35942,LR
-0.08276367,-0.4353027,-0.1984863,-0.5336719,-0.1691756,0.4116948,-64.29388,8.967164,-113.927,-63.70948,9.814683,-114.1299,-0.04833984,-0.979248,0.3754883,0.479313,-0.3325878,0.793687,-69.42412,1.74132,-69.4072,-68.863,2.639006,-69.0442,LR
-0.07958984,-0.4304199,-0.2121582,-0.8237481,-0.3676488,0.3200917,-64.26482,8.970761,-113.9609,-62.23531,9.417241,-115.8591,-0.03857422,-0.9841309,0.3769531,0.6319848,-0.1188473,0.0,-69.40517,1.746671,-69.40018,-68.9417,2.096262,-69.05627,LR
-0.08007813,-0.4345703,-0.2041016,-0.8237481,-0.6577252,0.3200917,-64.2562,8.971062,-113.9728,-63.22823,9.469201,-114.7916,-0.03979492,-0.987793,0.3674316,0.2961069,-0.08831299,0.961626,-69.40245,1.753688,-69.39027,-69.48679,2.162408,-69.61137,LR
-0.08447266,-0.4299316,-0.2163086,-0.7779465,-0.5661222,0.3353589,-64.21502,8.982417,-114.0139,-61.62532,9.954962,-116.2748,-0.04907227,-0.9802246,0.3745117,0.3419085,-0.3325878,0.0,-69.38791,1.767275,-69.38474,-68.92667,2.677498,-69.11368,LR
-0.07983398,-0.4287109,-0.2023926,-0.900084,-0.7035267,0.4269619,-64.2058,8.983602,-114.0253,-63.09241,9.558713,-114.8968,-0.03588867,-0.9782715,0.364502,0.6167176,-0.1341145,0.0,-69.38056,1.769336,-69.38859,-69.47411,1.968885,-69.57731,LR
-0.08520508,-0.4338379,-0.1931152,-0.9153514,-0.7493282,0.5490992,-64.21626,8.996356,-114.0086,-64.05552,10.17208,-113.5951,-0.03491211,-0.9775391,0.3669434,0.6930535,-0.07304579,0.7326183,-69.36956,1.771176,-69.37879,-69.34005,1.91504,-69.43715,LR
-0.08300781,-0.4299316,-0.1977539,-0.9153514,-0.2607787,0.6254351,-64.21515,9.011572,-114.0054,-63.48794,9.948838,-114.3051,-0.04052734,-0.9838867,0.3747559,0.5098474,0.09489316,0.6715496,-69.35542,1.781236,-69.36464,-69.03746,2.204415,-69.16464,LR
-0.07470703,-0.4309082,-0.2116699,-0.3962674,-0.06230533,0.442229,-64.18636,9.007322,-114.0353,-62.4843,8.844894,-115.8269,-0.04492188,-0.989502,0.373291,0.2503054,-0.3173206,0.442542,-69.34853,1.789591,-69.35785,-69.19455,2.432256,-69.35042,LR
-0.07495117,-0.4335938,-0.2099609,-0.5336719,-0.2149771,0.701771,-64.16626,9.000879,-114.0544,-62.78945,8.843164,-115.5085,-0.04516602,-0.9831543,0.3706055,0.7846565,-0.5768626,0.5646794,-69.33414,1.794549,-69.34971,-69.20599,2.461468,-69.36572,LR
-0.08325195,-0.4360352,-0.2075195,-0.5184045,-0.8561985,0.86971,-64.14758,9.003908,-114.0617,-62.85152,9.781668,-115.0551,-0.04467773,-0.9777832,0.375,0.0,-0.6684657,0.9310915,-69.32509,1.79769,-69.32977,-68.8818,2.442921,-69.03712,LR
-0.08300781,-0.4335938,-0.2009277,-0.9916873,-0.902,0.701771,-64.14664,9.007648,-114.0596,-63.37135,9.853833,-114.472,-0.04492188,-0.9853516,0.371582,0.4029771,-0.439458,0.8852901,-69.31667,1.804128,-69.31731,-69.20063,2.442605,-69.35786,LR
-0.09326172,-0.4277344,-0.2094727,-0.8237481,-0.2760458,0.3048244,-64.11192,9.045021,-114.0853,-61.80555,11.07924,-115.5704,-0.03881836,-0.9890137,0.3625488,0.1739695,0.1254275,0.6715496,-69.32304,1.812099,-69.31874,-69.76251,2.110484,-69.88251,LR
-0.07568359,-0.4267578,-0.2036133,-0.3199313,-0.4897862,0.8239083,-64.09486,9.038794,-114.0948,-63.02342,9.093667,-115.1635,-0.046875,-0.9858398,0.3725586,0.9220611,0.09489316,0.3356718,-69.30599,1.828187,-69.31381,-69.1487,2.546732,-69.31931,LR
-0.06591797,-0.4350586,-0.1992188,-0.2588627,-0.8867329,0.0,-64.10178,9.001856,-114.1,-64.25066,7.843642,-114.3584,-0.04418945,-0.9816895,0.364502,0.0,0.04909158,0.5036107,-69.30974,1.840672,-69.31311,-69.49323,2.416375,-69.64892,LR
-0.08154297,-0.4353027,-0.1938477,-0.8695498,0.0,0.701771,-64.11681,9.016031,-114.0805,-64.21423,9.710629,-113.6392,-0.03759766,-0.9824219,0.3647461,0.6319848,-0.2867863,0.6562824,-69.3049,1.840738,-69.3101,-69.53243,2.054745,-69.64511,LR
-0.08666992,-0.4350586,-0.1977539,-0.9611526,-0.9783359,0.4880307,-64.12072,9.026916,-114.0722,-63.60552,10.27933,-114.0266,-0.03662109,-0.9899902,0.3718262,0.6014504,-0.5463283,0.8242214,-69.29643,1.835559,-69.30034,-69.32335,1.983327,-69.42743,LR
-0.08374023,-0.4309082,-0.2004395,-0.7474122,-0.7035267,0.9765801,-64.11422,9.035898,-114.0673,-63.24647,9.993184,-114.5421,-0.04614258,-0.9838867,0.3781738,0.9373282,-0.5005267,0.8852901,-69.27338,1.841621,-69.28123,-68.8327,2.506575,-68.99595,LR
-0.07958984,-0.4287109,-0.206543,-0.7321453,-0.7187939,0.8239083,-64.09582,9.035216,-114.0816,-62.69231,9.49489,-115.3461,-0.03735352,-0.9819336,0.3742676,0.9525955,-0.1341145,0.6257481,-69.25566,1.843665,-69.27001,-69.04079,2.035793,-69.14925,LR
-0.08105469,-0.4291992,-0.2080078,-0.7168779,-0.3523817,0.610168,-64.07482,9.042232,-114.1003,-62.51941,9.644958,-115.4649,-0.04150391,-0.9787598,0.3706055,0.6167176,-0.2257175,0.5188779,-69.24432,1.848893,-69.26254,-69.1424,2.270982,-69.27797,LR
-0.08398438,-0.4348145,-0.2026367,-0.5794735,-0.4745191,0.3964274,-64.06644,9.053016,-114.1042,-63.23037,9.93024,-114.5876,-0.04150391,-0.9797363,0.3745117,0.3571756,-0.2715191,0.3662061,-69.23345,1.853244,-69.25385,-68.96337,2.266004,-69.09738,LR
-0.08398438,-0.4318848,-0.1992188,-0.5794735,-0.6119237,0.6559694,-64.06179,9.06324,-114.0997,-63.40784,10.01403,-114.3608,-0.05517578,-0.9777832,0.3713379,0.7846565,0.01855725,0.3967404,-69.21717,1.876846,-69.24763,-68.99597,3.01974,-69.23467,LR
-0.08203125,-0.4335938,-0.2089844,-0.3504658,-0.5966565,0.5338321,-64.03822,9.06664,-114.1166,-62.62565,9.67179,-115.3413,-0.04443359,-0.9775391,0.3642578,0.5403817,-0.1493817,0.3509389,-69.21338,1.885893,-69.24917,-69.42439,2.438956,-69.58257,LR
-0.08325195,-0.4311523,-0.2009277,-0.3962674,-0.6271908,0.6254351,-64.02791,9.074634,-114.1169,-63.23161,9.927329,-114.5875,-0.05102539,-0.9758301,0.3769531,0.7846565,0.04909158,0.5952138,-69.19164,1.904746,-69.23354,-68.70353,2.792474,-68.90524,LR
-0.08642578,-0.4326172,-0.2062988,-0.5642061,-0.8561985,0.4880307,-64.00884,9.084991,-114.1286,-62.66023,10.2218,-115.0618,-0.04956055,-0.9729004,0.3601074,0.6625191,-0.1188473,0.2898702,-69.18832,1.919607,-69.23887,-69.51295,2.73514,-69.71273,LR
-0.08276367,-0.4301758,-0.213623,-0.7016106,-0.8561985,0.442229,-63.97821,9.086246,-114.1594,-61.96193,9.777043,-115.9962,-0.04711914,-0.9753418,0.3762207,0.5403817,-0.2257175,0.5036107,-69.17175,1.929512,-69.22527,-68.75662,2.580769,-68.92918,LR
-0.08691406,-0.4328613,-0.2006836,-0.5031376,-0.9325343,0.6254351,-63.96996,9.097294,-114.1559,-63.19556,10.32404,-114.4441,-0.04589844,-0.980957,0.3752441,0.906794,-0.1951832,0.3509389,-69.15347,1.938099,-69.21736,-68.92435,2.502303,-69.08762,LR
-0.0859375,-0.4294434,-0.2102051,-0.7626796,0.0,0.6254351,-63.94436,9.119135,-114.1764,-62.12971,10.18937,-115.6394,-0.04638672,-0.9838867,0.3679199,0.7235878,-0.1646488,0.442542,-69.14672,1.947487,-69.21687,-69.34829,2.52853,-69.5178,LR
-0.07836914,-0.4274902,-0.2028809,-0.4878702,-0.7340611,0.4269619,-63.93286,9.114759,-114.1875,-63.03471,9.403899,-115.0235,-0.04321289,-0.9970703,0.3708496,0.8457253,-0.1341145,0.183,-69.14161,1.95322,-69.22232,-69.47129,2.326139,-69.61541,LR
-0.08862305,-0.4289551,-0.1984863,-0.5336719,0.0,0.4880307,-63.92458,9.144859,-114.1841,-63.12643,10.61976,-114.3777,-0.04760742,-0.979248,0.375,0.906794,-0.1188473,-0.06127481,-69.12329,1.964398,-69.22014,-68.89239,2.599509,-69.06839,LR
-0.08227539,-0.4335938,-0.2160645,-0.4268017,-1.024137,0.5490992,-63.89101,9.139684,-114.2141,-61.93274,9.638811,-116.0852,-0.04418945,-0.9836426,0.3798828,0.0,-0.2867863,0.2898702,-69.11591,1.968889,-69.20953,-68.75371,2.399725,-68.90284,LR
-0.08642578,-0.4321289,-0.2028809,-0.3657329,-1.207344,0.5643663,-63.87785,9.144376,-114.2159,-62.96405,10.26169,-114.7201,-0.05126953,-0.9719238,0.3735352,0.8151909,-0.3020534,0.2593359,-69.09755,1.98145,-69.2016,-68.79729,2.818927,-69.00359,LR
-0.08544922,-0.4272461,-0.2050781,-0.4420686,-0.8867329,0.091084,-63.85731,9.152871,-114.2344,-62.52556,10.22088,-115.2054,-0.04248047,-0.9807129,0.3742676,0.8151909,-0.2257175,0.1524656,-69.0834,1.984852,-69.19791,-68.9893,2.317443,-69.12962,LR
-0.09082031,-0.4321289,-0.1970215,-0.2435954,-0.5661222,0.3353589,-63.85057,9.178013,-114.2257,-63.34146,10.82604,-114.0457,-0.04711914,-0.9765625,0.3764648,0.5709161,-0.2409847,0.07612977,-69.06871,1.993167,-69.19165,-68.76846,2.577748,-68.9407,LR
-0.08349609,-0.4343262,-0.2087402,-0.197794,-0.7951298,0.3811603,-63.82912,9.179365,-114.2409,-62.63257,9.830056,-115.2657,-0.04223633,-0.9848633,0.3752441,0.4029771,0.04909158,0.04559542,-69.06187,1.999924,-69.19035,-69.02232,2.29491,-69.1601,LR
-0.08813477,-0.4311523,-0.2021484,0.1533511,-0.642458,0.0147481,-63.80851,9.196051,-114.2493,-62.91114,10.48584,-114.672,-0.04882813,-0.9833984,0.3774414,0.3419085,0.03382444,-0.1070763,-69.05247,2.013504,-69.18864,-68.84298,2.654064,-69.02612,LR
-0.08691406,-0.4304199,-0.2033691,0.1838853,-0.09283972,-0.1531909,-63.78554,9.217609,-114.2637,-62.80451,10.3468,-114.8508,-0.04516602,-0.9831543,0.3813477,-0.02450383,0.06435877,-0.1986794,-69.04509,2.023293,-69.18439,-68.66474,2.452523,-68.81999,LR
-0.08935547,-0.4289551,-0.2185059,0.1228168,-0.1081069,0.04528236,-63.73151,9.241975,-114.3079,-61.17434,10.5153,-116.5048,-0.04321289,-0.9836426,0.3742676,0.08236647,0.3239008,-0.1223435,-69.04382,2.034613,-69.18624,-69.04221,2.351229,-69.18696,LR
-0.08300781,-0.4282227,-0.2080078,0.5044961,-0.1844428,0.182687,-63.69727,9.252238,-114.3289,-62.39061,9.890707,-115.4951,-0.04101563,-0.9868164,0.3786621,0.1739695,0.4002366,-0.3666183,-69.03829,2.04425,-69.18838,-68.89513,2.222236,-69.02367,LR
-0.08178711,-0.4331055,-0.2075195,0.2144198,-0.123374,0.3048244,-63.67519,9.258675,-114.3421,-62.75095,9.664717,-115.2121,-0.04638672,-0.984375,0.3781738,0.2045038,0.4155039,-0.2750153,-69.03133,2.059847,-69.18877,-68.84077,2.518733,-69.00566,LR
-0.07885742,-0.4277344,-0.2053223,0.3976259,-0.123374,0.4269619,-63.65159,9.260418,-114.3544,-62.78736,9.436525,-115.2705,-0.05175781,-0.9804688,0.3640137,0.3266413,0.1101603,-0.4887558,-69.03479,2.076932,-69.20534,-69.444,2.833156,-69.6578,LR
-0.08374023,-0.4326172,-0.2026367,0.3518243,-0.291313,-0.1379237,-63.63585,9.269775,-114.3632,-63.1233,9.942387,-114.6959,-0.04199219,-0.972168,0.376709,0.38771,-0.2715191,-0.1070763,-69.02238,2.077531,-69.19955,-68.6995,2.306416,-68.83694,LR
-0.08789063,-0.4262695,-0.2033691,-0.2588627,0.0,0.182687,-63.61769,9.295214,-114.3742,-62.53738,10.54169,-115.0449,-0.03881836,-0.9760742,0.3769531,0.5403817,0.3239008,-0.07654199,-69.00964,2.083235,-69.19466,-68.78203,2.124665,-68.89899,LR
-0.08178711,-0.4331055,-0.2016602,0.1228168,-0.3371145,-0.1073892,-63.60999,9.298641,-114.38,-63.32272,9.714381,-114.5854,-0.03955078,-0.986084,0.3720703,-0.1161069,0.4765725,-0.1223435,-69.01556,2.091558,-69.19942,-69.22091,2.149099,-69.34265,LR
-0.08300781,-0.4333496,-0.2021484,0.1838853,0.1056336,0.1368854,-63.60005,9.311076,-114.3828,-63.23931,9.847908,-114.6149,-0.04589844,-0.9824219,0.3823242,0.219771,0.4765725,-0.2597481,-69.00417,2.106125,-69.19414,-68.59684,2.493021,-68.75684,LR
-0.08081055,-0.4328613,-0.2067871,0.3976259,-0.3676488,0.7323053,-63.57913,9.310688,-114.3875,-62.84653,9.561937,-115.1551,-0.046875,-0.9841309,0.3779297,0.6167176,0.3239008,-0.4429542,-68.99192,2.119684,-69.19704,-68.84523,2.545972,-69.01374,LR
-0.08691406,-0.432373,-0.2011719,0.3365571,-0.6577252,0.6407022,-63.56505,9.321387,-114.3807,-63.12226,10.32906,-114.5201,-0.04248047,-0.9794922,0.3735352,0.4945802,-0.07304579,-0.4429542,-68.98486,2.122627,-69.20248,-69.00249,2.320538,-69.14326,LR
-0.0859375,-0.4367676,-0.2138672,0.3670917,-0.5203207,0.182687,-63.53193,9.327737,-114.4037,-62.17886,10.02131,-115.6618,-0.05249023,-0.9785156,0.376709,0.3419085,-0.05777865,-0.4429542,-68.97532,2.136643,-69.20438,-68.75893,2.865896,-68.97188,LR
-0.09008789,-0.4289551,-0.1970215,0.4586947,-0.2607787,0.1368854,-63.51863,9.353446,-114.3977,-63.20424,10.8049,-114.2039,-0.03979492,-0.9794922,0.3845215,0.2045038,0.04909158,-0.2139466,-68.96206,2.137948,-69.19509,-68.46239,2.165799,-68.58247,LR
-0.08862305,-0.4331055,-0.1999512,-0.02985501,-0.550855,-0.3058627,-63.51283,9.368767,-114.4009,-63.20699,10.5244,-114.3371,-0.04150391,-0.9824219,0.3786621,0.02129769,0.1254275,-0.03074045,-68.95863,2.142181,-69.19041,-68.80641,2.257416,-68.93861,LR
-0.09106445,-0.4272461,-0.197998,-0.09092379,-0.2302443,-0.4738016,-63.50349,9.396683,-114.408,-62.97414,10.94508,-114.3823,-0.03955078,-0.9829102,0.3728027,-0.4825191,0.2475649,-0.1528779,-68.96947,2.146312,-69.19389,-69.12249,2.154633,-69.24439,LR
-0.08813477,-0.4316406,-0.2114258,0.2754886,0.1056336,0.0,-63.47029,9.418118,-114.4326,-62.04629,10.39087,-115.6371,-0.03662109,-0.9865723,0.3779297,-0.3451145,0.4002366,-0.5345572,-68.97416,2.148975,-69.19892,-68.9499,1.985262,-69.05267,LR
-0.08227539,-0.4282227,-0.2041016,0.3976259,0.1361679,-0.3058627,-63.44796,9.429614,-114.4525,-62.80168,9.839463,-115.0826,-0.04370117,-0.9802246,0.3710938,-0.1161069,0.858252,-0.3971527,-68.97997,2.173091,-69.20955,-69.13333,2.387559,-69.28315,LR
-0.08837891,-0.4333496,-0.2072754,0.3670917,0.01403052,-0.1073892,-63.4245,9.44971,-114.4671,-62.52673,10.42476,-115.1107,-0.03686523,-0.9785156,0.3769531,-0.1924427,0.6750459,-0.3055496,-68.9798,2.179161,-69.20846,-68.8402,2.013474,-68.94547,LR
-0.08227539,-0.4294434,-0.1943359,0.2754886,-0.031771,-0.06158781,-63.42829,9.458238,-114.458,-63.82981,9.900997,-113.9626,-0.04931641,-0.9758301,0.373291,-0.03977096,0.9040535,-0.1528779,-68.97884,2.203803,-69.2085,-68.90035,2.702477,-69.09068,LR
-0.08520508,-0.4370117,-0.2106934,0.6266336,0.07509923,-0.1226563,-63.40097,9.469398,-114.4771,-62.52311,9.961049,-115.3241,-0.04443359,-0.980957,0.3693848,-0.08557248,0.6750459,-0.2597481,-68.98511,2.218196,-69.21586,-69.22976,2.427338,-69.38521,LR
-0.08251953,-0.4350586,-0.2055664,0.4128931,-0.01650381,-0.1379237,-63.38722,9.474392,-114.4876,-63.01701,9.731239,-114.9019,-0.04296875,-0.9855957,0.3737793,0.08236647,0.7361145,-0.04600763,-68.98631,2.231339,-69.21719,-69.10616,2.334299,-69.24919,LR
-0.08129883,-0.4328613,-0.2021484,0.2602212,-0.06230533,0.091084,-63.38128,9.477143,-114.4896,-63.28124,9.657778,-114.6542,-0.04394531,-0.9882813,0.3742676,-0.1161069,0.5834427,0.03032825,-68.99084,2.242914,-69.21794,-69.12778,2.381233,-69.27678,LR
-0.08349609,-0.4355469,-0.2043457,-0.01458788,-0.291313,0.1674199,-63.37634,9.479948,-114.492,-63.12298,9.845732,-114.7393,-0.0390625,-0.9899902,0.3771973,0.08236647,0.2170305,-0.1986794,-68.99055,2.243691,-69.21985,-69.04073,2.111642,-69.15742,LR
-0.08447266,-0.4345703,-0.2041016,0.1991527,-0.5661222,-0.168458,-63.367,9.481601,-114.4997,-63.05583,9.97867,-114.7513,-0.0390625,-0.987793,0.3793945,0.08236647,0.171229,-0.06127481,-68.98728,2.243618,-69.21643,-68.88776,2.114168,-69.00404,LR
-0.08203125,-0.4521484,-0.204834,-0.07565641,-0.642458,-0.1531909,-63.38053,9.470201,-114.4924,-63.98754,9.38379,-114.0248,-0.04125977,-0.9846191,0.3708496,0.3266413,0.4155039,0.2593359,-68.98763,2.249768,-69.21585,-69.24496,2.245703,-69.37806,LR
-0.09228516,-0.434082,-0.2026367,-0.3199313,-0.993603,0.091084,-63.37451,9.48427,-114.4921,-62.84452,10.904,-114.542,-0.03979492,-0.982666,0.3864746,0.0976336,0.4155039,0.3051374,-68.975,2.254046,-69.19798,-68.42757,2.158283,-68.54667,LR
-0.08398438,-0.4318848,-0.1977539,0.1533511,-0.382916,-0.1226563,-63.37579,9.489489,-114.4881,-63.55113,10.02666,-114.2023,-0.04345703,-0.984375,0.3708496,-0.05503809,0.3086336,0.1371985,-68.98086,2.260815,-69.19951,-69.22756,2.365677,-69.3752,LR
-0.08081055,-0.4318848,-0.2016602,0.03121376,-0.1844428,0.091084,-63.37374,9.489436,-114.49,-63.29644,9.622429,-114.6535,-0.03735352,-0.9868164,0.3620605,-0.3451145,-0.2104504,-0.0002061129,-69.00139,2.25321,-69.21283,-69.75375,2.035218,-69.8653,LR
-0.08227539,-0.4360352,-0.2092285,0.07701516,-0.4745191,0.2132213,-63.35954,9.4853,-114.5018,-62.72393,9.654651,-115.2449,-0.03955078,-0.9833984,0.3657227,0.2350382,0.1864962,-0.0002061129,-69.00749,2.254246,-69.22088,-69.49093,2.158802,-69.61512,LR
-0.08789063,-0.4338379,-0.2009277,-0.07565641,-0.6882596,0.4116948,-63.35712,9.493805,-114.494,-63.18292,10.41639,-114.4142,-0.0625,-0.9819336,0.3649902,0.4640458,0.171229,0.3967404,-69.00728,2.279964,-69.22357,-69.33775,3.414313,-69.64742,LR
-0.08251953,-0.4328613,-0.2080078,-0.5184045,-0.8409313,0.3811603,-63.35084,9.486563,-114.5039,-62.66218,9.749789,-115.2692,-0.04589844,-0.9868164,0.3674316,0.479313,0.4155039,0.6562824,-69.00874,2.29039,-69.22142,-69.43219,2.495839,-69.5979,LR
-0.08178711,-0.4316406,-0.21875,-0.6558094,-0.8714657,0.3964274,-63.3245,9.476738,-114.5378,-61.58436,9.593152,-116.47,-0.04394531,-0.9851074,0.373291,0.5556489,0.4460382,0.6562824,-69.00324,2.298476,-69.21329,-69.11559,2.388716,-69.26544,LR
-0.08642578,-0.4294434,-0.1960449,-0.5794735,-0.8561985,0.350626,-63.33624,9.482109,-114.5241,-63.48532,10.3746,-114.1102,-0.04052734,-0.9831543,0.3659668,0.647252,0.339168,0.7326183,-69.00303,2.301739,-69.21024,-69.46842,2.212356,-69.59875,LR
-0.08081055,-0.432373,-0.2041016,-0.5642061,-0.8409313,0.1674199,-63.33947,9.471969,-114.529,-63.08295,9.593206,-114.892,-0.0456543,-0.9816895,0.3757324,0.3571756,0.06435877,0.6868168,-68.99603,2.30639,-69.19747,-68.91557,2.486979,-69.07677,LR
-0.08300781,-0.4350586,-0.1977539,-0.5947404,-0.7951298,0.350626,-63.35659,9.467915,-114.5145,-63.75829,9.853683,-114.0603,-0.04174805,-0.9689941,0.3747559,0.219771,0.06435877,0.4730763,-68.98763,2.30723,-69.18405,-68.73701,2.301101,-68.87402,LR
-0.0847168,-0.4306641,-0.1982422,-0.7168779,-0.7951298,0.350626,-63.36816,9.469493,-114.5051,-63.40803,10.13122,-114.3069,-0.04833984,-0.980957,0.3654785,0.3571756,-0.02724427,0.6104809,-68.99068,2.313563,-69.18317,-69.40286,2.643892,-69.58866,LR
-0.08203125,-0.4362793,-0.2102051,-0.5489388,-0.9325343,0.442229,-63.3619,9.458675,-114.5153,-62.65194,9.613992,-115.3383,-0.04394531,-0.9858398,0.3725586,0.6777863,-0.08831299,0.8394885,-68.98423,2.313749,-69.17349,-69.16669,2.387752,-69.31673,LR
-0.07861328,-0.439209,-0.1889648,-0.5947404,0.0,0.3811603,-63.4043,9.456239,-114.4781,-65.01517,9.336852,-112.9531,-0.04223633,-0.9794922,0.3720703,0.5709161,0.1406947,0.0,-68.97716,2.315847,-69.17438,-69.07814,2.308362,-69.21786,LR
-0.08154297,-0.4316406,-0.2006836,-0.8390155,-0.9325343,0.3048244,-63.41555,9.44782,-114.4751,-63.35035,9.720667,-114.5534,-0.04736328,-0.9824219,0.3735352,0.3419085,0.07962596,1.007427,-68.97319,2.322305,-69.16016,-69.03001,2.580193,-69.20435,LR
-0.07958984,-0.4296875,-0.1899414,-1.037488,0.0,0.2284887,-63.45034,9.451171,-114.4521,-64.39233,9.615372,-113.4923,-0.04614258,-0.9858398,0.3771973,0.4029771,-0.1646488,1.266969,-68.9662,2.3235,-69.14001,-68.91998,2.50308,-69.08331,LR
-0.08496094,-0.4362793,-0.2011719,-1.19016,-1.375283,0.4880307,-63.46703,9.442506,-114.4429,-63.41002,10.02877,-114.3518,-0.04174805,-0.982666,0.3820801,0.3571756,0.01855725,1.572313,-68.95438,2.322654,-69.1095,-68.63784,2.267536,-68.77037,LR
-0.08959961,-0.4296875,-0.2058105,-1.556572,-1.650092,0.3353589,-63.46892,9.442416,-114.4516,-62.41747,10.65082,-115.1215,-0.04711914,-0.9833984,0.375,0.6319848,-0.1035802,1.419641,-68.94553,2.325946,-69.08942,-68.97678,2.563418,-69.14848,LR
-0.08837891,-0.4287109,-0.2016602,-1.510771,-1.405817,0.6559694,-63.47807,9.444236,-114.4476,-62.81598,10.56668,-114.7355,-0.05957031,-0.9829102,0.3728027,0.6014504,-0.02724427,1.511244,-68.93755,2.343893,-69.07069,-68.9884,3.243311,-69.26383,LR
-0.08251953,-0.427002,-0.2009277,-1.510771,-1.558489,0.5490992,-63.49148,9.430812,-114.4465,-63.03788,9.918544,-114.7972,-0.05175781,-0.9802246,0.3742676,0.647252,-0.08831299,1.663916,-68.9277,2.352198,-69.0474,-68.92075,2.824031,-69.12879,LR
-0.08618164,-0.4335938,-0.2043457,-1.526038,-1.512687,0.9460459,-63.50231,9.423811,-114.4398,-62.91105,10.19258,-114.8083,-0.04980469,-0.9763184,0.3706055,0.7693894,-0.1188473,1.541779,-68.91869,2.358017,-69.02856,-69.04279,2.730498,-69.23819,LR
-0.08154297,-0.4291992,-0.2004395,-1.449702,-1.451618,0.0,-63.51845,9.409342,-114.444,-63.24391,9.767282,-114.6457,-0.04956055,-0.9799805,0.3747559,0.6319848,-0.2867863,1.633382,-68.90915,2.36073,-69.00591,-68.90632,2.704463,-69.09696,LR
-0.08129883,-0.4311523,-0.206543,-1.373366,-1.619557,0.0,-63.52346,9.39037,-114.4593,-62.75953,9.651153,-115.2088,-0.04492188,-0.986084,0.3676758,0.8609924,-0.2104504,1.557046,-68.90655,2.359306,-68.99432,-69.41195,2.444195,-69.57073,LR
-0.08300781,-0.4299316,-0.2121582,-1.57184,-2.031771,0.86971,-63.51772,9.369151,-114.4743,-62.08109,9.822745,-115.8512,-0.04101563,-0.9821777,0.3747559,0.0,-0.04251146,1.663916,-68.90845,2.356181,-68.97262,-69.00147,2.234334,-69.13197,LR
-0.08251953,-0.4289551,-0.206543,-1.480237,-1.955435,1.510931,-63.52098,9.349689,-114.4687,-62.59282,9.833227,-115.3063,-0.05395508,-0.9802246,0.3830566,0.9373282,-0.1951832,1.984527,-68.88577,2.364886,-68.93768,-68.46372,2.934869,-68.68457,LR
-0.08813477,-0.4272461,-0.1960449,-1.57184,-1.940168,1.098718,-63.54107,9.344654,-114.4461,-63.2933,10.61909,-114.1989,-0.04833984,-0.9772949,0.3811035,0.0,-0.3783893,1.679183,-68.87888,2.364425,-68.907,-68.5411,2.638494,-68.72001,LR
-0.09106445,-0.4328613,-0.2058105,-1.526038,-1.909634,1.052916,-63.54177,9.346714,-114.4418,-62.52877,10.75771,-114.9516,-0.04833984,-0.9758301,0.3840332,0.0,-0.2867863,1.755519,-68.86858,2.365987,-68.87562,-68.36421,2.639236,-68.54204,LR
-0.08569336,-0.4299316,-0.2019043,-1.602374,-1.665359,0.9765801,-63.5539,9.339838,-114.4332,-62.97083,10.22697,-114.7289,-0.05102539,-0.9753418,0.3835449,0.0,-0.3936565,1.69445,-68.85844,2.368626,-68.84439,-68.36146,2.787316,-68.55984,LR
-0.09106445,-0.4296875,-0.1943359,-1.419168,-1.650092,0.9002442,-63.57287,9.347371,-114.4086,-63.45946,10.92933,-113.8668,-0.04760742,-0.9743652,0.3845215,0.7235878,-0.2104504,1.58758,-68.83692,2.370205,-68.81391,-68.3147,2.602237,-68.48724,LR
-0.09008789,-0.4245605,-0.206543,-1.648176,-1.283679,0.5643663,-63.5665,9.357607,-114.4211,-62.04293,10.80273,-115.4493,-0.06005859,-0.9794922,0.3837891,0.4640458,-0.1951832,1.679183,-68.82071,2.385281,-68.78576,-68.36706,3.267472,-68.64002,LR
-0.09130859,-0.4291992,-0.2089844,-1.220695,-1.314214,0.4727633,-63.55342,9.367702,-114.4351,-62.01545,10.82832,-115.4665,-0.05249023,-0.9790039,0.3818359,0.2808397,0.1406947,1.190634,-68.81039,2.396836,-68.76695,-68.51079,2.859612,-68.72079,LR
-0.08691406,-0.4279785,-0.2077637,-0.9458857,-1.283679,0.5796337,-63.54118,9.368542,-114.4467,-62.24579,10.35326,-115.4424,-0.05322266,-0.9787598,0.3881836,0.2350382,0.1254275,1.282237,-68.79438,2.408617,-68.74067,-68.18288,2.893684,-68.39532,LR
-0.0847168,-0.4267578,-0.2021484,0.0,-0.8714657,0.7781069,-63.52665,9.371778,-114.4447,-62.81501,10.17086,-114.9204,-0.05761719,-0.9775391,0.3803711,0.3419085,0.2475649,1.175366,-68.78382,2.426964,-68.72401,-68.5179,3.144053,-68.772,LR
-0.08813477,-0.4331055,-0.2109375,0.0,-0.8714657,0.259023,-63.49958,9.378884,-114.4623,-62.17319,10.36762,-115.513,-0.05737305,-0.982666,0.3789063,0.06709921,-0.1188473,1.297504,-68.78106,2.439041,-68.70939,-68.69495,3.118143,-68.94656,LR
-0.08959961,-0.4328613,-0.2080078,-0.5642061,-0.9478015,0.442229,-63.48549,9.388738,-114.4706,-62.38022,10.56818,-115.2001,-0.05981445,-0.9797363,0.3894043,0.3419085,0.2475649,1.328038,-68.76229,2.458843,-68.6829,-68.09396,3.24717,-68.3608,LR
-0.08300781,-0.4306641,-0.2114258,-0.3657329,-0.642458,0.5796337,-63.46501,9.387839,-114.4874,-62.19235,9.816047,-115.7367,-0.05932617,-0.9772949,0.3869629,1.013664,0.003290057,1.526511,-68.73554,2.474322,-68.6555,-68.16998,3.23041,-68.43481,LR
-0.08666992,-0.4243164,-0.2041016,-0.06038928,-1.00887,0.610168,-63.44477,9.393847,-114.4933,-62.40913,10.42971,-115.2336,-0.05883789,-0.9641113,0.3862305,1.212137,-0.4852595,1.633382,-68.70183,2.482551,-68.62249,-67.94075,3.242415,-68.20531,LR
-0.09619141,-0.4233398,-0.2055664,-0.8390155,-1.71116,0.4727633,-63.42428,9.411855,-114.5033,-61.80357,11.55197,-115.3382,-0.04785156,-0.9699707,0.3852539,1.273206,-0.4852595,1.816588,-68.67282,2.478268,-68.59057,-68.18708,2.625114,-68.36185,LR
-0.09399414,-0.4301758,-0.2141113,-0.9916873,-1.787496,0.04528236,-63.40079,9.416948,-114.5311,-61.47242,11.06794,-115.9317,-0.04882813,-0.9765625,0.3710938,0.6777863,-0.1188473,1.48071,-68.66933,2.48036,-68.57988,-69.0294,2.67601,-69.21694,LR
-0.09033203,-0.4277344,-0.2077637,-0.7474122,-0.9630688,0.4269619,-63.3856,9.42957,-114.5426,-62.09185,10.75594,-115.4193,-0.05322266,-0.9829102,0.3867188,0.5403817,0.2780993,1.190634,-68.65479,2.492532,-68.56181,-68.33943,2.884598,-68.55177,LR
-0.08984375,-0.4296875,-0.2028809,-0.4573359,-0.9172672,0.5490992,-63.37839,9.441631,-114.5398,-62.68886,10.70679,-114.8047,-0.05493164,-0.9833984,0.378418,0.4487787,0.5834427,0.793687,-68.65014,2.510943,-68.55857,-68.75195,2.984265,-68.98286,LR
-0.08935547,-0.4313965,-0.2104492,-0.06038928,-0.7493282,0.8391757,-63.35324,9.452694,-114.5473,-62.0771,10.5455,-115.5335,-0.06030273,-0.9821777,0.3798828,0.2808397,0.04909158,0.3967404,-68.64529,2.526993,-68.55939,-68.61375,3.277351,-68.89096,LR
-0.08740234,-0.432373,-0.215332,-0.197794,0.0,0.9460459,-63.32394,9.468771,-114.5629,-61.74262,10.25654,-116.0193,-0.05810547,-0.9782715,0.3781738,0.4945802,0.06435877,0.5799466,-68.63789,2.540819,-68.55766,-68.63904,3.17098,-68.89873,LR
-0.09204102,-0.4306641,-0.2055664,-0.4268017,-1.237878,0.7475727,-63.31156,9.479534,-114.5611,-62.39107,10.91678,-115.0224,-0.06079102,-0.9816895,0.3781738,0.6319848,-0.01197708,0.9158244,-68.62955,2.55597,-68.55241,-68.68561,3.307185,-68.9687,LR
-0.08862305,-0.4328613,-0.2099609,-0.8695498,-1.650092,0.4727633,-63.30278,9.474437,-114.5712,-62.23352,10.4375,-115.4169,-0.0546875,-0.9812012,0.3857422,0.5709161,0.003290057,0.0,-68.61545,2.564286,-68.55273,-68.34376,2.969317,-68.56882,LR
-0.09350586,-0.4248047,-0.2077637,0.0,-1.421084,0.3964274,-63.2726,9.475224,-114.5811,-61.79399,11.18498,-115.5313,-0.05981445,-0.9753418,0.3806152,0.1739695,0.1406947,0.0,-68.60794,2.581705,-68.55605,-68.44463,3.269791,-68.71878,LR
-0.08618164,-0.4284668,-0.2021484,-0.900084,-0.9325343,-0.0310533,-63.27733,9.47821,-114.5864,-62.84755,10.30995,-114.822,-0.05786133,-0.9760742,0.3896484,0.05183208,0.3086336,0.9768932,-68.59547,2.597633,-68.53603,-68.02213,3.151235,-68.27271,LR
-0.09082031,-0.4265137,-0.2094727,0.0,-0.9325343,0.182687,-63.24858,9.491346,-114.6051,-61.83977,10.82042,-115.6577,-0.04956055,-0.9711914,0.385498,-0.009236574,0.262832,0.8089542,-68.58746,2.603854,-68.52094,-68.18871,2.715548,-68.37576,LR
-0.09057617,-0.418457,-0.2009277,-0.7779465,-0.7340611,0.3811603,-63.23953,9.51155,-114.6102,-62.2244,11.04109,-115.1405,-0.06176758,-0.9660645,0.3740234,0.00603056,0.5834427,0.7784199,-68.58711,2.628598,-68.51657,-68.57466,3.412198,-68.8748,LR
-0.09106445,-0.4221191,-0.1984863,-0.4726033,-0.2149771,0.1979542,-63.2346,9.539093,-114.6088,-62.64563,11.04669,-114.6854,-0.06005859,-0.9726563,0.3757324,0.1129008,0.5834427,0.534145,-68.5864,2.650533,-68.51669,-68.63461,3.296526,-68.91531,LR
-0.08789063,-0.4267578,-0.2099609,-0.2130611,-0.4287176,0.4269619,-63.21157,9.551407,-114.6249,-61.92643,10.46987,-115.7284,-0.05981445,-0.9697266,0.378418,-0.03977096,0.5834427,0.3967404,-68.5841,2.671873,-68.51492,-68.44219,3.288691,-68.71951,LR
-0.09130859,-0.4265137,-0.2080078,-0.02985501,-0.6119237,0.1979542,-63.18697,9.569216,-114.6395,-61.95971,10.89162,-115.4959,-0.06005859,-0.9753418,0.3762207,0.0976336,0.3697023,0.2898702,-68.58425,2.689632,-68.51922,-68.66357,3.28809,-68.94315,LR
-0.08276367,-0.4328613,-0.2072754,-0.06038928,-0.6729923,0.259023,-63.17859,9.563627,-114.6466,-62.72387,9.784409,-115.189,-0.05908203,-0.9777832,0.3730469,0.02129769,0.1864962,0.2746031,-68.58984,2.703205,-68.52783,-68.87953,3.231215,-69.15174,LR
-0.0949707,-0.4262695,-0.2102051,-0.01458788,-0.7645955,0.3200917,-63.14687,9.586366,-114.6627,-61.58124,11.30002,-115.7027,-0.05957031,-0.9853516,0.3818359,0.03656495,0.1101603,0.3051374,-68.58917,2.715397,-68.52955,-68.58489,3.226426,-68.85322,LR
-0.0949707,-0.4343262,-0.2104492,-0.1367252,-0.6119237,0.1063511,-63.12605,9.60829,-114.6745,-62.00507,11.13237,-115.3309,-0.07763672,-0.9804688,0.3884277,-0.3298473,0.262832,0.2135344,-68.58227,2.749159,-68.5248,-68.00123,4.210335,-68.44949,LR
-0.08691406,-0.432373,-0.2087402,-0.1367252,-0.6119237,-0.1073892,-63.11325,9.612944,-114.6891,-62.39245,10.26081,-115.3287,-0.06030273,-0.9785156,0.3745117,-0.2077099,0.003290057,0.2593359,-68.58968,2.760102,-68.5326,-68.81046,3.294039,-69.09264,LR
-0.08984375,-0.4284668,-0.203125,-0.2741299,-0.4134504,-0.2447939,-63.107,9.629184,-114.6967,-62.59881,10.72883,-114.8905,-0.06274414,-0.9829102,0.3828125,-0.1924427,0.2322977,0.3356718,-68.58996,2.776397,-68.53221,-68.46258,3.40411,-68.76003,LR
-0.08959961,-0.4248047,-0.197998,0.0,-0.5050534,0.04528236,-63.10298,9.645633,-114.6924,-62.90597,10.82286,-114.5157,-0.06176758,-0.9790039,0.3845215,-0.1619084,0.2780993,0.5188779,-68.58668,2.792173,-68.52585,-68.30717,3.360835,-68.59538,LR
-0.09106445,-0.4289551,-0.2006836,-0.4115343,-0.6119237,-0.01578617,-63.10313,9.661416,-114.6906,-62.80788,10.88456,-114.5909,-0.05151367,-0.9829102,0.3710938,-0.02450383,0.2475649,0.3662061,-68.598,2.79611,-68.53679,-69.13484,2.807035,-69.34212,LR
-0.08691406,-0.4296875,-0.2050781,-0.1519923,-0.5661222,0.2895572,-63.09543,9.666217,-114.6937,-62.5993,10.34528,-115.0701,-0.05737305,-0.9807129,0.3845215,-0.1008396,0.1101603,0.0,-68.59512,2.804265,-68.53853,-68.37543,3.117509,-68.62391,LR
-0.0871582,-0.4277344,-0.2121582,0.06174803,-0.6119237,0.5185649,-63.06865,9.671401,-114.7111,-61.7985,10.34519,-115.9205,-0.06201172,-0.9733887,0.3806152,0.4640458,0.1864962,0.2593359,-68.5846,2.818649,-68.53786,-68.38769,3.395517,-68.68279,LR
-0.08813477,-0.4287109,-0.2062988,-0.1672597,-0.7187939,0.091084,-63.05729,9.677306,-114.7203,-62.37775,10.49499,-115.2368,-0.06323242,-0.9790039,0.3820801,0.2655725,0.09489316,0.4883435,-68.57735,2.832536,-68.53434,-68.41711,3.443256,-68.72093,LR
-0.08911133,-0.4257813,-0.2155762,-0.381,0.0,0.3200917,-63.02779,9.69529,-114.7481,-61.28349,10.57649,-116.3616,-0.05981445,-0.9782715,0.3842773,0.5556489,-0.08831299,0.6868168,-68.56349,2.839643,-68.5247,-68.32007,3.257178,-68.59083,LR
-0.07983398,-0.4287109,-0.2084961,-0.289397,0.0,0.2437558,-63.02131,9.69152,-114.7606,-62.49105,9.506794,-115.5531,-0.05615234,-0.9794922,0.3862305,0.0,0.2017633,0.0,-68.55772,2.846872,-68.52445,-68.27457,3.052783,-68.51189,LR
-0.09204102,-0.4274902,-0.2001953,-0.1519923,-0.5966565,0.182687,-63.01776,9.709584,-114.7547,-62.7322,11.03331,-114.5989,-0.06201172,-0.9799805,0.3747559,0.5709161,-0.07304579,0.6410153,-68.55444,2.856511,-68.52676,-68.81309,3.38249,-69.11073,LR
-0.08959961,-0.4265137,-0.208252,0.0006792545,-0.5661222,0.1368854,-62.99755,9.721429,-114.7685,-62.00758,10.69015,-115.5401,-0.06518555,-0.9775391,0.3835449,0.128168,0.2933664,0.2746031,-68.54756,2.874449,-68.52486,-68.29824,3.552143,-68.62025,LR
-0.08837891,-0.4257813,-0.2094727,-0.09092379,-0.5355878,0.1979542,-62.97701,9.72961,-114.7845,-61.89921,10.55042,-115.7203,-0.05981445,-0.9768066,0.3845215,0.1892367,0.5681756,0.3814733,-68.53921,2.891091,-68.51936,-68.27836,3.261122,-68.54936,LR
-0.09277344,-0.4272461,-0.2094727,0.1686182,-0.5661222,0.1216183,-62.95097,9.747348,-114.799,-61.79893,11.03256,-115.6,-0.06396484,-0.9799805,0.3737793,-0.05503809,0.2933664,0.4120076,-68.54614,2.90738,-68.52618,-68.84557,3.489922,-69.16292,LR
-0.08666992,-0.4306641,-0.2062988,0.03121376,-0.6729923,-0.0005190372,-62.94238,9.74825,-114.8061,-62.54443,10.28708,-115.1552,-0.05981445,-0.9853516,0.3845215,-0.1924427,0.2933664,0.4578092,-68.54704,2.918278,-68.52328,-68.44939,3.236646,-68.71805,LR
-0.09667969,-0.4260254,-0.206543,0.0006792545,-0.7187939,-0.01578617,-62.92032,9.773542,-114.8163,-61.83997,11.5412,-115.3044,-0.06323242,-0.9821777,0.3747559,-0.1008396,0.430771,0.2288015,-68.5545,2.935088,-68.53255,-68.84608,3.442197,-69.15477,LR
-0.08984375,-0.4282227,-0.2072754,-0.1519923,-0.6577252,-0.2142596,-62.90787,9.782287,-114.8301,-62.18607,10.69418,-115.348,-0.0625,-0.9858398,0.3894043,-0.1466411,0.003290057,0.2593359,-68.54948,2.943925,-68.52779,-68.19598,3.374508,-68.48534,LR
-0.09155273,-0.4257813,-0.2163086,-0.2588627,-0.4592519,-0.168458,-62.8761,9.796482,-114.8644,-61.11631,10.85211,-116.4125,-0.06347656,-0.9782715,0.3764648,-0.3603816,0.04909158,0.3509389,-68.55778,2.955125,-68.53157,-68.68136,3.46544,-68.99226,LR
-0.09277344,-0.4282227,-0.2185059,-0.06038928,-0.8409313,-0.4585342,-62.83943,9.806641,-114.9039,-60.99821,10.9225,-116.5051,-0.05932617,-0.9807129,0.3771973,-0.1771755,0.04909158,0.4730763,-68.56376,2.961375,-68.53394,-68.72687,3.231534,-68.99752,LR
-0.09375,-0.4277344,-0.213623,-0.3962674,-0.5813893,-0.09212208,-62.8163,9.823842,-114.9273,-61.39164,11.09401,-116.0054,-0.06591797,-0.9755859,0.3742676,0.03656495,-0.2409847,0.3051374,-68.56629,2.970799,-68.53988,-68.71718,3.609699,-69.05511,LR
-0.09033203,-0.4284668,-0.2165527,-0.2283282,-0.6271908,0.1674199,-62.78921,9.831269,-114.9526,-61.2939,10.65615,-116.3143,-0.0625,-0.9755859,0.3774414,0.2503054,0.1101603,0.6257481,-68.56303,2.981388,-68.53766,-68.58711,3.419262,-68.88866,LR
-0.08837891,-0.4311523,-0.2138672,-0.2435954,-0.810397,0.350626,-62.77254,9.83084,-114.9667,-61.77658,10.40545,-115.9166,-0.06176758,-0.9770508,0.3789063,0.2808397,0.2017633,0.534145,-68.55862,2.992189,-68.5359,-68.54889,3.373189,-68.8419,LR
-0.09057617,-0.4255371,-0.2055664,-0.3504658,0.0,0.2742901,-62.76566,9.851218,-114.9692,-62.17089,10.84973,-115.2903,-0.05761719,-0.9833984,0.3847656,0.2808397,-0.05777865,0.5799466,-68.55163,2.993958,-68.52995,-68.41507,3.123087,-68.66481,LR
-0.09521484,-0.4287109,-0.2104492,-0.3504658,-0.9478015,0.4880307,-62.74918,9.865765,-114.9747,-61.68452,11.2752,-115.6043,-0.06347656,-0.9726563,0.3903809,0.2503054,-0.1035802,0.4730763,-68.53436,3.001874,-68.51588,-67.87203,3.465886,-68.17373,LR
-0.09008789,-0.4299316,-0.2119141,-0.1061909,-0.7035267,0.5643663,-62.7323,9.870996,-114.982,-61.82684,10.6445,-115.7538,-0.06762695,-0.9743652,0.3881836,0.06709921,0.3239008,0.3967404,-68.52232,3.020381,-68.50623,-67.98174,3.689188,-68.32513,LR
-0.09008789,-0.4296875,-0.1911621,-0.07565641,-0.4134504,0.1216183,-62.75499,9.884379,-114.9511,-63.8114,10.84407,-113.5292,-0.0637207,-0.9770508,0.3842773,-0.131374,0.262832,0.3356718,-68.51908,3.0333,-68.5026,-68.26411,3.473133,-68.5715,LR
-0.09082031,-0.4309082,-0.2072754,-0.09092379,-0.1539084,0.0147481,-62.74709,9.899515,-114.956,-62.29296,10.7543,-115.2054,-0.0625,-0.9836426,0.3796387,0.08236647,0.3239008,0.03032825,-68.52023,3.045243,-68.5108,-68.63718,3.392385,-68.93456,LR
-0.09326172,-0.4296875,-0.2121582,-0.01458788,-0.4592519,0.06054974,-62.72556,9.915034,-114.9711,-61.65982,11.01298,-115.758,-0.05859375,-0.979248,0.3771973,-0.07030535,0.171229,0.1219313,-68.52493,3.050773,-68.51815,-68.70364,3.195871,-68.96809,LR
-0.09155273,-0.4321289,-0.2006836,0.1991527,-0.550855,-0.1226563,-62.72708,9.925637,-114.9623,-62.95792,10.87704,-114.4333,-0.05615234,-0.9780273,0.3876953,-0.02450383,0.003290057,0.0,-68.51825,3.050912,-68.51596,-68.17184,3.055169,-68.40863,LR
-0.0949707,-0.432373,-0.2053223,-0.02985501,-0.4592519,-0.07685494,-62.72059,9.944825,-114.9618,-62.38091,11.22256,-114.8826,-0.05761719,-0.9836426,0.3789063,-0.02450383,0.1101603,0.3662061,-68.52249,3.054087,-68.51958,-68.71236,3.128684,-68.96584,LR
-0.08764648,-0.4289551,-0.2128906,-0.1519923,-0.4897862,-0.1379237,-62.70395,9.946163,-114.9833,-61.77687,10.37173,-115.9315,-0.05932617,-0.9824219,0.3796387,-0.1161069,0.2322977,0.2898702,-68.52651,3.060899,-68.52306,-68.63847,3.223963,-68.90694,LR
-0.09008789,-0.4299316,-0.2102051,-0.2130611,-0.4134504,0.1368854,-62.6928,9.954379,-114.993,-61.98986,10.66087,-115.5727,-0.0625,-0.9760742,0.3847656,0.06709921,0.339168,0.0,-68.5196,3.07285,-68.52312,-68.23002,3.40912,-68.52574,LR
-0.09130859,-0.4277344,-0.2075195,-0.2283282,-0.6729923,0.3964274,-62.68379,9.962835,-114.995,-62.07432,10.87185,-115.3829,-0.0625,-0.9816895,0.3881836,0.2655725,0.2170305,0.4730763,-68.50877,3.082348,-68.515,-68.17308,3.388249,-68.46457,LR
-0.08935547,-0.423584,-0.2106934,-0.5489388,-0.7035267,0.4574962,-62.67055,9.967153,-115.0074,-61.61809,10.69579,-115.952,-0.05932617,-0.972168,0.3908691,0.4487787,0.1559618,0.534145,-68.4894,3.087806,-68.49952,-67.87019,3.240606,-68.13378,LR
-0.09448242,-0.4289551,-0.1999512,-0.7779465,-0.4134504,0.3200917,-62.68311,9.987532,-114.9921,-62.72638,11.29,-114.4761,-0.06469727,-0.9753418,0.3942871,0.2503054,-0.02724427,0.6562824,-68.47039,3.096032,-68.48054,-67.72298,3.519139,-68.03239,LR
-0.09057617,-0.4294434,-0.217041,-0.8237481,-0.2302443,-0.01578617,-62.66741,9.997609,-115.0188,-61.2929,10.66061,-116.3134,-0.06787109,-0.9790039,0.3867188,-0.1619084,-0.1341145,0.3814733,-68.46629,3.105925,-68.47517,-68.14674,3.68924,-68.49226,LR
-0.09814453,-0.4101563,-0.2067871,-0.5489388,-0.2302443,0.3811603,-62.63884,10.03549,-115.0352,-60.83544,12.06082,-116.1199,-0.0637207,-0.9709473,0.3840332,0.2655725,0.2475649,0.2440687,-68.45612,3.117291,-68.47131,-68.15257,3.49227,-68.46207,LR
-0.09277344,-0.4257813,-0.2084961,-0.1672597,-0.1997099,0.2132213,-62.62473,10.05329,-115.0427,-61.81012,11.07217,-115.5689,-0.06958008,-0.9709473,0.3852539,-0.1161069,0.06435877,0.03032825,-68.44951,3.132108,-68.4696,-68.04066,3.810855,-68.408,LR
-0.09130859,-0.4257813,-0.2053223,0.2754886,0.4720459,-0.07685494,-62.61172,10.07782,-115.0479,-62.17676,10.93279,-115.2441,-0.07128906,-0.9775391,0.3884277,-0.6199236,0.1559618,-0.03074045,-68.44968,3.149302,-68.46828,-68.00182,3.877165,-68.38156,LR
-0.09326172,-0.4233398,-0.2148438,-0.2588627,-0.001236677,-0.01578617,-62.58422,10.09853,-115.0744,-61.04644,11.1142,-116.3636,-0.06762695,-0.9763184,0.3830566,-0.4061831,-0.347855,0.01506107,-68.45219,3.154991,-68.47118,-68.27689,3.689429,-68.62411,LR
-0.09204102,-0.4257813,-0.2111816,-0.1672597,-0.1997099,-0.4890685,-62.56685,10.11263,-115.0979,-61.58453,10.96012,-115.8636,-0.06176758,-0.9758301,0.3864746,-0.222977,-0.3325878,0.3051374,-68.44955,3.154035,-68.46564,-68.1456,3.367978,-68.43329,LR
-0.0871582,-0.4296875,-0.2119141,-0.1519923,0.3804427,-0.870748,-62.55621,10.1218,-115.1238,-61.93051,10.31049,-115.7963,-0.06567383,-0.979248,0.3830566,-0.7267939,-0.4089237,0.2440687,-68.4576,3.156822,-68.46657,-68.35278,3.573885,-68.67942,LR
-0.08959961,-0.423584,-0.215332,-0.1214581,0.1514351,-0.5806718,-62.53012,10.13516,-115.1587,-61.16239,10.67839,-116.4436,-0.06542969,-0.9765625,0.3774414,-0.6046565,-0.2104504,-0.04600763,-68.46897,3.162113,-68.47614,-68.5817,3.576027,-68.91159,LR
-0.08935547,-0.4274902,-0.2006836,-0.381,0.09036642,-0.5043359,-62.54117,10.14807,-115.1566,-62.80237,10.71436,-114.6795,-0.06054688,-0.9804688,0.3825684,-0.08557248,-0.8364046,0.1524656,-68.46973,3.152426,-68.47881,-68.44371,3.292526,-68.7217,LR
-0.08764648,-0.4282227,-0.2075195,-0.6252747,-0.5813893,-0.3058627,-62.55011,10.14016,-115.1686,-62.25309,10.43617,-115.3967,-0.06713867,-0.987793,0.3745117,-0.02450383,-1.218084,0.3662061,-68.47958,3.133457,-68.48621,-68.9341,3.636476,-69.28001,LR
-0.09204102,-0.4296875,-0.2145996,-0.6863437,-0.9478015,0.1979542,-62.53878,10.14039,-115.1829,-61.47903,10.84829,-116.0287,-0.05688477,-0.9816895,0.3823242,0.7235878,-1.569229,0.5646794,-68.46952,3.109535,-68.48327,-68.50832,3.090708,-68.75376,LR
-0.09155273,-0.4306641,-0.2126465,-1.129092,0.0,-0.2142596,-62.53937,10.15342,-115.1979,-61.73828,10.79197,-115.7792,-0.0625,-0.9799805,0.3828125,0.7083206,-1.538695,0.8852901,-68.45783,3.092719,-68.47462,-68.4061,3.399672,-68.70213,LR
-0.09570313,-0.4262695,-0.2124023,-1.281764,-0.9172672,-0.1989923,-62.53427,10.16411,-115.2155,-61.34224,11.36218,-115.9281,-0.06396484,-0.9765625,0.3845215,0.4945802,-1.340221,0.0,-68.44621,3.080916,-68.47613,-68.24005,3.487617,-68.54973,LR
-0.09399414,-0.4282227,-0.2060547,-1.113824,-0.3676488,-0.2142596,-62.54248,10.17919,-115.2178,-62.1263,11.18819,-115.1734,-0.06884766,-0.979248,0.3833008,0.4029771,-1.004344,0.8242214,-68.43762,3.07945,-68.46793,-68.31289,3.745804,-68.67136,LR
-0.09106445,-0.427002,-0.2182617,-0.8542824,-0.7187939,-0.2142596,-62.52459,10.18008,-115.2478,-61.01991,10.75218,-116.5608,-0.06982422,-0.972168,0.3896484,0.4335115,-0.8974732,0.6104809,-68.41939,3.08095,-68.4538,-67.84443,3.814133,-68.20976,LR
-0.09228516,-0.4226074,-0.2036133,-0.7016106,-0.3218473,0.0,-62.52685,10.19434,-115.2469,-62.12207,11.12955,-115.2068,-0.0637207,-0.9724121,0.3752441,0.1129008,-0.9127405,0.5799466,-68.42181,3.075882,-68.45499,-68.62391,3.4984,-68.94009,LR
-0.09228516,-0.420166,-0.2141113,-0.4573359,-0.2149771,-0.5806718,-62.50251,10.20875,-115.2798,-60.97383,11.07259,-116.4606,-0.06518555,-0.9741211,0.373291,0.1587023,-0.7906031,0.3051374,-68.42592,3.074254,-68.46292,-68.74363,3.575557,-69.0755,LR
-0.08886719,-0.4260254,-0.2060547,-0.1825268,-0.123374,-0.3974657,-62.4996,10.21547,-115.2867,-62.22278,10.63541,-115.3364,-0.06982422,-0.9731445,0.3857422,0.3419085,-0.6684657,0.09139694,-68.41355,3.079264,-68.46087,-68.059,3.816092,-68.4276,LR
-0.09838867,-0.4274902,-0.2133789,-0.06038928,0.02929771,-0.7486105,-62.47459,10.24431,-115.3108,-61.20461,11.63607,-115.9395,-0.05981445,-0.9719238,0.3945313,0.05183208,-0.5615954,-0.06127481,-68.39809,3.074697,-68.45143,-67.67857,3.26366,-67.9441,LR
-0.09472656,-0.4245605,-0.2084961,0.0922823,0.4262443,-0.7333436,-62.4569,10.27218,-115.3275,-61.65778,11.32484,-115.6085,-0.06787109,-0.9812012,0.3745117,-0.3298473,-0.08831299,-0.2750153,-68.41095,3.085855,-68.46954,-68.79852,3.697544,-69.15431,LR
-0.107666,-0.4250488,-0.2172852,0.489229,0.6857863,-0.5043359,-62.40646,10.33102,-115.3556,-60.29456,12.7099,-116.3607,-0.06689453,-0.9775391,0.3811035,-0.3451145,-0.02724427,-0.5650916,-68.41591,3.0967,-68.48338,-68.40533,3.648103,-68.74642,LR
-0.09179688,-0.4250488,-0.2138672,0.6877022,0.5941832,-0.4890685,-62.37416,10.35152,-115.3795,-61.29708,10.91953,-116.1889,-0.06103516,-0.9787598,0.3830566,-0.1771755,-0.08831299,-0.8093664,-68.41782,3.099937,-68.49888,-68.38126,3.323475,-68.66385,LR
-0.09619141,-0.4301758,-0.213623,0.6877022,0.8537251,-0.3821983,-62.34443,10.38438,-115.395,-61.42654,11.32505,-115.8561,-0.06176758,-0.9799805,0.3793945,-0.1924427,0.003290057,-1.053641,-68.42413,3.105267,-68.52291,-68.58279,3.363875,-68.87455,LR
-0.08691406,-0.4328613,-0.2062988,0.672435,0.0,-0.1837251,-62.34073,10.38217,-115.3907,-62.65366,10.2737,-115.0451,-0.0612793,-0.9821777,0.3808594,0.06709921,0.3697023,-1.206313,-68.4258,3.11518,-68.54704,-68.55721,3.329195,-68.84267,LR
-0.08984375,-0.4321289,-0.2126465,0.4434273,0.746855,0.1521528,-62.32516,10.39684,-115.3951,-61.88846,10.56687,-115.7242,-0.0480957,-0.9748535,0.3828125,0.02129769,0.6750459,-0.9620381,-68.42513,3.115386,-68.56193,-68.40761,2.62932,-68.58438,LR
-0.09204102,-0.4284668,-0.2089844,0.6571679,0.6552519,0.1368854,-62.30789,10.41709,-115.3951,-61.94424,10.92781,-115.4951,-0.06567383,-0.9794922,0.3828125,0.2655725,0.7208474,-0.8704351,-68.42011,3.135144,-68.57742,-68.36983,3.573416,-68.6966,LR
-0.09008789,-0.4321289,-0.2116699,0.5655649,0.9300611,-0.0310533,-62.29284,10.43451,-115.4,-61.97143,10.60419,-115.6187,-0.06323242,-0.9829102,0.3791504,-0.2687786,0.3086336,0.0,-68.42847,3.145675,-68.58479,-68.641,3.434837,-68.94594,LR
-0.08520508,-0.427002,-0.2102051,0.840374,0.0,0.182687,-62.2751,10.42881,-115.4047,-62.0234,10.14989,-115.7696,-0.06860352,-0.9787598,0.3776855,0.1587023,0.5529084,0.0,-68.42928,3.165717,-68.59202,-68.58508,3.74139,-68.94642,LR
-0.09472656,-0.4318848,-0.2126465,0.672435,0.9911298,0.07581687,-62.25321,10.45745,-115.4092,-61.6748,11.13211,-115.6846,-0.06567383,-0.9794922,0.3793945,0.1739695,0.4765725,-0.946771,-68.42894,3.18096,-68.61149,-68.54029,3.577621,-68.86996,LR
-0.08764648,-0.4299316,-0.2138672,0.3060229,0.3804427,0.2284887,-62.2384,10.46077,-115.4174,-61.73766,10.34407,-115.9855,-0.0625,-0.9812012,0.3798828,0.03656495,0.4002366,-0.7330306,-68.43135,3.191213,-68.62752,-68.57664,3.399427,-68.87457,LR
-0.08813477,-0.4301758,-0.2119141,0.229687,0.227771,0.1979542,-62.22863,10.46319,-115.4214,-61.9188,10.41418,-115.7618,-0.06176758,-0.9775391,0.3847656,0.2961069,0.4613054,-0.6108932,-68.42368,3.201468,-68.63503,-68.2655,3.364901,-68.55396,LR
-0.08813477,-0.4284668,-0.2089844,0.3365571,0.4109771,-0.06158781,-62.22155,10.46906,-115.4245,-62.10551,10.47451,-115.536,-0.06591797,-0.9794922,0.3823242,0.1739695,0.4155039,-0.6414275,-68.42067,3.214885,-68.64556,-68.39207,3.58727,-68.72166,LR
-0.09277344,-0.4282227,-0.2075195,0.3365571,0.3499084,-0.2142596,-62.21296,10.48546,-115.426,-62.03932,11.03206,-115.3431,-0.07592773,-0.9787598,0.3745117,0.06709921,0.2322977,-0.5650916,-68.42473,3.236881,-68.66333,-68.67315,4.143986,-69.1185,LR
-0.08666992,-0.4299316,-0.1962891,0.3060229,0.4415114,-0.2905953,-62.23344,10.4905,-115.4043,-63.47697,10.39153,-114.1112,-0.04736328,-0.9807129,0.3796387,-0.07030535,0.2322977,-0.5345572,-68.43111,3.227361,-68.67566,-68.68896,2.578746,-68.86079,LR
-0.08398438,-0.4255371,-0.2119141,0.1991527,0.1819695,0.0,-62.22231,10.48375,-115.417,-61.82317,10.01887,-116.0386,-0.07666016,-0.9772949,0.3811035,-0.1008396,-0.2257175,-0.4734885,-68.43015,3.243092,-68.68422,-68.30888,4.179809,-68.75574,LR
-0.08691406,-0.4296875,-0.2121582,0.2449541,0.227771,-0.5196033,-62.21283,10.48279,-115.4323,-61.91669,10.27995,-115.8246,-0.05883789,-0.9785156,0.3764648,-0.009236574,0.01855725,-0.5345572,-68.43615,3.242726,-68.6977,-68.72401,3.212051,-68.99137,LR
-0.08544922,-0.4311523,-0.2143555,0.0922823,0.04456491,-0.3211298,-62.204,10.4751,-115.4486,-61.84363,10.06324,-115.9977,-0.04711914,-0.986084,0.3811035,-0.009236574,-0.2409847,-0.2597481,-68.44203,3.225133,-68.70564,-68.72283,2.55205,-68.89135,LR
-0.0949707,-0.4318848,-0.2072754,0.0922823,0.1209008,0.07581687,-62.20196,10.49165,-115.4408,-62.16993,11.21341,-115.114,-0.0559082,-0.9865723,0.3840332,0.2808397,-0.2715191,-0.1070763,-68.43961,3.217098,-68.70834,-68.52714,3.022941,-68.76205,LR
-0.08349609,-0.435791,-0.2089844,0.0006792545,-0.01650381,0.4574962,-62.21167,10.4776,-115.4296,-62.68772,9.801613,-115.2197,-0.05712891,-0.984375,0.3742676,0.3266413,-0.1493817,-0.03074045,-68.44527,3.212662,-68.71892,-68.96265,3.105085,-69.21476,LR
-0.08544922,-0.4326172,-0.2080078,-0.07565641,-0.09283972,0.4727633,-62.21923,10.46856,-115.4192,-62.53452,10.09347,-115.2532,-0.05883789,-0.984375,0.373291,0.5861833,-0.01197708,0.03032825,-68.44772,3.212209,-68.72942,-68.99831,3.198833,-69.2663,LR
-0.08618164,-0.4291992,-0.2087402,-0.1214581,-0.07757253,0.6559694,-62.22171,10.46268,-115.4104,-62.24805,10.23577,-115.4932,-0.0637207,-0.9833984,0.3896484,0.5556489,0.1254275,-0.03074045,-68.43256,3.218878,-68.72383,-68.12505,3.447334,-68.42629,LR
-0.08911133,-0.4279785,-0.1987305,0.1075497,0.1056336,0.6712368,-62.23627,10.46887,-115.3812,-63.02881,10.69425,-114.4464,-0.06079102,-0.9819336,0.3876953,0.5709161,0.1864962,-0.1834122,-68.41984,3.223155,-68.72189,-68.21574,3.29566,-68.49189,LR
-0.08569336,-0.4274902,-0.2094727,-0.1214581,0.1667023,0.6254351,-62.23538,10.46603,-115.3776,-62.10223,10.20441,-115.6618,-0.05908203,-0.9821777,0.3806152,0.6930535,0.2170305,-0.1528779,-68.41299,3.226089,-68.72675,-68.58674,3.210344,-68.8524,LR
-0.08984375,-0.4335938,-0.2094727,-0.2130611,0.04456491,0.7628398,-62.23921,10.46873,-115.3652,-62.27047,10.56846,-115.3169,-0.05981445,-0.972168,0.3774414,0.8457253,0.2933664,0.1066641,-68.40311,3.231533,-68.72701,-68.5406,3.282646,-68.81794,LR
-0.09301758,-0.4311523,-0.2084961,-0.3504658,0.1819695,0.5796337,-62.24119,10.48168,-115.3559,-62.09782,10.99138,-115.3002,-0.0559082,-0.9770508,0.3891602,0.7235878,0.003290057,0.3051374,-68.38673,3.227807,-68.71458,-68.08063,3.042969,-68.31474,LR
-0.09179688,-0.4311523,-0.2119141,-0.640542,0.2583054,0.4880307,-62.2429,10.49245,-115.3547,-61.82475,10.81755,-115.675,-0.06274414,-0.9741211,0.3759766,0.479313,-0.07304579,0.2288015,-68.38407,3.230881,-68.7154,-68.62946,3.438799,-68.93497,LR
-0.09521484,-0.4282227,-0.2111816,-0.5031376,0.07509923,0.701771,-62.23721,10.50926,-115.3514,-61.58812,11.27785,-115.7063,-0.06713867,-0.9724121,0.3825684,0.647252,-0.1951832,0.3204046,-68.37141,3.236918,-68.70779,-68.22652,3.676196,-68.5706,LR
-0.08935547,-0.4294434,-0.2060547,-0.4878702,-0.3065802,0.7475727,-62.24745,10.50707,-115.3366,-62.39083,10.62495,-115.1621,-0.06811523,-0.9729004,0.3833008,0.0,-0.1493817,0.5494123,-68.36781,3.244523,-68.69645,-68.19118,3.726948,-68.54441,LR
-0.08691406,-0.4240723,-0.1965332,-0.8695498,0.02929771,0.7170382,-62.27782,10.50804,-115.3077,-63.1269,10.53397,-114.4183,-0.07373047,-0.9753418,0.3833008,0.2655725,-0.5005267,0.7478855,-68.36033,3.252765,-68.68356,-68.18892,4.024498,-68.60112,LR
-0.0871582,-0.4291992,-0.208252,0.0,0.1667023,-0.1837251,-62.27738,10.5074,-115.3129,-62.256,10.35379,-115.4313,-0.06054688,-0.9746094,0.3825684,-0.1161069,-0.4699924,0.5799466,-68.36135,3.246994,-68.67348,-68.3261,3.309648,-68.60576,LR
-0.08691406,-0.4226074,-0.2067871,-0.7321453,0.2735725,-0.0310533,-62.28271,10.51034,-115.3192,-62.0417,10.46638,-115.6075,-0.06420898,-0.9707031,0.380127,-0.1161069,-0.439458,0.4730763,-68.36251,3.246515,-68.66666,-68.33965,3.524545,-68.65714,LR
-0.08935547,-0.4326172,-0.2126465,-0.8237481,-0.001236677,-0.1226563,-62.28867,10.51014,-115.3288,-61.93489,10.50138,-115.705,-0.06396484,-0.9807129,0.3823242,-0.1466411,-0.8516718,0.4883435,-68.36623,3.237781,-68.66053,-68.43301,3.477493,-68.74313,LR
-0.08789063,-0.4204102,-0.2124023,-1.052756,-0.1997099,-0.3363969,-62.285,10.50839,-115.3535,-61.3314,10.56964,-116.314,-0.07202148,-0.9714355,0.3818359,-0.1161069,-1.126481,0.8547558,-68.36459,3.235409,-68.64666,-68.19886,3.947173,-68.59542,LR
-0.08618164,-0.4277344,-0.2102051,-1.174893,-0.3523817,-0.06158781,-62.29708,10.49804,-115.3618,-62.02553,10.24991,-115.7228,-0.06518555,-0.9848633,0.3840332,0.2503054,-1.477626,1.037962,-68.36202,3.219554,-68.63326,-68.42056,3.528684,-68.73978,LR
-0.08618164,-0.4318848,-0.2084961,-1.587107,-0.9325343,-0.2905953,-62.32284,10.47812,-115.3655,-62.41858,10.18749,-115.334,-0.06518555,-0.9772949,0.3876953,0.4029771,-1.416557,1.175366,-68.35059,3.205295,-68.61142,-68.08652,3.547775,-68.4052,LR
-0.09326172,-0.4282227,-0.2077637,-1.419168,0.0,-0.0005190372,-62.33715,10.49029,-115.3655,-61.99525,11.08627,-115.3639,-0.0637207,-0.979248,0.3837891,0.4640458,-1.233351,1.175366,-68.34341,3.192398,-68.59471,-68.3327,3.466983,-68.63977,LR
-0.08886719,-0.420166,-0.2036133,-1.373366,0.0,0.2132213,-62.35324,10.49601,-115.3623,-62.13249,10.77641,-115.3663,-0.0637207,-0.9807129,0.3884277,0.8304581,-1.29442,1.205901,-68.32697,3.178661,-68.57378,-68.13141,3.456939,-68.43441,LR
-0.08813477,-0.4296875,-0.2111816,-1.266496,-0.7951298,0.3048244,-62.36404,10.48301,-115.3648,-61.96196,10.43038,-115.7087,-0.06445313,-0.9748535,0.3857422,0.8151909,-0.9127405,0.9463588,-68.31125,3.17203,-68.55748,-68.14043,3.51799,-68.45438,LR
-0.08642578,-0.4267578,-0.2062988,-0.9611526,0.0,0.5643663,-62.37769,10.48001,-115.3562,-62.34023,10.33327,-115.3512,-0.06396484,-0.9772949,0.3762207,0.8151909,-0.8058702,0.8700229,-68.30643,3.16665,-68.55326,-68.67006,3.495354,-68.98625,LR
-0.0871582,-0.4282227,-0.2121582,-0.7779465,0.0,0.0,-62.37885,10.47713,-115.367,-61.82571,10.33592,-115.8959,-0.06982422,-0.9819336,0.3898926,0.9831298,0.0,0.8700229,-68.28552,3.17894,-68.53641,-68.03168,3.781157,-68.39317,LR
-0.08691406,-0.4255371,-0.2150879,-0.7474122,-0.6729923,0.9460459,-62.36958,10.46497,-115.3736,-61.40267,10.33066,-116.3458,-0.07006836,-0.9802246,0.3852539,1.135802,-1.095947,0.7326183,-68.26871,3.176448,-68.5275,-68.22459,3.80617,-68.59353,LR
-0.09277344,-0.421875,-0.2116699,-1.144359,-1.314214,0.5490992,-62.36584,10.45746,-115.3796,-61.28552,11.11999,-116.1061,-0.04711914,-0.9675293,0.3808594,1.242672,-1.233351,0.9310915,-68.25115,3.145473,-68.51308,-68.36462,2.594637,-68.53648,LR
-0.09082031,-0.4257813,-0.2172852,-1.541306,-1.756962,0.7170382,-62.37432,10.42386,-115.3864,-61.05278,10.75758,-116.5235,-0.06884766,-0.979248,0.3774414,0.9525955,-0.8211374,0.0,-68.23675,3.139122,-68.52219,-68.60477,3.753355,-68.9687,LR
-0.09350586,-0.4240723,-0.2102051,-0.8084807,-0.550855,0.2284887,-62.36911,10.43079,-115.3919,-61.51965,11.17527,-115.8295,-0.06518555,-0.9758301,0.3830566,0.7541222,-0.8364046,0.7173512,-68.22668,3.135207,-68.51343,-68.28816,3.558123,-68.61113,LR
-0.09204102,-0.4255371,-0.2128906,-0.3046641,-0.7340611,0.3658931,-62.35437,10.43035,-115.3998,-61.40779,10.9479,-116.0577,-0.05761719,-0.9782715,0.3937988,0.7846565,-0.8822061,0.2898702,-68.20786,3.122081,-68.50105,-67.86196,3.127322,-68.10732,LR
-0.08911133,-0.427002,-0.2148438,-0.3657329,-0.5661222,0.5796337,-62.34111,10.42462,-115.4077,-61.42254,10.56006,-116.2218,-0.06347656,-0.9748535,0.3842773,0.8457253,0.0,-0.1986794,-68.1957,3.128972,-68.50449,-68.22173,3.466593,-68.52747,LR
-0.09204102,-0.4257813,-0.215332,0.1991527,-0.3218473,0.6559694,-62.31514,10.42976,-115.416,-61.18935,10.91845,-116.3039,-0.06640625,-0.9719238,0.3876953,0.9220611,0.0,-0.2902825,-68.17756,3.139017,-68.50465,-67.96662,3.631229,-68.29908,LR
-0.09643555,-0.4187012,-0.2058105,0.1380839,-0.2455115,0.4727633,-62.29706,10.45137,-115.4131,-61.50557,11.67854,-115.5946,-0.07226563,-0.9689941,0.3864746,0.647252,-0.8058702,-0.3818855,-68.16343,3.144433,-68.50601,-67.91496,3.962638,-68.31048,LR
-0.09204102,-0.4233398,-0.213623,-0.07565641,-0.3065802,-0.1073892,-62.27649,10.45753,-115.4314,-61.21302,10.98472,-116.2476,-0.06079102,-0.9697266,0.3903809,0.4487787,-0.8974732,-0.3513512,-68.15022,3.134915,-68.50327,-67.83305,3.3282,-68.11076,LR
-0.09472656,-0.4196777,-0.2121582,-0.1214581,0.01403052,0.04528236,-62.25334,10.47637,-115.447,-61.02989,11.38904,-116.2489,-0.06689453,-0.9729004,0.390625,0.2503054,-0.5463283,-0.1528779,-68.14027,3.137204,-68.49888,-67.83645,3.650915,-68.17094,LR
-0.09594727,-0.4238281,-0.2055664,0.1228168,0.3651755,0.091084,-62.24331,10.50247,-115.4431,-61.84192,11.51298,-115.3166,-0.05932617,-0.9685059,0.4016113,0.2961069,-0.1035802,-0.6719618,-68.11827,3.137708,-68.48909,-67.25798,3.238538,-67.51556,LR
-0.09301758,-0.4262695,-0.2053223,0.3060229,0.4109771,0.06054974,-62.23655,10.5209,-115.4374,-62.13029,11.12226,-115.2016,-0.06591797,-0.9733887,0.3876953,0.38771,0.2322977,-0.8246336,-68.11022,3.150367,-68.49799,-68.00077,3.599931,-68.3279,LR
-0.09741211,-0.4240723,-0.2053223,0.32129,0.7010534,0.2895572,-62.22336,10.55441,-115.4296,-61.81335,11.68122,-115.2616,-0.06787109,-0.9699707,0.3881836,0.3113741,0.3086336,-0.8399009,-68.10123,3.166235,-68.50511,-67.88945,3.716891,-68.23686,LR
-0.09130859,-0.4223633,-0.2072754,0.6266336,0.2735725,0.3048244,-62.20563,10.56701,-115.429,-61.7972,10.98311,-115.6256,-0.06640625,-0.9685059,0.3874512,0.4335115,0.4460382,-0.8093664,-68.09101,3.182318,-68.51175,-67.90857,3.642564,-68.2424,LR
-0.09448242,-0.4223633,-0.2128906,0.9777786,0.578916,0.2437558,-62.16965,10.59011,-115.4407,-61.12518,11.29663,-116.1921,-0.06982422,-0.9782715,0.3935547,0.7541222,0.5529084,0.0,-68.07362,3.202568,-68.50423,-67.77612,3.788456,-68.13563,LR
-0.09082031,-0.4279785,-0.2067871,0.9014427,0.5178473,0.1979542,-62.15746,10.60176,-115.4352,-62.17855,10.81729,-115.2976,-0.06762695,-0.9777832,0.3874512,0.479313,0.6445115,-0.9009695,-68.06733,3.22094,-68.51511,-68.08776,3.679022,-68.4306,LR
-0.09545898,-0.4248047,-0.2119141,0.9777786,0.578916,0.07581687,-62.12625,10.62563,-115.4444,-61.31575,11.3695,-115.9528,-0.06640625,-0.9736328,0.3942871,0.38771,0.5376411,0.0,-68.05376,3.23677,-68.50481,-67.67359,3.617287,-68.0,LR
-0.09594727,-0.4204102,-0.2041016,0.8861756,0.5178473,0.1063511,-62.10647,10.65277,-115.4405,-61.78867,11.60202,-115.3288,-0.06835938,-0.9716797,0.3896484,0.2350382,0.3086336,-0.855168,-68.04617,3.251291,-68.51124,-67.84731,3.735957,-68.19778,LR
-0.09399414,-0.4272461,-0.1943359,0.7793052,0.6399847,-0.4127328,-62.11676,10.6756,-115.4168,-63.19402,11.3241,-113.9524,-0.05981445,-0.9770508,0.3925781,-0.2687786,0.07962596,-1.023107,-68.04683,3.25246,-68.519,-67.8814,3.251219,-68.14683,LR
-0.09521484,-0.4294434,-0.2060547,0.9777786,0.487313,-0.5348701,-62.10286,10.69534,-115.4184,-62.14052,11.30426,-115.1004,-0.05932617,-0.9685059,0.3862305,-0.3298473,0.07962596,-1.160511,-68.0513,3.253711,-68.53159,-68.02754,3.256497,-68.29527,LR
-0.08764648,-0.427002,-0.2077637,1.145718,0.6857863,-0.7028093,-62.08721,10.70066,-115.43,-62.16204,10.45748,-115.4837,-0.06152344,-0.9807129,0.3852539,-0.2077099,0.5071069,-1.084176,-68.05946,3.262925,-68.54873,-68.30694,3.34169,-68.59185,LR
-0.09545898,-0.4272461,-0.208252,1.008313,0.3041069,-0.5196033,-62.06664,10.71824,-115.4378,-61.79993,11.35622,-115.4404,-0.05834961,-0.9699707,0.3896484,-0.390916,0.5223741,-0.8704351,-68.06189,3.269245,-68.55355,-67.89346,3.194963,-68.14987,LR
-0.09008789,-0.4274902,-0.2084961,1.267855,0.3804427,-0.687542,-62.04704,10.72398,-115.4494,-62.01819,10.72532,-115.5123,-0.05834961,-0.9821777,0.3806152,-0.4825191,0.7055801,-1.00784,-68.0796,3.277645,-68.57433,-68.59238,3.170627,-68.85155,LR
-0.08544922,-0.4284668,-0.2172852,1.283122,0.4567786,-0.687542,-62.01549,10.71792,-115.4794,-61.41283,10.08551,-116.4425,-0.06079102,-0.9833984,0.3830566,-0.5435878,0.07962596,-1.282649,-68.09551,3.279196,-68.59679,-68.47582,3.296688,-68.75485,LR
-0.09057617,-0.4282227,-0.2080078,0.9319771,-0.2607787,-0.2447939,-62.00227,10.71492,-115.482,-62.0853,10.77226,-115.4186,-0.06176758,-0.9775391,0.3837891,0.1892367,-0.2104504,-1.00784,-68.09692,3.277633,-68.61274,-68.31428,3.366043,-68.60346,LR
-0.08691406,-0.4287109,-0.2131348,0.7640381,-0.1691756,-0.0310533,-61.98712,10.70408,-115.4924,-61.76865,10.28923,-115.9772,-0.05517578,-0.973877,0.3925781,0.3419085,-0.1035802,-0.763565,-68.0873,3.270819,-68.6125,-67.85021,3.007959,-68.07703,LR
-0.0949707,-0.4328613,-0.2023926,0.32129,-0.3523817,-0.0005190372,-61.99602,10.7093,-115.4734,-62.68427,11.24104,-114.5465,-0.06005859,-0.9775391,0.3835449,0.5556489,0.339168,-0.7330306,-68.08365,3.276188,-68.62402,-68.34005,3.273395,-68.61373,LR
-0.09008789,-0.4238281,-0.2062988,0.7793052,-0.2149771,-0.09212208,-61.98516,10.70835,-115.4745,-62.02553,10.81985,-115.4598,-0.05371094,-0.9797363,0.3916016,0.738855,0.4002366,-1.038374,-68.07169,3.274832,-68.63168,-68.02873,2.914186,-68.24297,LR
-0.09106445,-0.4294434,-0.2060547,0.8861756,-0.1386412,0.1368854,-61.97881,10.70861,-115.4659,-62.31908,10.82341,-115.1445,-0.05761719,-0.9782715,0.3808594,0.4945802,0.59871,-1.145244,-68.07315,3.280966,-68.65111,-68.50803,3.141484,-68.76162,LR
-0.09082031,-0.4301758,-0.2116699,0.9319771,-0.3371145,0.2437558,-61.9622,10.70402,-115.4672,-61.83384,10.72661,-115.7081,-0.04882813,-0.9804688,0.3933105,0.00603056,0.7055801,-1.282649,-68.0714,3.278646,-68.66027,-67.99021,2.646362,-68.16654,LR
-0.0925293,-0.4274902,-0.2072754,0.9777786,-0.4134504,-0.1989923,-61.94923,10.70428,-115.4679,-62.03239,11.02104,-115.3559,-0.05249023,-0.9794922,0.3891602,-0.1008396,0.6445115,-1.313183,-68.07453,3.27957,-68.67357,-68.15385,2.851114,-68.35985,LR
-0.08789063,-0.4277344,-0.2084961,0.9625113,-0.291313,0.259023,-61.93854,10.69521,-115.4652,-62.12194,10.46486,-115.5229,-0.05737305,-0.9736328,0.3901367,0.00603056,0.7055801,-1.175779,-68.07198,3.286968,-68.68134,-67.95148,3.130895,-68.19818,LR
-0.09399414,-0.4274902,-0.2109375,0.8556412,-0.2607787,0.2437558,-61.91963,10.70056,-115.4669,-61.62191,11.15431,-115.7304,-0.05273438,-0.9804688,0.3852539,0.3419085,0.5376411,-0.9925726,-68.07286,3.286448,-68.69384,-68.3671,2.865785,-68.57688,LR
-0.08959961,-0.4250488,-0.2077637,0.9167099,-0.1691756,0.1674199,-61.90722,10.69854,-115.4663,-61.97289,10.72393,-115.5612,-0.05883789,-0.9760742,0.3942871,0.3113741,0.5681756,0.0,-68.0625,3.293052,-68.68076,-67.78367,3.199059,-68.03972,LR
-0.09472656,-0.4291992,-0.2155762,0.8861756,0.1056336,0.3658931,-61.88103,10.70926,-115.4742,-61.24964,11.15697,-116.1266,-0.05883789,-0.9802246,0.3867188,0.4182443,0.7208474,-0.9315039,-68.06001,3.301705,-68.69093,-68.245,3.195883,-68.5049,LR
-0.08642578,-0.427002,-0.2094727,0.840374,-0.123374,0.3811603,-61.8728,10.69936,-115.473,-62.04599,10.29906,-115.679,-0.05004883,-0.9790039,0.3916016,0.3724428,0.9498549,-0.8093664,-68.05447,3.303054,-68.6927,-68.03806,2.717548,-68.22437,LR
-0.08886719,-0.4299316,-0.2019043,0.8251068,0.1972366,0.442229,-61.87998,10.70022,-115.451,-62.83781,10.59732,-114.6976,-0.05761719,-0.970459,0.3835449,0.2808397,0.858252,-0.8399009,-68.05357,3.312817,-68.70058,-68.21564,3.160388,-68.4695,LR
-0.0871582,-0.4291992,-0.2099609,0.5960991,-0.1386412,0.3964274,-61.87544,10.69094,-115.4484,-62.0913,10.33792,-115.6134,-0.05932617,-0.9741211,0.3979492,0.8151909,0.6445115,-0.7177633,-68.03166,3.320572,-68.69344,-67.55761,3.226871,-67.81605,LR
-0.08251953,-0.4326172,-0.213623,0.6419008,-0.4439847,0.2437558,-61.87061,10.6647,-115.4534,-62.10536,9.705393,-115.8756,-0.06713867,-0.9743652,0.3879395,0.6930535,0.5681756,-0.4734885,-68.02081,3.335772,-68.69328,-67.99812,3.662938,-68.33682,LR
-0.08789063,-0.4321289,-0.2087402,0.3060229,-0.6271908,0.3200917,-61.87549,10.64975,-115.4463,-62.3399,10.37826,-115.331,-0.05566406,-0.9750977,0.3811035,0.4182443,0.3086336,-0.6261602,-68.02318,3.334464,-68.70229,-68.44682,3.043494,-68.68421,LR
-0.08984375,-0.4272461,-0.2092285,0.2144198,-0.8714657,0.1674199,-61.87372,10.63784,-115.447,-61.94442,10.69468,-115.6053,-0.05786133,-0.9733887,0.394043,0.2655725,0.2017633,-0.4429542,-68.01376,3.333816,-68.69469,-67.74774,3.153788,-67.99625,LR
-0.08691406,-0.4282227,-0.2084961,0.4434273,-0.5355878,0.03001523,-61.87349,10.62405,-115.4478,-62.18846,10.34178,-115.5085,-0.0637207,-0.9741211,0.3857422,0.05183208,0.171229,-0.3818855,-68.01536,3.339264,-68.69518,-68.13162,3.480366,-68.43877,LR
-0.09326172,-0.427002,-0.1953125,0.2602212,-0.7493282,-0.2142596,-61.89461,10.62523,-115.4235,-63.12071,11.23384,-114.0784,-0.0637207,-0.9780273,0.3950195,-0.1619084,-0.1188473,-0.1986794,-68.01243,3.339874,-68.68517,-67.74978,3.457088,-68.04861,LR
-0.07910156,-0.4306641,-0.2075195,0.1380839,-0.5661222,-0.2295268,-61.9091,10.59231,-115.4256,-62.72081,9.395356,-115.3577,-0.05859375,-0.9763184,0.3925781,-0.03977096,-0.4089237,-0.2444809,-68.01028,3.330806,-68.67767,-67.87557,3.187058,-68.13054,LR
-0.1079102,-0.4274902,-0.2126465,0.1686182,-0.8256641,-0.1226563,-61.88538,10.62303,-115.4338,-60.84662,12.73543,-115.7481,-0.05664063,-0.979248,0.3911133,0.1434351,-0.2409847,-0.1834122,-68.00842,3.322141,-68.67204,-68.02256,3.07469,-68.26109,LR
-0.09179688,-0.4306641,-0.2092285,0.3976259,-0.4592519,-0.06158781,-61.88327,10.62134,-115.4343,-62.0527,10.85324,-115.4149,-0.05273438,-0.9802246,0.3925781,0.0976336,-0.1951832,-0.2597481,-68.00684,3.310202,-68.66622,-67.99659,2.859081,-68.20255,LR
-0.09033203,-0.4233398,-0.2077637,0.32129,-0.5966565,-0.09212208,-61.87781,10.61701,-115.4397,-61.84641,10.84389,-115.6395,-0.0546875,-0.9816895,0.3930664,0.1129008,0.09489316,-0.3055496,-68.00482,3.304603,-68.66158,-67.98875,2.960474,-68.20956,LR
-0.09228516,-0.4282227,-0.2114258,0.5350306,-0.2760458,0.3353589,-61.86615,10.61936,-115.4413,-61.68809,10.93692,-115.7642,-0.05517578,-0.979248,0.3894043,0.2045038,0.4460382,-0.2139466,-68.00409,3.30501,-68.65842,-68.11819,2.997114,-68.3456,LR
-0.09130859,-0.4284668,-0.2055664,0.4586947,-0.1386412,0.03001523,-61.86812,10.62245,-115.4348,-62.3018,10.87607,-115.1376,-0.05419922,-0.9802246,0.3916016,0.128168,0.4918396,-0.1070763,-68.00283,3.304927,-68.65189,-68.03528,2.939371,-68.2533,LR
-0.09301758,-0.4304199,-0.2060547,0.229687,-0.3065802,0.2895572,-61.87317,10.6261,-115.4234,-62.28941,11.02999,-115.0762,-0.05151367,-0.9794922,0.3830566,0.1129008,0.2322977,-0.2597481,-68.01043,3.298325,-68.65603,-68.46594,2.804101,-68.66751,LR
-0.08544922,-0.4304199,-0.1994629,0.2602212,-0.4439847,-0.06158781,-61.89679,10.61127,-115.4047,-63.24512,10.21086,-114.4439,-0.05126953,-0.9743652,0.3845215,0.6014504,0.3086336,-0.2139466,-68.00721,3.292938,-68.65588,-68.29099,2.802101,-68.49095,LR
-0.09033203,-0.4289551,-0.2058105,0.3365571,-0.4897862,0.1368854,-61.90083,10.60685,-115.3976,-62.34658,10.75042,-115.1499,-0.05517578,-0.9760742,0.4016113,0.6777863,0.4460382,-0.3513512,-67.98602,3.293485,-68.64127,-67.44588,2.992478,-67.66714,LR
-0.09228516,-0.4291992,-0.2067871,0.1075497,-0.5050534,0.442229,-61.90491,10.60654,-115.3876,-62.18389,10.96281,-115.2219,-0.05200195,-0.979248,0.3852539,0.5709161,0.3544351,-0.06127481,-67.98486,3.289407,-68.64038,-68.34762,2.829093,-68.5519,LR
-0.08789063,-0.432373,-0.2072754,0.07701516,-0.1691756,0.5338321,-61.91555,10.59967,-115.3752,-62.4937,10.38705,-115.1633,-0.05664063,-0.9748535,0.3896484,0.3571756,0.2780993,-0.07654199,-67.98003,3.289471,-68.63363,-68.0062,3.088207,-68.24669,LR
-0.09082031,-0.4284668,-0.2148438,-0.1825268,-0.7187939,0.3811603,-61.90866,10.59169,-115.3847,-61.43675,10.7292,-116.1291,-0.05419922,-0.9702148,0.3776855,0.7235878,0.262832,0.2440687,-67.98043,3.287146,-68.63257,-68.53186,2.980002,-68.76017,LR
-0.08007813,-0.4282227,-0.1992188,-0.2130611,-0.7187939,0.1674199,-61.94104,10.56175,-115.366,-63.37084,9.623039,-114.5744,-0.06030273,-0.9770508,0.3935547,0.2503054,0.6139771,0.04559542,-67.97372,3.295959,-68.62121,-67.82912,3.276571,-68.09821,LR
-0.09228516,-0.4272461,-0.2133789,0.1380839,0.07509923,-0.01578617,-61.92806,10.57095,-115.3795,-61.44776,10.93705,-116.0202,-0.06079102,-0.9760742,0.3933105,-0.1161069,0.6597786,-0.1528779,-67.97321,3.311035,-68.61406,-67.8175,3.306165,-68.09138,LR
-0.09423828,-0.4255371,-0.2075195,0.32129,-0.2607787,0.1216183,-61.92131,10.58085,-115.3793,-61.82679,11.25757,-115.4605,-0.05517578,-0.9726563,0.3950195,0.0976336,0.2475649,-0.1834122,-67.96637,3.308625,-68.60305,-67.70307,3.008577,-67.92879,LR
-0.09399414,-0.4233398,-0.2070313,0.07701516,-0.2607787,0.2437558,-61.91696,10.591,-115.3785,-61.76043,11.27997,-115.5206,-0.0625,-0.9760742,0.3911133,0.1129008,0.2780993,-0.1528779,-67.96365,3.314571,-68.59733,-67.91346,3.401537,-68.20444,LR
-0.09008789,-0.4309082,-0.2124023,0.1991527,-0.6271908,-0.0005190372,-61.91238,10.58237,-115.3861,-61.83444,10.62086,-115.7567,-0.05224609,-0.9782715,0.3947754,0.1129008,-0.179916,-0.3055496,-67.95973,3.302341,-68.59091,-67.8506,2.835313,-68.05207,LR
-0.0925293,-0.4304199,-0.206543,0.3518243,-0.6119237,0.1063511,-61.91424,10.58111,-115.3795,-62.26385,10.96877,-115.1334,-0.0637207,-0.9689941,0.385498,0.2961069,-0.2104504,-0.1376107,-67.95696,3.303131,-68.58808,-68.03916,3.49653,-68.34812,LR
-0.09545898,-0.4289551,-0.2070313,-0.2130611,-0.5661222,-0.1837251,-61.9193,10.58782,-115.3791,-62.01047,11.33288,-115.2259,-0.0546875,-0.9765625,0.3979492,-0.3145801,-0.2562519,0.1677328,-67.95527,3.292675,-68.57106,-67.64117,2.968671,-67.86044,LR
-0.09765625,-0.4291992,-0.2084961,-0.3046641,-0.3065802,-0.3974657,-61.92089,10.60319,-115.3839,-61.78977,11.56649,-115.3456,-0.05883789,-0.9799805,0.3845215,-0.4519846,-0.1341145,-0.04600763,-67.96935,3.288962,-68.57249,-68.34971,3.199008,-68.61115,LR
-0.09570313,-0.4272461,-0.2087402,-0.1519923,-0.0470382,-0.3669312,-61.91972,10.61798,-115.3918,-61.74313,11.37951,-115.4898,-0.06176758,-0.9726563,0.3862305,-0.4214504,0.339168,-0.04600763,-67.97844,3.296056,-68.5694,-68.09325,3.37774,-68.38207,LR
-0.08789063,-0.4267578,-0.2124023,-0.07565641,0.02929771,-0.1226563,-61.91626,10.61498,-115.4055,-61.69136,10.44661,-115.9883,-0.05810547,-0.973877,0.3837891,-0.6046565,0.3697023,-0.1376107,-67.99314,3.299113,-68.57056,-68.26902,3.177184,-68.52611,LR
-0.09228516,-0.4228516,-0.2028809,-0.01458788,-0.1691756,-0.2905953,-61.92228,10.62283,-115.404,-62.20642,11.1318,-115.1152,-0.06665039,-0.9729004,0.3974609,-0.2687786,0.1864962,-0.1070763,-67.98721,3.308447,-68.55724,-67.49889,3.628768,-67.82533,LR
-0.09057617,-0.4213867,-0.2080078,0.1075497,-0.1081069,-0.1531909,-61.91629,10.62698,-115.4134,-61.70216,10.90963,-115.7621,-0.06713867,-0.9699707,0.3920898,-0.2382443,0.2475649,-0.168145,-67.98498,3.319353,-68.54932,-67.70088,3.671783,-68.03757,LR
-0.09570313,-0.4238281,-0.2077637,0.1991527,-0.0470382,-0.2753282,-61.90791,10.64298,-115.4203,-61.64362,11.46165,-115.5557,-0.05566406,-0.972168,0.3935547,-0.3145801,0.339168,-0.3513512,-67.98515,3.318713,-68.54337,-67.76276,3.038049,-67.99342,LR
-0.09326172,-0.4282227,-0.2131348,0.4281602,0.4262443,-0.06158781,-61.89317,10.65704,-115.4315,-61.48552,11.03272,-115.9346,-0.05810547,-0.9787598,0.3913574,-0.390916,0.6139771,-0.4582213,-67.991,3.324467,-68.54405,-67.98979,3.155133,-68.24071,LR
-0.09716797,-0.4277344,-0.2067871,0.7029693,0.6705191,-0.04632068,-61.88279,10.68493,-115.4283,-61.89064,11.55885,-115.2409,-0.05932617,-0.9709473,0.3969727,-0.5130534,0.6597786,-0.6872291,-67.98952,3.332417,-68.53928,-67.54022,3.237024,-67.80013,LR
-0.08666992,-0.4299316,-0.2109375,0.7945726,0.5331145,-0.5654044,-61.8746,10.68424,-115.4418,-62.05715,10.2584,-115.6855,-0.06152344,-0.9799805,0.3908691,-0.4672519,0.7055801,-0.7330306,-67.99686,3.342887,-68.54514,-68.01289,3.337312,-68.29397,LR
-0.09619141,-0.4291992,-0.2094727,0.9625113,0.7315878,-0.1531909,-61.85819,10.70906,-115.4445,-61.76183,11.38763,-115.4657,-0.05566406,-0.9846191,0.3852539,-0.5283206,0.5834427,-0.9773054,-68.01328,3.344879,-68.56184,-68.42937,3.013673,-68.66199,LR
-0.09057617,-0.4301758,-0.2143555,0.9167099,0.2430381,-0.2905953,-61.83932,10.7119,-115.4598,-61.58852,10.67252,-115.9941,-0.06030273,-0.9768066,0.3925781,-0.5435878,0.3849695,-0.9162367,-68.01846,3.349208,-68.56692,-67.87269,3.278406,-68.14251,LR
-0.09326172,-0.4328613,-0.2089844,0.9625113,0.3804427,-0.3669312,-61.83109,10.72286,-115.4613,-62.13501,10.98036,-115.2658,-0.05517578,-0.9760742,0.3876953,-0.2687786,0.4613054,-0.595626,-68.02483,3.349152,-68.57171,-68.1393,3.007313,-68.36843,LR
-0.09204102,-0.4267578,-0.204834,0.5960991,0.319374,-0.5806718,-61.83063,10.73316,-115.4633,-62.24634,11.00317,-115.1354,-0.05786133,-0.9736328,0.3825684,-0.558855,0.7666489,-0.6261602,-68.03909,3.356756,-68.58114,-68.32725,3.165896,-68.58306,LR
-0.1044922,-0.427002,-0.2038574,0.6419008,0.1667023,-0.2753282,-61.82096,10.76985,-115.4554,-61.78739,12.45304,-114.8787,-0.05957031,-0.9753418,0.3864746,-0.4367175,0.6445115,-0.6414275,-68.04736,3.36346,-68.58673,-68.15292,3.249832,-68.42079,LR
-0.09008789,-0.4226074,-0.2094727,0.2144198,0.5636489,-0.5348701,-61.81439,10.779,-115.4714,-61.65034,10.81305,-115.8629,-0.05664063,-0.9824219,0.388916,-0.7115266,-0.04251146,-0.9162367,-68.0608,3.356936,-68.59716,-68.19607,3.068482,-68.43515,LR
-0.08666992,-0.4296875,-0.2131348,0.5197632,0.2125039,-0.3363969,-61.80711,10.77139,-115.4855,-61.83249,10.24263,-115.9304,-0.0625,-0.9768066,0.3820801,-0.4061831,0.1559618,-0.7940992,-68.07314,3.360291,-68.61042,-68.37906,3.410092,-68.67661,LR
-0.09204102,-0.4296875,-0.2106934,0.5197632,-0.1844428,-0.3974657,-61.80032,10.77099,-115.494,-61.84935,10.88663,-115.6161,-0.05664063,-0.9799805,0.394043,-0.3145801,-0.1646488,-0.4582213,-68.07413,3.352056,-68.60751,-67.89175,3.069549,-68.12835,LR
-0.08984375,-0.4291992,-0.2116699,0.1686182,-0.291313,-0.2142596,-61.79822,10.76394,-115.5026,-61.81936,10.63289,-115.7671,-0.05737305,-0.9804688,0.3845215,-0.2535114,-0.1341145,-0.2902825,-68.08378,3.345407,-68.61201,-68.37055,3.118181,-68.61908,LR
-0.07910156,-0.4333496,-0.2102051,0.1228168,-0.4134504,0.04528236,-61.81263,10.72952,-115.5021,-62.60327,9.326623,-115.5098,-0.05151367,-0.9772949,0.3850098,-0.05503809,0.003290057,-0.3818855,-68.08934,3.334697,-68.61552,-68.3239,2.80765,-68.52491,LR
-0.09277344,-0.4301758,-0.2028809,0.3976259,-0.3523817,-0.2142596,-61.82192,10.73016,-115.4904,-62.58903,11.03747,-114.7508,-0.05297852,-0.973877,0.3920898,0.00603056,0.1254275,-0.3971527,-68.08525,3.327747,-68.61142,-67.88978,2.888881,-68.09924,LR
-0.09399414,-0.4335938,-0.2036133,0.4434273,0.01403052,-0.3516641,-61.83199,10.73779,-115.4788,-62.65127,11.10159,-114.652,-0.05883789,-0.9833984,0.388916,0.06709921,0.2933664,-0.504023,-68.08655,3.329196,-68.61575,-68.19949,3.184546,-68.4571,LR
-0.09057617,-0.4262695,-0.2062988,0.489229,0.1819695,-0.2142596,-61.83098,10.74227,-115.4791,-62.14107,10.82785,-115.3326,-0.05224609,-0.979248,0.387207,-0.1008396,0.3086336,-0.504023,-68.09126,3.323957,-68.6199,-68.24821,2.840422,-68.45336,LR
-0.08984375,-0.432373,-0.213623,0.6113663,-0.1386412,-0.07685494,-61.82156,10.73644,-115.4869,-61.8092,10.55293,-115.8148,-0.05419922,-0.9758301,0.385498,0.00603056,0.4613054,-0.5498245,-68.09437,3.323401,-68.62507,-68.25138,2.957094,-68.47382,LR
-0.08935547,-0.4299316,-0.2089844,0.5655649,-0.1691756,-0.4432673,-61.81954,10.73098,-115.4927,-62.13656,10.58772,-115.4506,-0.05957031,-0.979248,0.3876953,-0.009236574,0.03382444,-0.4429542,-68.09604,3.322176,-68.62782,-68.17106,3.237266,-68.43703,LR
-0.08666992,-0.4240723,-0.1994629,0.2449541,-0.031771,-0.1989923,-61.83654,10.72545,-115.4806,-62.84967,10.47787,-114.7415,-0.04443359,-0.9702148,0.378418,-0.3603816,-0.2562519,-0.1986794,-68.1106,3.300829,-68.63244,-68.55933,2.443163,-68.71278,LR
-0.09472656,-0.4291992,-0.2045898,0.1991527,-0.1997099,-0.3058627,-61.84263,10.73336,-115.4747,-62.28736,11.26742,-114.9609,-0.0480957,-0.973877,0.3845215,-0.05503809,-0.1646488,-0.2444809,-68.11523,3.284992,-68.63295,-68.30178,2.630028,-68.47794,LR
-0.08691406,-0.4289551,-0.2077637,0.2449541,-0.1539084,-0.3058627,-61.84793,10.72297,-115.4779,-62.29956,10.33458,-115.3938,-0.05664063,-0.9760742,0.3862305,-0.2077099,0.003290057,-0.427687,-68.12022,3.281116,-68.63589,-68.20203,3.088586,-68.44433,LR
-0.0871582,-0.4291992,-0.2106934,0.229687,0.04456491,-0.3211298,-61.84801,10.71579,-115.4868,-62.02081,10.3311,-115.6912,-0.07617188,-0.9794922,0.3913574,-0.3298473,0.06435877,-0.4734885,-68.1197,3.299049,-68.63573,-67.85126,4.130486,-68.2802,LR
-0.08789063,-0.4313965,-0.2116699,0.4739618,0.01403052,-0.4127328,-61.84447,10.70898,-115.4967,-62.01923,10.36507,-115.6776,-0.05639648,-0.9812012,0.387207,-0.05503809,0.003290057,-0.3513512,-68.12328,3.294324,-68.63812,-68.25841,3.06038,-68.49678,LR
-0.08935547,-0.4353027,-0.2124023,0.1228168,-0.4439847,0.0147481,-61.84787,10.69732,-115.4975,-62.10497,10.45252,-115.5467,-0.05371094,-0.973877,0.3859863,-0.05503809,-0.01197708,-0.1528779,-68.12543,3.286963,-68.6358,-68.19075,2.93507,-68.40939,LR
-0.08862305,-0.4350586,-0.2009277,0.0922823,-0.642458,-0.168458,-61.8739,10.68348,-115.477,-63.21676,10.47753,-114.349,-0.04980469,-0.9733887,0.3842773,-0.1008396,0.003290057,-0.04600763,-68.13026,3.275767,-68.6334,-68.29324,2.724756,-68.48231,LR
-0.09301758,-0.4267578,-0.2062988,0.1686182,-0.4134504,-0.3211298,-61.87506,10.68538,-115.4781,-62.06405,11.10248,-115.2823,-0.05444336,-0.9758301,0.3918457,-0.02450383,-0.1341145,-0.2292137,-68.12668,3.267425,-68.62738,-67.93195,2.963768,-68.15279,LR
-0.09179688,-0.4304199,-0.2033691,0.3365571,-0.2455115,-0.09212208,-61.88457,10.68635,-115.466,-62.59805,10.91448,-114.8015,-0.05517578,-0.9765625,0.3896484,-0.2077099,-0.1951832,-0.2292137,-68.12823,3.259286,-68.62379,-68.05153,3.003956,-68.2794,LR
-0.09179688,-0.4257813,-0.208252,0.2602212,-0.0470382,-0.260061,-61.88055,10.69115,-115.4715,-61.87484,10.96088,-115.5534,-0.05322266,-0.9772949,0.3879395,-0.2687786,0.1406947,-0.3971527,-68.13293,3.254122,-68.62473,-68.16547,2.897672,-68.37836,LR
-0.0949707,-0.4277344,-0.2102051,0.4434273,0.1056336,-0.06158781,-61.86969,10.70427,-115.4756,-61.66344,11.26966,-115.6296,-0.05444336,-0.9819336,0.388916,-0.2382443,0.03382444,-0.504023,-68.1378,3.248555,-68.62811,-68.20187,2.950927,-68.42297,LR
-0.08666992,-0.4291992,-0.2075195,0.4739618,-0.2302443,-0.1837251,-61.87226,10.69288,-115.476,-62.34643,10.30378,-115.358,-0.05224609,-0.9777832,0.3884277,-0.009236574,-0.01197708,-0.2139466,-68.13834,3.240266,-68.62594,-68.15756,2.84288,-68.3624,LR
-0.09179688,-0.4272461,-0.208252,0.3060229,-0.06230533,0.0,-61.86914,10.69667,-115.476,-61.95657,10.93126,-115.4803,-0.0534668,-0.9799805,0.3913574,-0.222977,-0.05777865,-0.2750153,-68.14001,3.232566,-68.62293,-68.04752,2.900589,-68.2599,LR
-0.09375,-0.4318848,-0.2058105,0.3670917,-0.001236677,-0.06158781,-61.87359,10.70446,-115.4668,-62.36113,11.08713,-114.9712,-0.05712891,-0.9804688,0.3837891,-0.1771755,-0.02724427,-0.4429542,-68.14799,3.229629,-68.6301,-68.40896,3.105724,-68.65586,LR
-0.09301758,-0.4287109,-0.2028809,0.3976259,0.09036642,0.1674199,-61.88024,10.71362,-115.4514,-62.49839,11.09593,-114.8193,-0.05175781,-0.9731445,0.3869629,0.03656495,0.262832,-0.3666183,-68.1473,3.225488,-68.62975,-68.14018,2.829381,-68.34294,LR
-0.09570313,-0.4350586,-0.2102051,0.32129,-0.2149771,0.182687,-61.87865,10.72026,-115.445,-62.03685,11.20354,-115.2618,-0.04663086,-0.9804688,0.3859863,0.02129769,0.3544351,-0.3055496,-68.15144,3.216866,-68.63232,-68.3698,2.533913,-68.53371,LR
-0.09228516,-0.4255371,-0.2023926,0.07701516,-0.2760458,0.182687,-61.888,10.72341,-115.432,-62.40274,11.08082,-114.9296,-0.04833984,-0.980957,0.3852539,0.1129008,0.262832,-0.2902825,-68.15486,3.208916,-68.63559,-68.40574,2.626188,-68.58207,LR
-0.09375,-0.4367676,-0.2026367,0.1686182,0.02929771,-0.09212208,-61.90625,10.72974,-115.4127,-62.92418,11.01821,-114.3997,-0.04516602,-0.980957,0.3803711,0.3571756,0.5529084,-0.1986794,-68.15992,3.202028,-68.64233,-68.67039,2.458114,-68.82638,LR
-0.08837891,-0.4321289,-0.1987305,0.1686182,0.02929771,0.701771,-61.93131,10.7261,-115.3792,-63.28327,10.52621,-114.2544,-0.0534668,-0.9724121,0.4013672,0.479313,0.8124504,-0.1376107,-68.13754,3.208121,-68.62354,-67.39313,2.909525,-67.60188,LR
-0.08691406,-0.4328613,-0.2009277,-0.197794,0.1972366,0.6407022,-61.95903,10.72091,-115.3516,-63.17194,10.32186,-114.4704,-0.04907227,-0.9692383,0.3991699,0.2961069,0.59871,-0.1986794,-68.11973,3.206366,-68.60683,-67.46452,2.680343,-67.64204,LR
-0.07958984,-0.4279785,-0.2028809,0.04648089,-0.01650381,0.5949008,-61.97945,10.69703,-115.3356,-63.01403,9.53897,-114.9881,-0.04956055,-0.9716797,0.3942871,0.1739695,0.4460382,0.01506107,-68.10991,3.202914,-68.59327,-67.75681,2.705912,-67.93964,LR
-0.09082031,-0.4257813,-0.2045898,-0.04512215,0.09036642,0.2895572,-61.98593,10.70217,-115.3277,-62.26814,10.88286,-115.1704,-0.05126953,-0.9724121,0.3876953,0.2350382,0.4155039,-0.09180916,-68.10586,3.201447,-68.58865,-68.09171,2.803826,-68.29045,LR
-0.09130859,-0.4289551,-0.2058105,0.3976259,0.5941832,0.1521528,-61.98647,10.71414,-115.3217,-62.30528,10.86389,-115.1398,-0.05273438,-0.9758301,0.3796387,-0.222977,0.5223741,-0.4734885,-68.11814,3.202761,-68.59925,-68.55624,2.883175,-68.7701,LR
-0.08422852,-0.4301758,-0.2067871,0.6877022,0.578916,-0.1379237,-61.98261,10.71306,-115.3235,-62.56839,10.00794,-115.2554,-0.0546875,-0.9836426,0.3774414,-0.4672519,0.781916,-0.7177633,-68.14246,3.215758,-68.62418,-68.80745,2.97137,-69.03684,LR
-0.08911133,-0.4343262,-0.199707,0.840374,0.07509923,0.2742901,-61.99609,10.71109,-115.298,-63.27441,10.5593,-114.248,-0.05053711,-0.9772949,0.3852539,-0.1619084,0.4765725,-0.5192901,-68.14835,3.213533,-68.62957,-68.31814,2.754273,-68.51151,LR
-0.08813477,-0.4284668,-0.2004395,0.8556412,0.1361679,-0.06158781,-62.00222,10.70995,-115.2853,-62.93148,10.55425,-114.6179,-0.05712891,-0.96875,0.3928223,-0.1008396,0.3849695,-0.2139466,-68.14122,3.217484,-68.61937,-67.71815,3.12809,-67.96236,LR
-0.09790039,-0.4260254,-0.2041016,-0.06038928,-0.2302443,0.04528236,-62.00339,10.72654,-115.2795,-62.01625,11.70843,-115.0285,-0.04907227,-0.9685059,0.3952637,0.2808397,0.2933664,-0.0002061129,-68.12717,3.211164,-68.60348,-67.64507,2.685869,-67.82448,LR
-0.09228516,-0.4299316,-0.2092285,-0.4726033,-0.5203207,-0.0005190372,-62.01011,10.72284,-115.2828,-61.99187,10.92425,-115.4459,-0.05395508,-0.9726563,0.3862305,-0.05503809,0.262832,-0.09180916,-68.12847,3.209831,-68.60022,-68.15197,2.951326,-68.37272,LR
-0.09204102,-0.4243164,-0.206543,0.1228168,0.04456491,-0.1989923,-62.0069,10.72981,-115.2891,-61.94636,11.03625,-115.4406,-0.06005859,-0.9799805,0.3840332,-0.390916,0.4155039,-0.2444809,-68.13933,3.217465,-68.6048,-68.36465,3.265788,-68.63731,LR
-0.08642578,-0.423584,-0.2087402,0.5044961,0.2888396,0.2742901,-61.99787,10.72689,-115.2948,-61.92613,10.3714,-115.7735,-0.0559082,-0.9816895,0.3791504,-0.131374,0.6292443,-0.2902825,-68.15196,3.223187,-68.61523,-68.67439,3.041055,-68.91348,LR
-0.09228516,-0.4304199,-0.1933594,0.3518243,-0.3371145,0.3658931,-62.02383,10.72905,-115.2581,-63.53693,11.06614,-113.7135,-0.06396484,-0.9753418,0.3891602,0.3419085,0.1101603,-0.5803587,-68.14391,3.229949,-68.6167,-67.98392,3.485713,-68.29034,LR
-0.08911133,-0.4257813,-0.2145996,0.2449541,-0.9478015,0.5643663,-62.00729,10.71226,-115.2698,-61.37695,10.58604,-116.2583,-0.06030273,-0.9724121,0.3879395,0.219771,-0.2409847,-0.4734885,-68.13809,3.227738,-68.6171,-68.01427,3.296541,-68.28851,LR
-0.09448242,-0.4296875,-0.2099609,0.6571679,-0.7493282,0.6254351,-61.99381,10.71051,-115.2655,-61.81619,11.17556,-115.5121,-0.05322266,-0.9765625,0.3969727,0.3724428,-0.08831299,-0.5803587,-68.12385,3.219691,-68.61144,-67.69965,2.890296,-67.90788,LR
-0.09643555,-0.4287109,-0.2121582,0.8251068,-0.6882596,0.1063511,-61.97124,10.71415,-115.274,-61.47152,11.39843,-115.7717,-0.05615234,-0.9731445,0.3964844,0.3266413,0.1559618,-0.6872291,-68.10923,3.218766,-68.60663,-67.63323,3.058805,-67.866,LR
-0.09545898,-0.4306641,-0.2050781,0.3976259,0.01403052,-0.168458,-61.97175,10.72641,-115.2697,-62.28926,11.31676,-114.934,-0.05761719,-0.9753418,0.3796387,-0.2687786,0.430771,-0.763565,-68.12121,3.223743,-68.62104,-68.51074,3.150988,-68.76591,LR
-0.08935547,-0.4299316,-0.2053223,0.6266336,0.746855,0.04528236,-61.97286,10.7353,-115.2648,-62.48793,10.62225,-115.0597,-0.05712891,-0.980957,0.387207,-0.6809924,1.010924,-0.8246336,-68.13376,3.236143,-68.6306,-68.24815,3.100713,-68.49278,LR
-0.08642578,-0.4291992,-0.2106934,0.8556412,0.8537251,-0.168458,-61.96182,10.73807,-115.276,-62.04986,10.24613,-115.6987,-0.05883789,-0.9702148,0.3837891,-0.4519846,1.362069,-0.9620381,-68.14151,3.255995,-68.6412,-68.18906,3.227629,-68.45362,LR
-0.0871582,-0.4331055,-0.2124023,0.8556412,0.3804427,-0.4585342,-61.95144,10.73374,-115.2908,-62.07191,10.24181,-115.6772,-0.0559082,-0.9758301,0.3830566,-0.4977863,1.209397,-0.8093664,-68.15324,3.269709,-68.65227,-68.3616,3.05276,-68.5997,LR
-0.08325195,-0.4257813,-0.208252,0.5960991,0.7773893,-0.7028093,-61.9481,10.72973,-115.3081,-62.22242,9.962035,-115.6417,-0.05834961,-0.9702148,0.3847656,-0.6046565,0.9345879,-0.7940992,-68.16193,3.282049,-68.65896,-68.14368,3.199799,-68.40324,LR
-0.08837891,-0.4279785,-0.2055664,0.8251068,0.4720459,-0.5196033,-61.94497,10.73297,-115.3134,-62.39812,10.54459,-115.192,-0.05541992,-0.9711914,0.3840332,-0.7267939,0.7361145,-0.504023,-68.17382,3.287981,-68.66232,-68.22225,3.037596,-68.45676,LR
-0.09082031,-0.4274902,-0.2070313,0.5350306,0.3499084,-0.687542,-61.94077,10.73995,-115.3242,-62.12812,10.8247,-115.3479,-0.05395508,-0.9777832,0.3896484,-0.8031298,0.5376411,-0.8704351,-68.18385,3.288814,-68.66792,-68.08487,2.934455,-68.30256,LR
-0.09204102,-0.4321289,-0.2060547,0.4586947,0.3651755,-0.7180762,-61.94415,10.74781,-115.3277,-62.42443,10.88267,-115.0031,-0.05493164,-0.9758301,0.387207,-0.6962595,0.1559618,-0.7940992,-68.19294,3.285081,-68.67322,-68.16053,2.99519,-68.38799,LR
-0.09008789,-0.4345703,-0.190918,0.4434273,0.2735725,-0.7180762,-61.98056,10.75181,-115.2972,-64.09046,10.74663,-113.2764,-0.05273438,-0.980957,0.3857422,-0.5893893,0.1559618,-0.6719618,-68.2048,3.278953,-68.68087,-68.35246,2.864066,-68.56187,LR
-0.09033203,-0.4299316,-0.2062988,0.5502977,0.3041069,-0.687542,-61.97992,10.75577,-115.3044,-62.35332,10.72638,-115.1542,-0.05102539,-0.9790039,0.376709,-0.833664,0.06435877,-0.6261602,-68.22853,3.270017,-68.69606,-68.77872,2.784837,-68.97991,LR
-0.09399414,-0.4311523,-0.1977539,0.4128931,0.1056336,-0.5654044,-61.99579,10.76637,-115.2894,-63.07682,11.20839,-114.1389,-0.04980469,-0.9799805,0.3879395,-0.6046565,0.2780993,-0.7024961,-68.23769,3.262814,-68.70103,-68.24239,2.705456,-68.42843,LR
-0.08862305,-0.4360352,-0.2072754,0.4128931,0.01403052,-0.3974657,-62.00303,10.75929,-115.289,-62.66141,10.40159,-114.978,-0.04638672,-0.9775391,0.390625,-0.6657251,0.339168,-0.6414275,-68.24432,3.253005,-68.70125,-68.07975,2.523086,-68.24052,LR
-0.08618164,-0.4291992,-0.2036133,0.0,0.2430381,-0.5348701,-62.01786,10.75332,-115.29,-62.74484,10.28258,-114.944,-0.05078125,-0.9824219,0.3806152,-0.4977863,0.6597786,-0.7024961,-68.25979,3.252833,-68.71451,-68.65154,2.759463,-68.8481,LR
-0.08642578,-0.4257813,-0.2097168,0.8709083,0.4720459,-0.2142596,-62.00379,10.7516,-115.3027,-61.95436,10.32003,-115.7667,-0.04663086,-0.9743652,0.3879395,-0.6657251,0.8887863,-0.6719618,-68.26735,3.251759,-68.71635,-68.14864,2.545872,-68.31274,LR
-0.09082031,-0.4362793,-0.2041016,0.9014427,0.2430381,-0.6417403,-62.00817,10.7537,-115.2982,-62.88537,10.67813,-114.608,-0.04199219,-0.9736328,0.3786621,-0.131374,0.5071069,-0.6108932,-68.27652,3.240215,-68.72633,-68.62955,2.301845,-68.76608,LR
-0.08862305,-0.4335938,-0.2143555,0.7335038,0.4415114,-0.3974657,-61.99433,10.75277,-115.315,-61.85521,10.38282,-115.8435,-0.05053711,-0.9802246,0.3852539,-0.6962595,0.1864962,-0.8093664,-68.28876,3.233096,-68.73508,-68.37695,2.747155,-68.56975,LR
-0.08764648,-0.4296875,-0.2067871,0.7640381,0.1667023,-0.1989923,-61.99205,10.7483,-115.3163,-62.40424,10.41475,-115.2458,-0.05688477,-0.9748535,0.3894043,-0.390916,0.171229,-0.6566947,-68.28868,3.232818,-68.73458,-68.01662,3.10176,-68.25933,LR
-0.09448242,-0.4311523,-0.208252,0.3976259,-0.031771,-0.4585342,-61.98753,10.75612,-115.3219,-62.05857,11.16257,-115.2587,-0.05102539,-0.9819336,0.3896484,-0.4367175,0.01855725,-0.5192901,-68.2931,3.22374,-68.73517,-68.18844,2.765259,-68.38242,LR
-0.09399414,-0.4348145,-0.2104492,0.3976259,-0.1844428,-0.2447939,-61.98339,10.7585,-115.3254,-62.07288,11.01093,-115.3175,-0.0456543,-0.9829102,0.3937988,-0.4672519,0.2170305,-0.3208168,-68.2948,3.211832,-68.72894,-68.03433,2.468856,-68.188,LR
-0.09130859,-0.4309082,-0.213623,0.5502977,0.04456491,0.04528236,-61.96902,10.75898,-115.3357,-61.66922,10.74961,-115.8726,-0.04418945,-0.9853516,0.387207,-0.2840458,0.5376411,-0.6414275,-68.30148,3.203301,-68.73512,-68.4205,2.3901,-68.56657,LR
-0.08886719,-0.4291992,-0.192627,0.8709083,0.3499084,-0.1379237,-61.9908,10.76289,-115.3055,-63.69844,10.69717,-113.7247,-0.04956055,-0.9819336,0.3820801,-0.2535114,0.6597786,-0.7330306,-68.31071,3.202794,-68.74645,-68.57646,2.693037,-68.76311,LR
-0.08251953,-0.4355469,-0.2080078,0.8556412,0.1514351,-0.06158781,-61.99454,10.74389,-115.303,-62.80649,9.701797,-115.1374,-0.05175781,-0.9790039,0.3803711,-0.3451145,0.7513816,-0.5498245,-68.32136,3.206208,-68.75549,-68.5894,2.8212,-68.7944,LR
-0.0871582,-0.4284668,-0.2041016,0.8556412,-0.1539084,-0.3669312,-61.99441,10.73488,-115.3028,-62.61725,10.40625,-115.0229,-0.046875,-0.9819336,0.3806152,-0.3603816,0.3849695,-0.504023,-68.33357,3.198714,-68.76449,-68.66704,2.548588,-68.83473,LR
-0.08740234,-0.4326172,-0.2001953,0.489229,0.09036642,-0.06158781,-62.01152,10.72931,-115.2857,-63.20925,10.38987,-114.3985,-0.04760742,-0.9750977,0.376709,-0.2382443,0.3849695,-0.5498245,-68.34488,3.192551,-68.77528,-68.72394,2.607605,-68.8999,LR
-0.08740234,-0.4313965,-0.2089844,0.2907557,0.2125039,-0.06158781,-62.01294,10.72451,-115.2888,-62.29615,10.33349,-115.3979,-0.05053711,-0.9777832,0.3862305,-0.3451145,0.4155039,-0.3513512,-68.34864,3.189851,-68.77438,-68.27898,2.752148,-68.47177,LR
-0.09033203,-0.4343262,-0.1977539,0.1838853,0.3499084,-0.01578617,-62.03815,10.72954,-115.2638,-63.40904,10.71843,-114.026,-0.0534668,-0.9714355,0.3857422,-0.4672519,0.5681756,-0.3818855,-68.35164,3.192973,-68.77195,-68.15508,2.928336,-68.37244,LR
-0.0871582,-0.4326172,-0.2058105,0.4128931,0.2888396,0.04528236,-62.04487,10.72541,-115.2579,-62.67754,10.311,-115.0026,-0.04882813,-0.9794922,0.3896484,-0.3145801,0.6597786,-0.2292137,-68.35229,3.191853,-68.76652,-68.15327,2.652041,-68.33143,LR
-0.09204102,-0.4309082,-0.2121582,0.1838853,0.1514351,0.2437558,-62.03683,10.73009,-115.2633,-61.77809,10.84809,-115.7103,-0.0534668,-0.9709473,0.3735352,-0.1008396,0.4613054,-0.2292137,-68.36198,3.19364,-68.77429,-68.76222,2.942101,-68.98671,LR
-0.07836914,-0.434082,-0.2038574,0.0922823,-0.01650381,0.1368854,-62.06057,10.70087,-115.2522,-63.29138,9.281025,-114.8044,-0.04980469,-0.9819336,0.375,-0.2077099,0.4765725,-0.1223435,-68.3764,3.191029,-68.78307,-68.93067,2.712831,-69.12268,LR
-0.09082031,-0.4301758,-0.2043457,0.2449541,-0.1386412,0.442229,-62.06642,10.70075,-115.2392,-62.53315,10.79674,-114.9282,-0.05688477,-0.9746094,0.3908691,0.00603056,0.2170305,-0.04600763,-68.36755,3.192415,-68.77168,-67.93842,3.100823,-68.18028,LR
-0.08813477,-0.4289551,-0.2053223,0.2144198,-0.3218473,0.2742901,-62.07164,10.69199,-115.2328,-62.48538,10.49936,-115.1201,-0.05615234,-0.9775391,0.3862305,0.38771,0.2017633,0.01506107,-68.3592,3.192694,-68.76549,-68.23521,3.05805,-68.47301,LR
-0.08666992,-0.4362793,-0.2036133,-0.1519923,-0.291313,0.259023,-62.09454,10.67796,-115.2162,-63.10474,10.20492,-114.5963,-0.06005859,-0.9812012,0.3818359,0.0976336,0.171229,-0.0002061129,-68.36055,3.196652,-68.76563,-68.49873,3.264742,-68.77261,LR
-0.08325195,-0.4326172,-0.1994629,-0.04512215,-0.291313,0.4269619,-62.12241,10.65809,-115.1924,-63.45285,9.912766,-114.3588,-0.05541992,-0.9753418,0.3820801,0.1434351,0.262832,0.03032825,-68.35918,3.19741,-68.76262,-68.4044,3.028487,-68.6391,LR
-0.08740234,-0.4328613,-0.2060547,-0.2435954,-0.4592519,0.4727633,-62.13669,10.64483,-115.1819,-62.65729,10.33239,-115.0143,-0.04907227,-0.973877,0.3762207,0.128168,-0.2257175,0.0,-68.36441,3.183966,-68.76541,-68.71487,2.691103,-68.90224,LR
-0.08862305,-0.427002,-0.1938477,-0.4268017,-0.5813893,0.07581687,-62.16927,10.63799,-115.1565,-63.47313,10.70181,-113.9652,-0.05126953,-0.9733887,0.3874512,-0.05503809,-0.2409847,0.2898702,-68.36035,3.173013,-68.75257,-68.12388,2.801643,-68.32254,LR
-0.08911133,-0.4296875,-0.206543,-0.3351984,-0.5355878,-0.0005190372,-62.17849,10.62858,-115.1575,-62.36743,10.58721,-115.2048,-0.04882813,-0.9797363,0.3884277,-0.05503809,-0.3936565,0.2440687,-68.35839,3.156432,-68.74165,-68.21925,2.652603,-68.39791,LR
-0.08837891,-0.4318848,-0.2055664,-0.1214581,-0.3065802,0.1063511,-62.18893,10.62087,-115.1528,-62.61131,10.46862,-115.0002,-0.0480957,-0.9799805,0.3859863,-0.05503809,-0.4241909,0.1524656,-68.35905,3.139358,-68.73508,-68.35101,2.61453,-68.52542,LR
-0.08911133,-0.4301758,-0.1987305,0.06174803,-0.2302443,-0.07685494,-62.20719,10.61808,-115.1377,-63.14723,10.65028,-114.3406,-0.04931641,-0.9772949,0.3898926,-0.08557248,-0.3020534,0.04559542,-68.355,3.125801,-68.72522,-68.09348,2.683482,-68.2755,LR
-0.08886719,-0.4353027,-0.2077637,0.0006792545,-0.07757253,0.07581687,-62.21435,10.61336,-115.135,-62.56556,10.43916,-115.0627,-0.05249023,-0.9782715,0.388916,-0.131374,-0.04251146,-0.1223435,-68.35265,3.119748,-68.71947,-68.14137,2.854425,-68.34775,LR
-0.08764648,-0.4353027,-0.2058105,0.06174803,0.2125039,0.07581687,-62.22513,10.61075,-115.1285,-62.802,10.31639,-114.8676,-0.04858398,-0.9824219,0.3898926,-0.2535114,0.07962596,-0.168145,-68.35361,3.111238,-68.71526,-68.20165,2.631787,-68.3774,LR
-0.09130859,-0.4282227,-0.2058105,-0.09092379,0.1819695,-0.07685494,-62.22726,10.61878,-115.1306,-62.26497,10.87863,-115.1758,-0.0456543,-0.9855957,0.385498,-0.1771755,-0.1035802,-0.1834122,-68.35918,3.096893,-68.71684,-68.50224,2.470157,-68.65876,LR
-0.09350586,-0.4282227,-0.2075195,-0.04512215,0.05983204,0.04528236,-62.22354,10.62962,-115.134,-62.00803,11.117,-115.3353,-0.05786133,-0.9807129,0.3850098,-0.02450383,-0.02724427,-0.1528779,-68.3593,3.097424,-68.71674,-68.3474,3.143457,-68.59978,LR
-0.0871582,-0.4304199,-0.2114258,-0.1367252,0.2430381,0.2437558,-62.22157,10.62687,-115.1417,-62.01786,10.3012,-115.7079,-0.05151367,-0.9743652,0.3933105,0.1739695,-0.01197708,0.04559542,-68.34636,3.091422,-68.70261,-67.84848,2.806707,-68.04587,LR
-0.09082031,-0.4335938,-0.2058105,0.06174803,0.1514351,0.03001523,-62.22732,10.63205,-115.1365,-62.57867,10.71509,-114.9186,-0.04516602,-0.9782715,0.3808594,0.0976336,-0.02724427,0.01506107,-68.34908,3.078251,-68.70319,-68.5925,2.463555,-68.74872,LR
-0.0871582,-0.4311523,-0.2004395,0.0006792545,0.2583054,-0.04632068,-62.24512,10.63095,-115.1244,-63.11763,10.38762,-114.4976,-0.05175781,-0.9829102,0.3793945,0.1739695,-0.04251146,0.09139694,-68.35386,3.072309,-68.70618,-68.71578,2.812404,-68.92049,LR
