xa_S1,ya_S1,za_S1,xgb_S1,ybg_S1,zbg_S1,tilt_x_S1,tilt_y_S1,tilt_z_S1,tilt_accx_S1,tilt_accy_S1,tilt_accz_S1,xa_S2,ya_S2,za_S2,xgb_S2,ybg_S2,zbg_S2,tilt_x_S2,tilt_y_S2,tilt_z_S2,tilt_accx_S2,tilt_accy_S2,tilt_accz_S2,Posture
-0.2314453,-0.6774902,0.8369141,0.4945802,0.5834427,-0.7940992,-38.0872,12.13993,-41.52989,-37.96223,12.13089,-40.54513,-0.3603516,-0.2114258,-0.2180176,1.40526,0.3804427,0.350626,-26.89077,48.81783,-117.5132,-26.65644,49.87639,-117.5568,S_LF
-0.2241211,-0.6848145,0.8449707,0.4335115,0.4460382,-0.946771,-38.08056,12.13656,-41.52234,-38.07414,11.64357,-40.45617,-0.3537598,-0.215332,-0.2182617,1.206786,0.578916,0.3353589,-26.88293,48.83167,-117.5138,-27.38561,49.08448,-117.7902,S_LF
-0.2380371,-0.6811523,0.8413086,0.00603056,0.5529084,-0.9315039,-38.07727,12.14999,-41.51794,-37.92044,12.40191,-40.61799,-0.3537598,-0.2175293,-0.2209473,1.02358,0.4109771,0.04528236,-26.8811,48.8364,-117.5232,-27.54388,48.76647,-118.0144,S_LF
-0.230957,-0.6806641,0.8217773,0.1892367,0.6750459,-0.9009695,-38.08432,12.16117,-41.52433,-38.5685,12.21282,-41.17506,-0.359375,-0.2180176,-0.2297363,0.5960991,-0.001236677,0.182687,-26.87677,48.83186,-117.5434,-27.07342,48.61018,-118.659,S_LF
-0.2297363,-0.6818848,0.8310547,0.0976336,0.3239008,-0.5192901,-38.08806,12.16366,-41.51871,-38.33849,12.06315,-40.88673,-0.3557129,-0.2141113,-0.2265625,0.2449541,0.09036642,0.3048244,-26.87396,48.83196,-117.5605,-26.9164,48.7704,-118.6211,S_LF
-0.2355957,-0.6813965,0.8359375,0.2045038,0.1101603,-0.3208168,-38.08562,12.16846,-41.50859,-38.11648,12.32291,-40.77699,-0.3605957,-0.2141113,-0.2319336,0.3976259,0.07509923,-0.0310533,-26.86138,48.83247,-117.5886,-26.53711,48.80222,-118.9448,S_LF
-0.2268066,-0.6779785,0.829834,0.219771,0.09489316,-0.1070763,-38.08551,12.1655,-41.4949,-38.24161,11.95066,-40.74521,-0.3630371,-0.2119141,-0.2070313,0.489229,0.3957099,0.0147481,-26.85472,48.8773,-117.561,-26.88808,50.78357,-116.2206,S_LF
-0.2329102,-0.6787109,0.831543,0.08236647,-0.02724427,0.07612977,-38.08591,12.16665,-41.47972,-38.16587,12.24285,-40.79185,-0.3596191,-0.2104492,-0.2229004,0.1686182,0.3346412,-0.2447939,-26.84407,48.89577,-117.5763,-26.44587,49.55466,-118.1448,S_LF
-0.2307129,-0.6779785,0.8417969,-0.1161069,0.06435877,0.0,-38.08266,12.16524,-41.45791,-37.83826,12.04904,-40.38947,-0.3637695,-0.2133789,-0.2231445,0.1686182,0.3346412,-0.1379237,-26.83618,48.91599,-117.5843,-26.56508,49.67739,-117.8839,S_LF
-0.2336426,-0.6779785,0.8364258,-0.1008396,0.1406947,-0.03074045,-38.08196,12.16873,-41.44134,-37.97847,12.2434,-40.60807,-0.359375,-0.2131348,-0.2165527,0.229687,0.1056336,-0.168458,-26.83467,48.93494,-117.5831,-26.9294,49.78613,-117.3971,S_LF
-0.2263184,-0.6755371,0.8413086,-0.1619084,-0.08831299,-0.07654199,-38.0785,12.16099,-41.41881,-37.78979,11.84641,-40.2587,-0.3635254,-0.2138672,-0.2192383,0.2144198,0.01403052,-0.1226563,-26.82959,48.95416,-117.5825,-26.73839,49.88538,-117.4656,S_LF
-0.2282715,-0.6843262,0.8374023,-0.4214504,-0.2867863,-0.03074045,-38.08819,12.15193,-41.40576,-38.2534,11.91893,-40.74382,-0.3596191,-0.2128906,-0.2194824,0.1991527,0.1667023,-0.260061,-26.82623,48.97006,-117.5889,-26.808,49.62684,-117.7081,S_LF
-0.2263184,-0.6767578,0.8371582,-0.3451145,-0.3325878,0.07612977,-38.09086,12.14146,-41.38542,-37.96793,11.87278,-40.44442,-0.3586426,-0.2121582,-0.2133789,0.4281602,0.2583054,-0.4738016,-26.82237,48.99453,-117.5864,-26.94805,50.00332,-117.1158,S_LF
-0.2263184,-0.6791992,0.8393555,-0.2840458,-0.2104504,0.2288015,-38.09322,12.1323,-41.36358,-38.00011,11.83812,-40.46192,-0.3618164,-0.2160645,-0.220459,0.2754886,0.6247175,-0.6417403,-26.82254,49.01382,-117.5958,-27.0197,49.53079,-117.6156,S_LF
-0.2236328,-0.673584,0.8381348,-0.6046565,-0.1188473,0.0,-38.09624,12.123,-41.34147,-37.82949,11.74889,-40.25811,-0.3659668,-0.2175293,-0.2155762,-0.06038928,0.6705191,-0.4890685,-26.82936,49.04493,-117.5882,-27.11907,50.07612,-116.8559,S_LF
-0.2241211,-0.6794434,0.8586426,-0.6962595,0.01855725,0.3356718,-38.09334,12.11217,-41.30576,-37.43937,11.56789,-39.80233,-0.3603516,-0.2109375,-0.2165527,-0.4268017,0.8537251,-0.6570077,-26.83152,49.07586,-117.5937,-26.64461,50.00592,-117.4125,S_LF
-0.2253418,-0.6779785,0.8364258,-1.169542,0.03382444,0.5646794,-38.10849,12.10681,-41.28195,-38.04887,11.82087,-40.50283,-0.3630371,-0.2097168,-0.2131348,-0.4420686,0.487313,-0.7333436,-26.83101,49.11198,-117.5915,-26.48092,50.52385,-116.9471,S_LF
-0.2365723,-0.6762695,0.8400879,-1.764962,0.2017633,0.1677328,-38.12768,12.11509,-41.26302,-37.77071,12.37244,-40.45863,-0.3669434,-0.2019043,-0.2126465,-0.3351984,0.3651755,-0.7028093,-26.8111,49.1654,-117.5939,-25.45773,51.37111,-116.918,S_LF
-0.2294922,-0.666748,0.8447266,-1.337481,0.4002366,-0.2292137,-38.1412,12.12257,-41.24,-37.29642,12.03808,-39.85354,-0.3666992,-0.1928711,-0.2124023,-0.1214581,-0.1386412,-0.7333436,-26.76609,49.21926,-117.5956,-24.47165,51.96049,-117.1416,S_LF
-0.229248,-0.6516113,0.854248,-1.841298,1.08726,-1.191046,-38.13304,12.137,-41.2119,-36.37988,12.04475,-38.95969,-0.3623047,-0.1950684,-0.2041016,0.5044961,0.9453281,-0.9928856,-26.72647,49.28929,-117.585,-25.13108,52.07229,-116.3822,S_LF
-0.2436523,-0.6577148,0.8483887,-2.680992,1.331534,-1.878069,-38.14098,12.16828,-41.20507,-36.69094,12.78804,-39.58183,-0.355957,-0.1970215,-0.2182617,0.8556412,1.265939,-1.252428,-26.68458,49.33096,-117.6159,-25.26062,50.44206,-118.2124,S_LF
-0.2607422,-0.677002,0.8188477,-3.169542,1.316267,-2.733031,-38.18937,12.22004,-41.25195,-38.231,13.78853,-41.54012,-0.3474121,-0.2104492,-0.2236328,2.290756,1.571282,-1.069221,-26.65706,49.33795,-117.656,-26.99232,48.52595,-118.836,S_LF
-0.2329102,-0.7114258,0.8171387,-2.31458,2.751382,-3.664328,-38.25838,12.25873,-41.33063,-39.93886,12.13239,-42.49281,-0.3427734,-0.2224121,-0.2297363,4.077015,1.540748,-0.1226563,-26.63048,49.31363,-117.6916,-28.32453,46.98948,-119.3465,S_LF
-0.2294922,-0.7224121,0.8122559,-0.4825191,2.583443,-4.061275,-38.3115,12.28995,-41.42413,-40.5597,11.92112,-43.02064,-0.3466797,-0.2280273,-0.2277832,5.099916,0.1514351,2.197954,-26.60385,49.27117,-117.6829,-28.79794,47.08651,-118.7642,S_LF
-0.2231445,-0.7106934,0.8222656,2.265573,1.881153,-3.358985,-38.31084,12.30201,-41.48521,-39.83288,11.60252,-42.17386,-0.357666,-0.2333984,-0.2319336,4.183886,-0.8561985,3.007114,-26.5843,49.2209,-117.6552,-28.70152,47.38696,-118.5048,S_LF
-0.2275391,-0.7041016,0.8310547,3.563282,0.7208474,-2.183412,-38.27733,12.30256,-41.52123,-39.25443,11.7994,-41.68124,-0.3649902,-0.2419434,-0.2290039,2.367092,-1.665359,2.884977,-26.60411,49.16425,-117.6118,-29.31443,47.61251,-117.6078,S_LF
-0.2148438,-0.7011719,0.840332,3.807557,-0.3325878,-0.595626,-38.23485,12.27374,-41.52178,-38.95195,11.1062,-41.11084,-0.3603516,-0.2338867,-0.2272949,0.7029693,-1.146275,2.197954,-26.63769,49.1223,-117.5871,-28.76542,47.85317,-117.8826,S_LF
-0.2067871,-0.6962891,0.8432617,3.135802,-0.02724427,0.9921603,-38.20169,12.24205,-41.49253,-38.72783,10.70778,-40.74009,-0.362793,-0.2294922,-0.2260742,-0.2283282,0.05983204,1.297191,-26.67289,49.10866,-117.5717,-28.22979,48.39642,-117.7726,S_LF
-0.204834,-0.6843262,0.838623,2.158702,-0.01197708,2.228802,-38.17401,12.21135,-41.4384,-38.40416,10.71596,-40.42377,-0.362793,-0.2248535,-0.2199707,-1.037488,1.632351,0.8086412,-26.71314,49.13195,-117.5537,-27.92252,49.0733,-117.2651,S_LF
-0.222168,-0.6794434,0.8374023,1.334275,0.339168,2.793687,-38.15301,12.20494,-41.37827,-38.10494,11.64129,-40.48555,-0.3603516,-0.2226563,-0.2097168,-1.724512,2.120901,0.3048244,-26.7663,49.17399,-117.5249,-28.10363,49.675,-116.3397,S_LF
-0.2282715,-0.6804199,0.847168,0.128168,-0.1341145,3.190634,-38.14394,12.19615,-41.30921,-37.79395,11.86427,-40.27007,-0.3540039,-0.2111816,-0.2141113,-1.877183,2.151435,-0.7944121,-26.7994,49.21516,-117.5351,-27.04197,49.65131,-117.4484,S_LF
-0.2316895,-0.6745605,0.8408203,-0.8794656,-0.5921298,3.160099,-38.14839,12.18613,-41.24271,-37.71976,12.13016,-40.30685,-0.3557129,-0.2099609,-0.2148438,-2.243596,1.937695,-1.267694,-26.8303,49.25382,-117.5514,-26.80514,49.81866,-117.4804,S_LF
-0.2263184,-0.6784668,0.8251953,-1.383282,-0.8364046,3.251702,-38.17262,12.17016,-41.19157,-38.41122,11.96121,-40.91633,-0.3513184,-0.2043457,-0.2077637,-2.396267,1.739221,-1.481435,-26.86082,49.3008,-117.5637,-26.59517,50.3246,-117.076,S_LF
-0.2368164,-0.6767578,0.8256836,-1.673359,-1.080679,3.053229,-38.19844,12.16101,-41.14225,-38.23345,12.507,-40.96995,-0.3461914,-0.2050781,-0.2038574,-2.579473,0.7163206,-1.557771,-26.90237,49.3279,-117.5727,-27.04235,50.12909,-116.8684,S_LF
-0.2402344,-0.6691895,0.8227539,-1.39855,-1.386023,2.564679,-38.21465,12.15268,-41.09836,-37.98099,12.76333,-40.83279,-0.3442383,-0.1975098,-0.2106934,-2.884817,-1.192076,-0.8860154,-26.92542,49.3251,-117.5926,-26.07583,50.00552,-117.963,S_LF
-0.2526855,-0.6628418,0.8325195,-1.276412,-1.844038,2.274603,-38.21392,12.15147,-41.05385,-37.3026,13.35748,-40.43362,-0.3496094,-0.2009277,-0.213623,-2.86955,-2.520321,-0.6112061,-26.95157,49.30172,-117.608,-26.12405,50.00846,-117.9134,S_LF
-0.2453613,-0.6643066,0.8400879,-0.833664,-2.393656,1.908191,-38.2059,12.13133,-41.00732,-37.20019,12.90348,-40.12995,-0.364502,-0.2004395,-0.2141113,-2.228328,-3.482153,-0.7486105,-26.95266,49.28807,-117.6116,-25.3679,51.17862,-117.2357,S_LF
-0.2282715,-0.673584,0.8383789,-0.8031298,-2.744802,1.190634,-38.20925,12.08802,-40.97585,-37.78337,11.98355,-40.30856,-0.3725586,-0.2058105,-0.2116699,-1.403901,-3.054672,0.0,-26.94598,49.2925,-117.5882,-25.65569,51.60509,-116.4418,S_LF
-0.2253418,-0.6738281,0.8361816,-0.6199236,-2.424191,0.4730763,-38.21129,12.05002,-40.95693,-37.8858,11.85081,-40.35478,-0.3710938,-0.2121582,-0.2116699,-0.5031376,-2.016504,-0.9165497,-26.94264,49.29853,-117.5768,-26.40921,51.07597,-116.3438,S_LF
-0.2241211,-0.6777344,0.8444824,-0.1619084,-1.844038,-0.06127481,-38.20545,12.01579,-40.94284,-37.80042,11.69402,-40.20742,-0.3752441,-0.2155762,-0.2072754,-0.1214581,-1.375283,-0.4432673,-26.93951,49.32126,-117.5436,-26.69678,51.44616,-115.5926,S_LF
-0.2224121,-0.6867676,0.8491211,0.5098474,-0.8211374,-0.4124198,-38.19464,11.99363,-40.93744,-38.03975,11.5113,-40.36968,-0.3742676,-0.21875,-0.2185059,0.2602212,-0.550855,0.2895572,-26.93254,49.33553,-117.5235,-26.78234,50.43951,-116.7501,S_LF
-0.2216797,-0.6877441,0.8459473,0.6777863,0.4155039,-0.4429542,-38.18444,11.98973,-40.93526,-38.18269,11.49335,-40.50317,-0.385498,-0.213623,-0.2167969,0.5350306,0.1361679,0.6865039,-26.90216,49.38485,-117.4874,-25.78085,51.70796,-116.1927,S_LF
-0.2336426,-0.6928711,0.8483887,0.0,1.621611,-0.855168,-38.18508,12.013,-40.94344,-38.21611,12.04076,-40.75719,-0.3676758,-0.2060547,-0.2143555,1.176252,0.8537251,1.022382,-26.86351,49.43046,-117.4618,-25.83409,51.03815,-116.957,S_LF
-0.2250977,-0.6943359,0.8435059,1.288473,2.064359,-0.855168,-38.17236,12.03593,-40.95455,-38.49603,11.64202,-40.87066,-0.3591309,-0.2180176,-0.2160645,1.481595,0.0,1.495664,-26.85412,49.43145,-117.4349,-27.4827,49.47983,-117.216,S_LF
-0.2285156,-0.6838379,0.8381348,1.746489,2.384969,-0.7788321,-38.14742,12.06884,-40.96098,-38.20879,11.92854,-40.70389,-0.357666,-0.2209473,-0.2314453,0.7945726,1.617084,1.694137,-26.85439,49.42868,-117.4396,-27.41273,48.18348,-118.8339,S_LF
-0.239502,-0.6806641,0.8286133,1.395344,2.232298,-0.6261602,-38.13089,12.10989,-40.97136,-38.27861,12.59015,-41.04992,-0.3571777,-0.2167969,-0.2231445,0.4739618,1.113267,1.617802,-26.8551,49.43532,-117.4292,-27.23807,48.94267,-118.105,S_LF
-0.2216797,-0.6733398,0.8342285,0.9220611,2.247565,-0.168145,-38.11385,12.13439,-40.96153,-37.9567,11.68287,-40.35649,-0.3544922,-0.2160645,-0.2248535,0.07701516,0.838458,1.159786,-26.86156,49.43219,-117.4323,-27.23471,48.6627,-118.4409,S_LF
-0.2382813,-0.6711426,0.8344727,0.7846565,1.453672,0.4272748,-38.09438,12.16396,-40.9456,-37.71695,12.54454,-40.47935,-0.3527832,-0.2160645,-0.2275391,-0.3199313,0.6094504,0.7933741,-26.87371,49.41948,-117.4483,-27.2343,48.34878,-118.8118,S_LF
-0.232666,-0.6784668,0.8183594,0.4335115,0.9040535,0.7784199,-38.09754,12.18089,-40.93991,-38.57075,12.3457,-41.23299,-0.3535156,-0.2126465,-0.2207031,-0.7779465,0.07509923,0.4727633,-26.88757,49.41366,-117.4557,-27.03275,49.07662,-118.146,S_LF
-0.2399902,-0.6772461,0.8310547,-0.08557248,0.6750459,0.9921603,-38.09793,12.19889,-40.92442,-38.05852,12.61813,-40.84593,-0.3549805,-0.215332,-0.2138672,0.0,0.1819695,0.3048244,-26.89894,49.41748,-117.4472,-27.45588,49.47113,-117.2536,S_LF
-0.2368164,-0.6745605,0.826416,-0.3145801,0.262832,0.9768932,-38.103,12.20911,-40.90882,-38.12011,12.51635,-40.86267,-0.3554688,-0.2075195,-0.2214355,0.0,0.4109771,0.4727633,-26.88814,49.425,-117.4574,-26.35898,49.5114,-118.2791,S_LF
-0.2382813,-0.6784668,0.8381348,-0.558855,-0.1951832,0.6562824,-38.10672,12.21146,-40.89421,-37.90576,12.4606,-40.62856,-0.3532715,-0.2141113,-0.2199707,-0.4573359,0.4567786,-0.07685494,-26.90161,49.42344,-117.47,-27.22558,49.01145,-118.0353,S_LF
-0.2392578,-0.6745605,0.8286133,-0.7115266,-0.5005267,0.5952138,-38.11565,12.21231,-40.88397,-38.03009,12.62176,-40.8196,-0.3554688,-0.2121582,-0.2182617,-0.4268017,0.3804427,-0.1073892,-26.90861,49.42873,-117.4781,-26.95861,49.42697,-117.8001,S_LF
-0.2373047,-0.6779785,0.8408203,-0.4825191,-0.866939,0.4883435,-38.1162,12.20399,-40.86973,-37.81202,12.39127,-40.50713,-0.3620605,-0.2192383,-0.2194824,-0.7626796,-0.5050534,-0.4738016,-26.92916,49.42091,-117.4837,-27.37578,49.40921,-117.4088,S_LF
-0.248291,-0.6845703,0.8415527,-0.574122,-0.7600687,0.6868168,-38.12155,12.20657,-40.85964,-37.96176,12.8916,-40.87006,-0.3649902,-0.2138672,-0.2202148,-1.098557,-0.5966565,-0.3516641,-26.93959,49.42241,-117.4892,-26.64333,49.93447,-117.4998,S_LF
-0.2226563,-0.6889648,0.8417969,-0.4519846,-0.7448015,0.9158244,-38.13281,12.18285,-40.84298,-38.35229,11.56787,-40.69962,-0.3625488,-0.2165527,-0.2197266,-1.266496,-0.8409313,-0.1379237,-26.96059,49.41369,-117.4912,-27.05863,49.60449,-117.4884,S_LF
-0.2290039,-0.6791992,0.8581543,0.0976336,-0.5921298,0.0,-38.11682,12.16686,-40.82352,-37.40533,11.81851,-39.87005,-0.3647461,-0.2121582,-0.2119141,-1.08329,-0.5355878,0.350626,-26.97023,49.42958,-117.4699,-26.69954,50.57575,-116.6664,S_LF
-0.2304688,-0.6818848,0.8527832,0.2961069,-0.1188473,0.0,-38.10372,12.16026,-40.81036,-37.66479,11.91875,-40.16557,-0.361084,-0.2058105,-0.2158203,-0.7016106,-0.3523817,0.259023,-26.96255,49.44474,-117.4655,-26.07015,50.44644,-117.4417,S_LF
-0.2312012,-0.6774902,0.8381348,0.479313,0.1406947,0.793687,-38.09313,12.16129,-40.7925,-37.92668,12.10812,-40.50076,-0.3566895,-0.2028809,-0.215332,-0.5489388,-0.3218473,0.5032978,-26.95009,49.45796,-117.4631,-25.96313,50.32636,-117.6883,S_LF
-0.2321777,-0.6791992,0.8383789,0.738855,0.6139771,0.4272748,-38.08075,12.16936,-40.78216,-37.98086,12.14392,-40.56883,-0.3615723,-0.2087402,-0.2185059,-0.4573359,-0.1844428,0.4727633,-26.94369,49.46834,-117.4594,-26.29384,50.11248,-117.6261,S_LF
-0.2333984,-0.6738281,0.8347168,0.7541222,0.5681756,0.3356718,-38.0653,12.17982,-40.77174,-37.86271,12.27454,-40.50753,-0.3564453,-0.2128906,-0.2167969,-0.4420686,0.05983204,0.3200917,-26.95157,49.47088,-117.4572,-27.03462,49.55447,-117.5724,S_LF
-0.2380371,-0.6711426,0.8374023,0.2350382,0.4765725,0.3356718,-38.05336,12.19289,-40.75924,-37.62924,12.50626,-40.37698,-0.3449707,-0.2028809,-0.2216797,-0.04512215,0.2583054,-0.09212208,-26.93969,49.46408,-117.4891,-26.32449,48.94089,-118.9826,S_LF
-0.236084,-0.6772461,0.8278809,0.02129769,-0.2104504,0.09139694,-38.05581,12.19487,-40.76078,-38.19164,12.44683,-40.90326,-0.3498535,-0.2089844,-0.2138672,0.06174803,-0.2760458,-0.2295268,-26.94011,49.46033,-117.4965,-27.00623,49.47936,-117.6906,S_LF
-0.2302246,-0.6826172,0.8337402,0.2961069,-0.3173206,-0.06127481,-38.05595,12.18752,-40.76304,-38.28067,12.06036,-40.82874,-0.3596191,-0.2128906,-0.2214355,0.0922823,-0.7951298,-0.07685494,-26.935,49.44938,-117.5061,-26.75222,49.49718,-117.9175,S_LF
-0.2338867,-0.6713867,0.8400879,0.1739695,0.06435877,-0.2292137,-38.04414,12.19011,-40.75596,-37.59286,12.26995,-40.24096,-0.359375,-0.2148438,-0.2336426,-0.09092379,0.0,-0.01578617,-26.93005,49.43136,-117.5394,-26.62059,48.5485,-119.1625,S_LF
-0.2397461,-0.6760254,0.8320313,-0.2687786,0.5376411,-0.3971527,-38.04681,12.20633,-40.76196,-37.9804,12.60586,-40.76401,-0.3654785,-0.2160645,-0.2224121,0.0,-0.7493282,-0.04632068,-26.92734,49.42548,-117.5423,-26.79468,49.68779,-117.648,S_LF
-0.2324219,-0.6862793,0.8376465,-0.650458,-0.347855,-0.07654199,-38.06123,12.19937,-40.76505,-38.28995,12.11377,-40.85997,-0.3608398,-0.2207031,-0.2216797,0.2449541,-0.1539084,-0.2753282,-26.93572,49.41626,-117.5486,-27.52618,49.07793,-117.6584,S_LF
-0.2297363,-0.6931152,0.8303223,-0.390916,-0.6531985,0.1524656,-38.08211,12.18561,-40.77408,-38.81764,11.99172,-41.32884,-0.3625488,-0.2133789,-0.2209473,0.672435,0.6247175,-0.4127328,-26.92078,49.43168,-117.5579,-26.68305,49.72778,-117.7091,S_LF
-0.2285156,-0.689209,0.8374023,-0.3298473,-0.08831299,-0.2750153,-38.0943,12.17856,-40.78121,-38.44956,11.89822,-40.9283,-0.3625488,-0.2145996,-0.2272949,0.2449541,0.5636489,-0.01578617,-26.91169,49.43541,-117.5739,-26.6342,49.23154,-118.3472,S_LF
-0.2355957,-0.685791,0.8269043,-0.2077099,0.5681756,-0.1223435,-38.10679,12.19018,-40.79222,-38.57607,12.36945,-41.24824,-0.3613281,-0.2080078,-0.2263184,-0.2130611,0.2430381,0.5490992,-26.89839,49.44442,-117.58,-26.00661,49.61164,-118.4944,S_LF
-0.2375488,-0.6811523,0.8410645,-0.3603816,0.4155039,0.09139694,-38.11142,12.20333,-40.78672,-37.93212,12.37936,-40.61989,-0.359375,-0.2116699,-0.2272949,-0.04512215,0.02929771,0.182687,-26.89035,49.43925,-117.5975,-26.46354,49.16462,-118.589,S_LF
-0.2399902,-0.6572266,0.8444824,0.0976336,0.07962596,0.0,-38.08413,12.21324,-40.76383,-36.81914,12.6406,-39.64252,-0.3632813,-0.2092285,-0.2241211,0.1075497,-0.06230533,-0.09212208,-26.87321,49.44627,-117.6095,-26.11249,49.83601,-118.1293,S_LF
-0.2299805,-0.6801758,0.8425293,-0.1008396,-0.2104504,0.4578092,-38.08217,12.2057,-40.75058,-37.91179,11.99091,-40.43767,-0.3730469,-0.2124023,-0.2141113,0.229687,0.3804427,-0.0005190372,-26.85799,49.48385,-117.5874,-26.28086,51.04588,-116.5087,S_LF
-0.2294922,-0.673584,0.847168,0.00603056,0.3239008,0.3967404,-38.07052,12.20578,-40.73033,-37.5041,11.97157,-40.02963,-0.3447266,-0.206543,-0.2211914,0.1075497,0.6094504,0.1979542,-26.85446,49.47754,-117.6094,-26.76046,48.7205,-118.8288,S_LF
-0.2333984,-0.6777344,0.8430176,-0.1924427,0.07962596,0.3509389,-38.0673,12.20636,-40.71804,-37.76825,12.17641,-40.37371,-0.3547363,-0.2062988,-0.2084961,-0.01458788,0.01403052,0.2437558,-26.85014,49.49649,-117.5923,-26.62776,50.41486,-116.9341,S_LF
-0.2307129,-0.6687012,0.8146973,-0.2535114,0.2322977,0.3662061,-38.07568,12.21259,-40.71763,-38.29959,12.34701,-40.96701,-0.3647461,-0.2102051,-0.220459,0.2449541,0.227771,-0.04632068,-26.83484,49.51236,-117.5939,-26.25315,50.1336,-117.6401,S_LF
-0.2299805,-0.6762695,0.8374023,-0.3451145,0.262832,0.0,-38.07709,12.21316,-40.71257,-37.90952,12.06059,-40.46421,-0.3569336,-0.2084961,-0.21875,0.8861756,0.3651755,0.06054974,-26.81462,49.52243,-117.5988,-26.47518,49.74728,-117.8874,S_LF
-0.229248,-0.6794434,0.8520508,0.03656495,0.2170305,-0.1070763,-38.06696,12.20968,-40.70156,-37.59758,11.87957,-40.08357,-0.345459,-0.2180176,-0.2172852,1.588466,0.838458,0.7170382,-26.81721,49.51028,-117.5965,-28.11163,48.29878,-118.0089,S_LF
-0.2333984,-0.6811523,0.8449707,0.4640458,0.2017633,-0.1528779,-38.05576,12.21118,-40.69849,-37.84819,12.13651,-40.43552,-0.3554688,-0.2155762,-0.2207031,1.206786,0.0,0.4727633,-26.8083,49.50097,-117.5969,-27.25869,49.04473,-117.963,S_LF
-0.2424316,-0.6801758,0.8564453,0.5556489,0.5071069,-0.6261602,-38.03419,12.22438,-40.69642,-37.3856,12.49842,-40.13501,-0.3544922,-0.2148438,-0.2331543,0.7029693,0.7163206,0.6254351,-26.7996,49.4846,-117.6235,-26.85563,48.19152,-119.3567,S_LF
-0.2431641,-0.6765137,0.8276367,0.1892367,0.2933664,-0.3666183,-38.03301,12.24023,-40.70708,-38.10551,12.81553,-40.97768,-0.3574219,-0.2109375,-0.2231445,0.1991527,0.4415114,0.1216183,-26.79254,49.48808,-117.6345,-26.59308,49.33388,-118.2654,S_LF
-0.2353516,-0.6794434,0.8322754,0.128168,0.4918396,-0.07654199,-38.03351,12.24977,-40.71058,-38.15189,12.35576,-40.82562,-0.3623047,-0.2148438,-0.2202148,-0.1061909,-0.123374,0.4880307,-26.7956,49.48989,-117.6272,-26.87272,49.66326,-117.6009,S_LF
-0.2387695,-0.6779785,0.8400879,0.2808397,0.6597786,0.2593359,-38.02542,12.26326,-40.70382,-37.82173,12.47175,-40.5509,-0.3581543,-0.2072754,-0.2175293,-0.09092379,0.1209008,0.5949008,-26.78741,49.50197,-117.6205,-26.31907,50.00539,-117.7298,S_LF
-0.2348633,-0.6745605,0.8337402,0.2350382,0.3849695,0.4730763,-38.01966,12.2707,-40.69453,-37.91032,12.35256,-40.58716,-0.3608398,-0.208252,-0.2197266,0.1075497,0.1514351,0.1674199,-26.77499,49.5141,-117.6219,-26.24021,50.00422,-117.8072,S_LF
-0.2351074,-0.671875,0.8361816,0.1892367,0.4460382,0.5494123,-38.01112,12.27866,-40.68125,-37.72231,12.3626,-40.40701,-0.3669434,-0.2072754,-0.2219238,0.6419008,0.4720459,0.0,-26.74599,49.53856,-117.6249,-25.7967,50.39032,-117.7707,S_LF
-0.2224121,-0.6657715,0.8083496,-0.5893893,0.3849695,0.5036107,-38.02863,12.27856,-40.67962,-38.45337,11.99045,-40.96978,-0.3676758,-0.2133789,-0.21875,0.8709083,0.0,-0.8860154,-26.72842,49.55317,-117.63,-26.50768,50.26915,-117.2293,S_LF
-0.2243652,-0.6704102,0.8254395,-1.61229,0.2475649,-0.2750153,-38.05351,12.27491,-40.68164,-38.08754,11.91411,-40.57882,-0.3540039,-0.2131348,-0.2231445,-0.1214581,0.8231909,-0.6264734,-26.73534,49.55184,-117.6534,-26.99094,48.92207,-118.37,S_LF
-0.2312012,-0.6831055,0.8156738,-1.139008,0.2322977,-0.3513512,-38.08525,12.2778,-40.70245,-38.85949,12.2602,-41.48121,-0.3552246,-0.208252,-0.2182617,-0.5947404,0.9300611,-0.1379237,-26.74022,49.56769,-117.6609,-26.54215,49.66049,-117.9262,S_LF
-0.2319336,-0.6745605,0.8271484,-0.8031298,0.4613054,-0.1834122,-38.09816,12.28422,-40.70658,-38.14041,12.25985,-40.77397,-0.3579102,-0.2109375,-0.2167969,-0.8695498,0.09036642,0.07581687,-26.75239,49.57353,-117.6578,-26.75232,49.79769,-117.5575,S_LF
-0.2370605,-0.666748,0.8308105,-0.6809924,0.690313,0.04559542,-38.09871,12.29893,-40.70027,-37.65831,12.54593,-40.42248,-0.3579102,-0.2111816,-0.2216797,-0.6863437,0.1056336,0.1979542,-26.76022,49.57271,-117.6632,-26.63918,49.45513,-118.0771,S_LF
-0.2287598,-0.6687012,0.8195801,-0.8489313,0.1559618,0.4883435,-38.11246,12.29931,-40.69453,-38.1627,12.20322,-40.77215,-0.359375,-0.2084961,-0.2229004,-0.7321453,-0.2149771,-0.3363969,-26.76067,49.57128,-117.6792,-26.24459,49.65911,-118.2132,S_LF
-0.2399902,-0.670166,0.8354492,-0.742061,0.07962596,0.3814733,-38.11376,12.30709,-40.68369,-37.63161,12.62993,-40.43252,-0.3569336,-0.2092285,-0.222168,-0.7779465,-0.9478015,0.182687,-26.76527,49.55624,-117.6878,-26.45748,49.46934,-118.2349,S_LF
-0.2402344,-0.6745605,0.8591309,-0.4214504,-0.1188473,0.3967404,-38.09917,12.30739,-40.66077,-37.09513,12.40374,-39.81027,-0.3591309,-0.2121582,-0.2199707,-0.5336719,-0.5966565,0.5185649,-26.77256,49.54841,-117.6825,-26.73744,49.60306,-117.8054,S_LF
-0.2429199,-0.6826172,0.8566895,-0.3145801,-0.3173206,0.5799466,-38.09127,12.30666,-40.6435,-37.47325,12.50386,-40.22316,-0.3605957,-0.2148438,-0.2192383,-0.3046641,-0.4592519,0.1216183,-26.7809,49.54302,-117.6788,-26.98033,49.59381,-117.5786,S_LF
-0.2402344,-0.6835938,0.8837891,-0.2840458,-0.4241909,0.4120076,-38.06809,12.29739,-40.61191,-36.73756,12.13449,-39.34674,-0.362793,-0.2092285,-0.2062988,-0.5336719,-0.4592519,0.4116948,-26.78564,49.56532,-117.6436,-26.62601,50.99565,-116.2245,S_LF
-0.2373047,-0.6879883,0.871582,0.5403817,-0.3936565,0.2440687,-38.04467,12.28692,-40.59332,-37.294,12.06329,-39.86164,-0.3571777,-0.2114258,-0.2116699,0.0,-0.3981832,0.8086412,-26.78966,49.56917,-117.6193,-26.98658,50.05029,-117.0203,S_LF
-0.2387695,-0.6850586,0.8676758,1.227405,0.01855725,0.1982672,-38.01133,12.28521,-40.57652,-37.27971,12.18754,-39.89949,-0.3603516,-0.2075195,-0.2194824,-0.1061909,-0.1081069,0.5949008,-26.77912,49.57689,-117.6152,-26.18947,50.02953,-117.8257,S_LF
-0.2375488,-0.6867676,0.8659668,2.021298,0.2780993,0.04559542,-37.97155,12.28592,-40.56441,-37.40914,12.13006,-40.00225,-0.3518066,-0.2102051,-0.2163086,0.2449541,0.3346412,0.5643663,-26.77944,49.57811,-117.6111,-26.97557,49.39185,-117.8256,S_LF
-0.2399902,-0.6853027,0.8496094,1.670153,0.2017633,-0.1834122,-37.94397,12.29117,-40.56619,-37.81989,12.3999,-40.5185,-0.3513184,-0.2119141,-0.2150879,0.3518243,0.5941832,0.8086412,-26.78349,49.58115,-117.6011,-27.22312,49.32224,-117.6654,S_LF
-0.2412109,-0.6862793,0.8288574,1.563282,-0.1493817,-0.4429542,-37.93333,12.29598,-40.58637,-38.48477,12.63422,-41.27135,-0.3620605,-0.2087402,-0.2160645,0.7029693,0.1667023,0.4116948,-26.76427,49.59828,-117.5898,-26.33906,50.31513,-117.3387,S_LF
-0.2346191,-0.6813965,0.8361816,1.181603,-0.1951832,-0.504023,-37.91965,12.29261,-40.59718,-38.11742,12.27129,-40.75619,-0.3601074,-0.2133789,-0.2185059,0.9930458,0.3041069,-0.0005190372,-26.7517,49.60476,-117.5894,-26.86583,49.69844,-117.5654,S_LF
-0.2375488,-0.6789551,0.8427734,0.3724428,-0.2715191,-0.3055496,-37.91158,12.29037,-40.59934,-37.79022,12.37993,-40.48094,-0.3654785,-0.2104492,-0.2121582,0.3670917,0.1667023,0.06054974,-26.74109,49.62953,-117.5708,-26.47303,50.72908,-116.705,S_LF
-0.2351074,-0.6899414,0.829834,0.6625191,-0.2715191,-0.09180916,-37.91741,12.28664,-40.61452,-38.65755,12.2902,-41.29503,-0.3632813,-0.2141113,-0.2116699,0.1838853,-0.3981832,0.1368854,-26.74331,49.63806,-117.5505,-26.98721,50.34897,-116.655,S_LF
-0.2189941,-0.6848145,0.8300781,0.6930535,-0.4852595,-0.1223435,-37.92047,12.26383,-40.62198,-38.57956,11.50298,-40.8977,-0.3608398,-0.2133789,-0.2224121,-0.1061909,-0.4134504,0.5643663,-26.74442,49.62917,-117.5502,-26.72054,49.49718,-117.9483,S_LF
-0.2258301,-0.6757813,0.8425293,0.5098474,-0.2867863,0.01506107,-37.90989,12.25054,-40.61374,-37.76633,11.80982,-40.22078,-0.3608398,-0.2126465,-0.2028809,0.1838853,-0.06230533,0.2742901,-26.75078,49.65247,-117.5123,-27.18883,50.83725,-115.8452,S_LF
-0.2329102,-0.6767578,0.8334961,0.3724428,-0.07304579,-0.1376107,-37.90709,12.24932,-40.6164,-38.02517,12.23974,-40.65237,-0.3598633,-0.2214355,-0.2141113,0.229687,0.3499084,0.259023,-26.7698,49.65334,-117.4957,-27.87037,49.43843,-116.8728,S_LF
-0.2495117,-0.6755371,0.8310547,0.3266413,-0.04251146,-0.1223435,-37.90219,12.266,-40.62408,-37.90201,13.11453,-40.91029,-0.3598633,-0.2141113,-0.2197266,0.1075497,0.4415114,0.06054974,-26.77126,49.65778,-117.4987,-26.92166,49.5513,-117.6873,S_LF
-0.2329102,-0.6789551,0.8293457,0.219771,-0.2867863,0.06086259,-37.9058,12.26166,-40.62822,-38.2442,12.25998,-40.87597,-0.3515625,-0.2104492,-0.2211914,-0.06038928,0.1361679,0.04528236,-26.77412,49.64718,-117.5153,-26.86997,49.02768,-118.3618,S_LF
-0.236084,-0.6850586,0.8310547,0.06709921,-0.439458,0.03032825,-37.91495,12.25725,-40.63692,-38.41264,12.36383,-41.08519,-0.362793,-0.2141113,-0.2155762,-0.2130611,-0.9172672,0.6407022,-26.7798,49.64183,-117.4975,-26.90149,50.05405,-117.1005,S_LF
-0.2319336,-0.6791992,0.8349609,0.3724428,-0.866939,0.0,-37.91294,12.24257,-40.63781,-38.08842,12.16055,-40.68139,-0.3598633,-0.2114258,-0.2158203,-0.1214581,-0.9172672,0.07581687,-26.78082,49.63521,-117.4933,-26.74134,49.98473,-117.343,S_LF
-0.2285156,-0.6789551,0.8583984,0.2045038,-0.5768626,0.2288015,-37.89952,12.22511,-40.61863,-37.39197,11.7936,-39.8468,-0.3671875,-0.2145996,-0.213623,-0.1367252,-0.5355878,0.182687,-26.78311,49.64494,-117.4744,-26.80149,50.48942,-116.6698,S_LF
-0.232666,-0.6728516,0.8432617,-0.07030535,-0.439458,0.01506107,-37.89382,12.21799,-40.60952,-37.56658,12.17058,-40.17349,-0.3537598,-0.2111816,-0.2121582,0.0922823,-0.06230533,0.1979542,-26.7883,49.64638,-117.4669,-27.11037,49.7625,-117.2461,S_LF
-0.246582,-0.6713867,0.8532715,-0.02450383,-0.179916,-0.07654199,-37.87803,12.22689,-40.59787,-37.08591,12.79538,-39.97069,-0.364502,-0.2104492,-0.213623,0.03121376,-0.1081069,-0.2295268,-26.78165,49.66299,-117.4591,-26.47873,50.55615,-116.91,S_LF
-0.2280273,-0.6716309,0.8427734,-0.3298473,-0.3173206,0.1371985,-37.87671,12.21663,-40.58558,-37.56996,11.94725,-40.08422,-0.3666992,-0.2089844,-0.2114258,-0.02985501,-0.2455115,-0.3058627,-26.77198,49.68549,-117.4466,-26.27655,50.96862,-116.6075,S_LF
-0.229248,-0.6782227,0.8408203,-0.3451145,-0.179916,-0.06127481,-37.88206,12.20928,-40.58303,-37.89054,11.98129,-40.41285,-0.3586426,-0.2097168,-0.2177734,0.3823588,-0.001236677,-0.4432673,-26.76206,49.68915,-117.4574,-26.5569,49.86918,-117.6625,S_LF
-0.2319336,-0.6833496,0.848877,-0.4367175,-0.05777865,-0.5498245,-37.88745,12.20455,-40.58681,-37.83081,12.01507,-40.36813,-0.3620605,-0.206543,-0.2216797,0.8556412,0.4720459,-0.3974657,-26.73312,49.70382,-117.4742,-25.94367,50.07592,-118.005,S_LF
-0.2224121,-0.6821289,0.8449707,-0.574122,0.1864962,-0.6566947,-37.89772,12.19469,-40.59143,-37.97878,11.57467,-40.3349,-0.3632813,-0.2133789,-0.2207031,0.0,0.7621221,-0.4890685,-26.73158,49.71697,-117.4849,-26.65607,49.80096,-117.6477,S_LF
-0.2363281,-0.6765137,0.8374023,-0.1771755,0.3086336,-0.8704351,-37.89968,12.20297,-40.6035,-37.86515,12.38162,-40.55515,-0.3586426,-0.2119141,-0.2160645,0.0,0.5331145,0.0,-26.73384,49.72676,-117.4835,-26.84515,49.84064,-117.4145,S_LF
-0.2316895,-0.6787109,0.8325195,-0.1161069,0.3849695,-0.6414275,-37.9062,12.20763,-40.61509,-38.14615,12.17228,-40.74298,-0.3588867,-0.2106934,-0.2150879,0.0,0.578916,-0.04632068,-26.73373,49.74083,-117.4811,-26.72816,50.00495,-117.3316,S_LF
-0.2341309,-0.6748047,0.8398438,-0.1008396,0.6597786,-0.6872291,-37.90434,12.2184,-40.62049,-37.73898,12.26085,-40.38041,-0.3579102,-0.2148438,-0.2158203,0.8098397,0.6094504,-0.0310533,-26.73205,49.74652,-117.4787,-27.20533,49.60735,-117.3393,S_LF
-0.229248,-0.6779785,0.8388672,-0.1619084,0.7513816,-0.4887558,-37.90728,12.22432,-40.62418,-37.94065,11.99934,-40.46949,-0.359375,-0.2138672,-0.2143555,0.7182367,0.7315878,0.06054974,-26.72828,49.76002,-117.471,-27.07141,49.88345,-117.1383,S_LF
-0.2250977,-0.6826172,0.8415527,-0.1161069,0.3239008,-0.168145,-37.91249,12.21931,-40.62418,-38.08201,11.73528,-40.50076,-0.3608398,-0.2092285,-0.2163086,0.7640381,0.838458,-0.09212208,-26.71133,49.78058,-117.4711,-26.44232,50.17176,-117.4107,S_LF
-0.2346191,-0.671875,0.8395996,0.08236647,0.1406947,-0.2139466,-37.90546,12.22315,-40.62055,-37.62169,12.30806,-40.28528,-0.3596191,-0.215332,-0.2126465,0.7640381,0.4720459,-0.07685494,-26.71122,49.79027,-117.4608,-27.26718,49.91818,-116.8995,S_LF
-0.229248,-0.6809082,0.8305664,0.2045038,0.171229,-0.2139466,-37.9107,12.22219,-40.6285,-38.31797,12.04911,-40.86076,-0.3569336,-0.2119141,-0.2229004,0.7029693,0.6094504,-0.04632068,-26.69641,49.7926,-117.4773,-26.72886,49.24956,-118.2348,S_LF
-0.2307129,-0.6828613,0.8447266,0.128168,0.3849695,-0.1376107,-37.90868,12.22587,-40.62836,-37.94778,11.99146,-40.47326,-0.3564453,-0.215332,-0.213623,0.229687,0.1361679,0.701771,-26.70695,49.79082,-117.4606,-27.39211,49.60366,-117.1567,S_LF
-0.2321777,-0.6750488,0.8417969,0.3266413,-0.179916,0.01506107,-37.89982,12.22157,-40.62155,-37.70579,12.1433,-40.29863,-0.3605957,-0.2207031,-0.2163086,0.06174803,-0.07757253,0.6559694,-26.72577,49.78193,-117.4437,-27.69324,49.40351,-117.0961,S_LF
-0.2331543,-0.6757813,0.8393555,0.5098474,-0.1341145,0.0,-37.89038,12.21935,-40.61753,-37.8024,12.2087,-40.42073,-0.3618164,-0.2092285,-0.2175293,-0.1825268,0.1056336,0.182687,-26.72102,49.79106,-117.4422,-26.36296,50.16577,-117.4951,S_LF
-0.2294922,-0.6796875,0.8383789,0.1892367,-0.1035802,0.2593359,-37.89044,12.21362,-40.61268,-38.02362,12.00423,-40.55299,-0.3596191,-0.2128906,-0.2209473,-0.2130611,0.6247175,0.5032978,-26.72505,49.79501,-117.4432,-26.76618,49.5296,-117.8652,S_LF
-0.2399902,-0.6791992,0.8400879,0.1129008,0.003290057,0.0,-37.8882,12.2199,-40.61267,-37.86103,12.52489,-40.61217,-0.3579102,-0.213623,-0.2199707,-0.2588627,0.487313,0.3353589,-26.73343,49.79453,-117.4459,-26.95339,49.41257,-117.8225,S_LF
-0.2336426,-0.6745605,0.8354492,0.1434351,-0.1493817,0.2440687,-37.88568,12.21881,-40.60709,-37.86818,12.27556,-40.51333,-0.3618164,-0.2121582,-0.217041,-0.4878702,0.4262443,0.6712368,-26.73935,49.80465,-117.435,-26.69498,50.00843,-117.36,S_LF
-0.2380371,-0.6765137,0.8347168,-0.1619084,-0.3325878,0.2898702,-37.88885,12.21971,-40.60434,-37.93281,12.49183,-40.66842,-0.354248,-0.2128906,-0.2167969,-0.7168779,-0.1691756,0.5643663,-26.75789,49.79366,-117.4315,-27.13929,49.37947,-117.6795,S_LF
-0.2280273,-0.6809082,0.8322754,0.1434351,-0.347855,0.4120076,-37.89447,12.20965,-40.60194,-38.27517,11.97249,-40.78716,-0.3652344,-0.2106934,-0.2177734,-0.4573359,0.1056336,-0.0005190372,-26.75615,49.80563,-117.4292,-26.35748,50.31953,-117.3155,S_LF
-0.2333984,-0.682373,0.831543,0.02129769,-0.3325878,0.4730763,-37.90252,12.20574,-40.6021,-38.31151,12.24209,-40.93462,-0.364502,-0.2119141,-0.220459,0.2144198,0.5483816,0.2284887,-26.74685,49.81769,-117.4294,-26.44885,50.00552,-117.604,S_LF
-0.2351074,-0.6765137,0.8439941,0.2350382,-0.5615954,0.3356718,-37.89449,12.19863,-40.59148,-37.67397,12.26291,-40.31751,-0.3723145,-0.2114258,-0.2126465,0.229687,0.6247175,0.182687,-26.73351,49.85355,-117.4063,-26.24827,51.1517,-116.4115,S_LF
-0.239502,-0.684082,0.8337402,0.4640458,-0.6531985,-0.01547329,-37.89497,12.19547,-40.59991,-38.25949,12.52084,-41.00144,-0.3605957,-0.2155762,-0.2211914,0.1380839,0.319374,0.2284887,-26.73701,49.84923,-117.4104,-27.00337,49.41842,-117.7665,S_LF
-0.2355957,-0.6760254,0.8391113,0.2045038,-0.6531985,-0.1834122,-37.89024,12.18926,-40.59982,-37.79901,12.33306,-40.46971,-0.3608398,-0.2097168,-0.2180176,0.0006792545,-0.2302443,0.7475727,-26.73122,49.84937,-117.4028,-26.44777,50.02514,-117.5815,S_LF
-0.2382813,-0.6784668,0.828125,0.2808397,-0.5157939,-0.1070763,-37.8926,12.18885,-40.60878,-38.21464,12.54809,-40.96906,-0.3745117,-0.2143555,-0.2192383,-0.1519923,-0.7798626,0.5490992,-26.72442,49.85553,-117.3859,-26.28698,50.69247,-116.9335,S_LF
-0.2270508,-0.6787109,0.8364258,0.3724428,-0.3325878,-0.1223435,-37.89093,12.17857,-40.60932,-38.06458,11.90302,-40.55172,-0.3635254,-0.215332,-0.2121582,0.03121376,-0.5966565,0.5338321,-26.73135,49.85475,-117.3636,-27.09391,50.25478,-116.6627,S_LF
-0.2285156,-0.6796875,0.8432617,0.2045038,-0.1951832,-0.07654199,-37.88773,12.17041,-40.60578,-37.88159,11.91391,-40.37641,-0.362793,-0.2119141,-0.2138672,0.1686182,0.05983204,-0.1531909,-26.72847,49.86476,-117.3581,-26.71121,50.31127,-116.9772,S_LF
-0.2268066,-0.6801758,0.8435059,-0.3145801,-0.179916,-0.336084,-37.89277,12.1608,-40.60591,-37.9082,11.82206,-40.36509,-0.3662109,-0.2124023,-0.2211914,0.4128931,0.6857863,-0.1379237,-26.71589,49.8787,-117.3647,-26.40291,50.05765,-117.5861,S_LF
-0.2319336,-0.6716309,0.8359375,-0.05503809,0.4460382,-0.3971527,-37.89066,12.16823,-40.60693,-37.74702,12.20454,-40.36466,-0.3581543,-0.2185059,-0.2160645,0.32129,0.9453281,0.3200917,-26.72881,49.88151,-117.358,-27.58216,49.37076,-117.2483,S_LF
-0.2341309,-0.6762695,0.8444824,-0.1466411,0.858252,-0.4887558,-37.88801,12.18086,-40.60708,-37.65736,12.211,-40.27943,-0.354248,-0.2067871,-0.2138672,0.1686182,0.8231909,0.4269619,-26.7228,49.89552,-117.3553,-26.55252,49.97721,-117.5371,S_LF
-0.2385254,-0.6772461,0.8352051,-0.03977096,0.9956565,-0.2292137,-37.8897,12.20202,-40.61202,-37.94356,12.50717,-40.68552,-0.3625488,-0.2097168,-0.222168,-0.1061909,0.6552519,0.6407022,-26.71486,49.90419,-117.3583,-26.25307,49.87956,-117.9434,S_LF
-0.2382813,-0.675293,0.8422852,-0.07030535,0.8277176,-0.2902825,-37.88585,12.21827,-40.61118,-37.64884,12.44672,-40.37074,-0.3564453,-0.213623,-0.2182617,0.06174803,0.2430381,0.3200917,-26.72109,49.89788,-117.3606,-27.07192,49.40967,-117.7096,S_LF
-0.2365723,-0.6723633,0.8359375,-0.131374,0.5376411,-0.3208168,-37.88481,12.23053,-40.61272,-37.73727,12.43594,-40.45282,-0.3620605,-0.2128906,-0.2167969,-0.1061909,-0.1997099,0.4574962,-26.72363,49.8969,-117.3527,-26.76973,49.99604,-117.3013,S_LF
-0.2390137,-0.6750488,0.8491211,-0.1466411,0.3544351,-0.2750153,-37.87778,12.23965,-40.60737,-37.42532,12.42592,-40.14289,-0.3596191,-0.2109375,-0.2209473,-0.4115343,-0.7187939,0.1216183,-26.72589,49.88219,-117.3624,-26.55443,49.65448,-117.9215,S_LF
-0.2302246,-0.6772461,0.8447266,-0.1619084,0.2322977,-0.4734885,-37.8769,12.23813,-40.60687,-37.72268,12.00461,-40.25767,-0.3745117,-0.2099609,-0.2180176,-0.1519923,-0.3065802,0.2437558,-26.71047,49.90144,-117.3502,-25.85059,51.05488,-116.9207,S_LF
-0.2263184,-0.6765137,0.8391113,-0.1619084,0.3544351,-0.4734885,-37.87953,12.2354,-40.60862,-37.89757,11.85816,-40.36934,-0.3640137,-0.2070313,-0.2175293,0.0922823,-0.4592519,0.1674199,-26.69535,49.90622,-117.3498,-26.02231,50.47829,-117.4496,S_LF
-0.2353516,-0.6760254,0.8334961,-0.2077099,0.4460382,-0.3666183,-37.88447,12.24463,-40.61496,-37.97388,12.36926,-40.65659,-0.3569336,-0.2106934,-0.2199707,0.2449541,-0.4134504,0.2284887,-26.69146,49.89249,-117.3585,-26.68055,49.52358,-117.9556,S_LF
-0.2307129,-0.6730957,0.8459473,-0.009236574,0.339168,-0.4887558,-37.87714,12.24566,-40.6112,-37.51109,12.047,-40.06765,-0.3579102,-0.2131348,-0.2172852,0.32129,-0.3065802,0.4116948,-26.69246,49.88258,-117.3562,-26.9777,49.62214,-117.5471,S_LF
-0.2314453,-0.6784668,0.8393555,-0.02450383,0.4918396,-0.4887558,-37.87849,12.25005,-40.61615,-37.92705,12.10349,-40.4992,-0.3601074,-0.2097168,-0.2099609,0.2907557,-0.1844428,0.3048244,-26.68876,49.89257,-117.3397,-26.70712,50.50878,-116.7407,S_LF
-0.2365723,-0.6774902,0.8310547,-0.3451145,0.0,-0.6719618,-37.88764,12.25389,-40.62925,-38.09885,12.44233,-40.81025,-0.3569336,-0.2124023,-0.2199707,0.672435,0.2583054,-0.1226563,-26.68243,49.88679,-117.3529,-26.8667,49.41373,-117.9058,S_LF
-0.2255859,-0.6809082,0.8405762,-0.4519846,0.9803894,-0.855168,-37.89729,12.25882,-40.63875,-38.03838,11.77942,-40.47572,-0.3566895,-0.2102051,-0.2175293,0.9167099,0.1361679,0.2742901,-26.67038,49.88491,-117.3564,-26.70874,49.69967,-117.7177,S_LF
-0.2363281,-0.6704102,0.8432617,-0.3145801,0.7666489,-0.9009695,-37.89236,12.27162,-40.64093,-37.43497,12.37321,-40.12991,-0.359375,-0.2080078,-0.2165527,0.4128931,-0.2607787,0.3200917,-26.65831,49.88578,-117.3554,-26.37015,50.12006,-117.543,S_LF
-0.2358398,-0.6691895,0.8395996,-0.009236574,0.8887863,-0.6414275,-37.88466,12.28703,-40.64156,-37.50034,12.38884,-40.20059,-0.3620605,-0.2099609,-0.2150879,-0.09092379,-0.6119237,0.5796337,-26.65646,49.88509,-117.3438,-26.49926,50.3011,-117.1989,S_LF
-0.2321777,-0.6787109,0.8474121,0.08236647,0.6750459,-0.5803587,-37.87944,12.29263,-40.64221,-37.68441,12.07087,-40.24754,-0.362793,-0.2106934,-0.2060547,0.0922823,-0.4439847,0.7628398,-26.65793,49.89955,-117.3096,-26.79316,50.91239,-116.1579,S_LF
-0.2304688,-0.684082,0.8415527,-0.05503809,0.9803894,-0.855168,-37.88455,12.30018,-40.65354,-38.09686,11.99734,-40.62211,-0.3637695,-0.2111816,-0.213623,0.04648089,-0.2607787,0.5185649,-26.65594,49.90675,-117.2943,-26.59256,50.45138,-116.9246,S_LF
-0.2314453,-0.677002,0.8449707,-0.3451145,0.7513816,-0.763565,-37.88583,12.30654,-40.65681,-37.69503,12.06599,-40.25594,-0.364502,-0.2070313,-0.2158203,0.2754886,-0.07757253,0.3200917,-26.6397,49.92011,-117.2885,-26.04652,50.63188,-117.2415,S_LF
-0.2307129,-0.6743164,0.8452148,-0.4214504,0.9193206,-0.7024961,-37.88598,12.31482,-40.65676,-37.58357,12.04497,-40.13789,-0.3598633,-0.2094727,-0.2160645,0.01594663,0.1209008,0.1368854,-26.6371,49.9254,-117.2892,-26.5214,50.09589,-117.4248,S_LF
-0.2312012,-0.6760254,0.8474121,-0.3298473,1.19413,-0.9162367,-37.88476,12.32687,-40.65979,-37.58269,12.03963,-40.13482,-0.3591309,-0.2106934,-0.2185059,0.07701516,0.319374,0.3200917,-26.63562,49.92749,-117.2925,-26.61988,49.79527,-117.6898,S_LF
-0.2299805,-0.6787109,0.8378906,-0.7115266,1.316267,0.0,-37.89742,12.34048,-40.65738,-37.99459,12.03979,-40.53914,-0.3618164,-0.2138672,-0.2148438,0.07701516,0.3957099,0.442229,-26.64061,49.9356,-117.2817,-26.94172,50.04229,-117.0748,S_LF
-0.234375,-0.6818848,0.8376465,-0.8489313,1.423137,-0.7940992,-37.91384,12.35945,-40.67034,-38.0943,12.24301,-40.72162,-0.3535156,-0.217041,-0.2260742,0.3670917,0.7163206,0.091084,-26.64975,49.91557,-117.3066,-27.34934,48.44271,-118.5898,S_LF
-0.2399902,-0.6870117,0.8288574,-0.9405342,1.010924,0.0,-37.93898,12.37747,-40.68258,-38.52555,12.56703,-41.28259,-0.3583984,-0.2099609,-0.2182617,0.2449541,0.5331145,0.06054974,-26.64478,49.92112,-117.314,-26.5811,49.80131,-117.7202,S_LF
-0.2373047,-0.6848145,0.8320313,-0.4825191,0.5529084,-0.6872291,-37.95452,12.38643,-40.7002,-38.36162,12.41909,-41.05844,-0.3566895,-0.2145996,-0.2180176,-0.06038928,-0.1997099,0.2132213,-26.65618,49.9076,-117.3176,-27.17346,49.38183,-117.6429,S_LF
-0.2307129,-0.675293,0.8388672,-0.2077099,-0.2562519,-0.3513512,-37.95464,12.37703,-40.69876,-37.81809,12.09212,-40.38752,-0.3603516,-0.2060547,-0.213623,-0.5947404,-0.642458,0.04528236,-26.65563,49.91047,-117.3153,-26.19163,50.52326,-117.2315,S_LF
-0.236084,-0.670166,0.8398438,-0.4367175,-0.699,-0.2292137,-37.95259,12.36706,-40.6928,-37.53114,12.39232,-40.23225,-0.3630371,-0.2104492,-0.2175293,-0.5794735,-0.4134504,-0.1226563,-26.65982,49.90981,-117.3188,-26.43921,50.18167,-117.4018,S_LF
-0.2263184,-0.6774902,0.8361816,-0.4061831,-0.5615954,0.06086259,-37.96007,12.34898,-40.68815,-38.02823,11.87598,-40.50497,-0.3557129,-0.2087402,-0.2255859,-0.3657329,-0.031771,-0.5501375,-26.65887,49.89462,-117.3535,-26.36159,49.17206,-118.6768,S_LF
-0.2297363,-0.6687012,0.8417969,-0.3451145,-0.2867863,0.07612977,-37.9549,12.33931,-40.67392,-37.46464,12.06232,-40.02846,-0.3583984,-0.2070313,-0.2216797,-0.3351984,-0.123374,-0.168458,-26.6539,49.89007,-117.3724,-26.16375,49.75795,-118.1731,S_LF
-0.2353516,-0.6782227,0.8400879,-0.2840458,-0.2104504,-0.07654199,-37.9572,12.33537,-40.67188,-37.86124,12.297,-40.51555,-0.3571777,-0.2111816,-0.2219238,-0.2741299,-0.1081069,0.0,-26.65817,49.87829,-117.3877,-26.66613,49.3808,-118.1395,S_LF
-0.2346191,-0.6845703,0.829834,-0.6046565,-0.4089237,-0.3208168,-37.97582,12.32872,-40.68496,-38.44361,12.30332,-41.09015,-0.3596191,-0.2106934,-0.2126465,-0.04512215,-0.07757253,-0.5501375,-26.66092,49.8841,-117.3887,-26.76228,50.22575,-117.0304,S_LF
-0.2304688,-0.6791992,0.8378906,-0.8489313,-0.5463283,-0.4582213,-37.98899,12.31534,-40.68927,-38.01044,12.06127,-40.56359,-0.3618164,-0.2138672,-0.2233887,0.03121376,-0.4439847,-0.2905953,-26.66125,49.86945,-117.405,-26.70031,49.47808,-117.9907,S_LF
-0.232666,-0.6750488,0.8388672,0.02129769,-0.4699924,-0.5345572,-37.98473,12.30599,-40.69141,-37.79147,12.19312,-40.40348,-0.3598633,-0.2070313,-0.2116699,-0.5794735,0.0,0.5032978,-26.66407,49.88313,-117.3898,-26.37607,50.55349,-117.0144,S_LF
-0.2341309,-0.6745605,0.8415527,-0.07030535,-0.05777865,-0.5498245,-37.9796,12.30398,-40.69194,-37.67665,12.24784,-40.3138,-0.3583984,-0.2058105,-0.2167969,-0.4878702,0.0,0.259023,-26.6613,49.88886,-117.3918,-26.16717,50.16951,-117.68,S_LF
-0.2319336,-0.6801758,0.8244629,-0.3451145,0.262832,-0.5650916,-37.99419,12.30663,-40.70794,-38.45543,12.24334,-41.0766,-0.3620605,-0.2138672,-0.2141113,-0.1061909,-0.8256641,0.0,-26.66854,49.88195,-117.3836,-26.9507,50.1096,-116.9839,S_LF
-0.2365723,-0.6811523,0.8481445,-0.7573281,-0.2104504,-0.9162367,-37.99919,12.303,-40.71375,-37.7248,12.26946,-40.37012,-0.361084,-0.2141113,-0.2148438,0.6419008,0.01403052,-0.2295268,-26.66579,49.8839,-117.3814,-27.00282,49.96909,-117.1027,S_LF
-0.2285156,-0.6818848,0.8408203,-0.6199236,-0.5463283,-0.9773054,-38.00925,12.28729,-40.72466,-38.04632,11.91943,-40.54049,-0.3571777,-0.2160645,-0.2109375,1.344191,0.2735725,-0.5959387,-26.66431,49.88575,-117.3781,-27.51369,49.78885,-116.8078,S_LF
-0.2287598,-0.6850586,0.8361816,-0.3298473,-0.2409847,-0.9925726,-38.01993,12.27722,-40.74015,-38.3169,11.94885,-40.8185,-0.359375,-0.2207031,-0.2109375,1.038847,0.04456491,-0.4127328,-26.66575,49.88208,-117.3713,-27.9073,49.65163,-116.5727,S_LF
-0.2263184,-0.6865234,0.8391113,-0.2382443,-0.1341145,0.0,-38.03102,12.26447,-40.74022,-38.3062,11.79107,-40.74376,-0.3605957,-0.2209473,-0.2185059,0.9319771,-0.06230533,-0.428,-26.67186,49.86845,-117.3766,-27.65579,49.24672,-117.3245,S_LF
-0.2246094,-0.692627,0.8305664,-0.4367175,-0.4852595,-0.7940992,-38.05351,12.24671,-40.76189,-38.83423,11.73292,-41.24019,-0.3649902,-0.2202148,-0.208252,0.489229,-0.6577252,-0.0310533,-26.68436,49.86729,-117.3503,-27.65651,50.29358,-116.0372,S_LF
-0.2165527,-0.6884766,0.8347168,-0.1466411,-0.439458,-0.5345572,-38.06665,12.22167,-40.77147,-38.60291,11.31758,-40.84805,-0.3623047,-0.2148438,-0.2209473,0.04648089,-0.6882596,0.0147481,-26.68707,49.8528,-117.3566,-26.85199,49.61509,-117.6791,S_LF
-0.2185059,-0.6884766,0.8322754,0.2045038,-0.3173206,-0.1223435,-38.07578,12.20161,-40.77681,-38.66354,11.43635,-40.95421,-0.3710938,-0.2175293,-0.2131348,-0.1672597,-0.4287176,0.1216183,-26.69468,49.86196,-117.3349,-26.94474,50.62569,-116.3579,S_LF
-0.2072754,-0.6855469,0.8276367,0.219771,0.03382444,-0.2444809,-38.08668,12.1764,-40.78229,-38.78199,10.9166,-40.87132,-0.3557129,-0.2248535,-0.2280273,0.07701516,-0.01650381,0.04528236,-26.72006,49.82455,-117.3566,-28.02035,48.00376,-118.4516,S_LF
-0.2263184,-0.6904297,0.8330078,0.3571756,-0.04251146,-0.07654199,-38.09278,12.16854,-40.78969,-38.65439,11.81468,-41.09599,-0.3620605,-0.2165527,-0.213623,-0.2741299,-0.1081069,0.1521528,-26.73478,49.82576,-117.3443,-27.25439,49.9645,-116.8558,S_LF
-0.2194824,-0.6855469,0.8427734,0.3419085,-0.5310611,0.1677328,-38.09008,12.1458,-40.78145,-38.20928,11.42169,-40.50109,-0.3623047,-0.2163086,-0.2141113,0.0,0.0,0.6559694,-26.74414,49.82861,-117.3258,-27.20269,49.9678,-116.9039,S_LF
-0.2053223,-0.6850586,0.8364258,0.3266413,-0.04251146,0.6715496,-38.09347,12.11732,-40.76657,-38.49931,10.75292,-40.53131,-0.3605957,-0.2180176,-0.2150879,-0.9916873,-0.7798626,0.4574962,-26.77265,49.81373,-117.3134,-27.44052,49.6583,-117.0415,S_LF
-0.2109375,-0.6835938,0.8322754,0.05183208,0.2780993,0.7173512,-38.10136,12.10068,-40.75432,-38.52616,11.08123,-40.68135,-0.3640137,-0.2111816,-0.2167969,-0.5947404,0.227771,0.701771,-26.77522,49.82576,-117.3027,-26.49365,50.25879,-117.2555,S_LF
-0.2104492,-0.6882324,0.8374023,-0.1619084,0.2017633,0.5799466,-38.11271,12.08119,-40.74482,-38.55766,10.98749,-40.67677,-0.3662109,-0.217041,-0.2106934,-0.2435954,0.4109771,0.0,-26.7871,49.84415,-117.2832,-27.19013,50.44358,-116.3326,S_LF
-0.2282715,-0.6828613,0.8366699,0.5709161,-0.1035802,0.2593359,-38.10639,12.07674,-40.74038,-38.2164,11.93494,-40.71399,-0.3603516,-0.2053223,-0.2155762,-0.197794,0.746855,0.0,-26.77522,49.86628,-117.2869,-26.057,50.4378,-117.4647,S_LF
-0.2272949,-0.6765137,0.8383789,0.6777863,-0.1188473,0.0,-38.0932,12.07185,-40.7337,-37.91203,11.91399,-40.40633,-0.3640137,-0.2158203,-0.2111816,-0.1519923,0.8079236,0.9918472,-26.78495,49.88731,-117.257,-27.15039,50.32388,-116.5206,S_LF
-0.2294922,-0.6809082,0.8310547,0.8304581,-0.02724427,0.0,-38.08515,12.07117,-40.73597,-38.30065,12.05745,-40.84717,-0.3615723,-0.217041,-0.2155762,0.2602212,1.006397,0.5796337,-26.79093,49.8997,-117.2448,-27.27497,49.7671,-117.0758,S_LF
-0.229248,-0.6726074,0.8361816,0.1129008,0.430771,0.3051374,-38.07784,12.07725,-40.72393,-37.80264,12.05863,-40.35848,-0.3571777,-0.2128906,-0.2331543,0.06174803,1.220137,0.3048244,-26.78475,49.88894,-117.2814,-26.52423,48.52497,-119.2803,S_LF
-0.2282715,-0.6760254,0.8325195,0.0976336,0.3544351,0.3967404,-38.07625,12.08089,-40.71598,-38.06516,12.01636,-40.59879,-0.3635254,-0.2133789,-0.2172852,-0.1519923,0.9453281,0.7170382,-26.78609,49.90598,-117.2706,-26.74036,50.0459,-117.2701,S_LF
-0.2282715,-0.6787109,0.8347168,0.4182443,0.6445115,0.7478855,-38.07072,12.08834,-40.70317,-38.10723,11.9795,-40.62497,-0.3571777,-0.2097168,-0.2175293,-0.7016106,0.7773893,0.9155113,-26.79333,49.91468,-117.2659,-26.63237,49.77002,-117.7078,S_LF
-0.236084,-0.6750488,0.8413086,-0.05503809,0.4613054,0.7478855,-38.06386,12.10026,-40.68542,-37.68749,12.34562,-40.36567,-0.362793,-0.2155762,-0.2138672,-0.6710763,0.6247175,0.7933741,-26.80882,49.92636,-117.2472,-27.10739,50.07002,-116.8751,S_LF
-0.2280273,-0.6765137,0.8391113,-0.009236574,0.3544351,0.7631527,-38.06038,12.10202,-40.66906,-37.8833,11.94514,-40.39089,-0.3466797,-0.2172852,-0.2189941,-0.8542824,0.5636489,0.7323053,-26.84358,49.90282,-117.2546,-27.91878,48.33521,-118.1578,S_LF
-0.2294922,-0.6779785,0.8366699,-0.02450383,-0.3631221,0.8700229,-38.05965,12.09525,-40.65383,-38.0064,12.03024,-40.5468,-0.3637695,-0.2197266,-0.2102051,-0.8542824,0.6857863,0.2742901,-26.87144,49.91699,-117.2319,-27.60906,50.10708,-116.3181,S_LF
-0.2275391,-0.6782227,0.8359375,-0.1161069,-0.7142672,1.068496,-38.06128,12.08155,-40.63617,-38.05558,11.93527,-40.55607,-0.3579102,-0.2119141,-0.2158203,-1.46497,0.6705191,0.1979542,-26.89329,49.9245,-117.2328,-26.88674,49.79916,-117.4235,S_LF
-0.2275391,-0.673584,0.8356934,-0.1619084,-0.7142672,1.37384,-38.05989,12.0688,-40.61105,-37.87243,11.96882,-40.38994,-0.3637695,-0.2143555,-0.2055664,-2.228328,0.4720459,-0.06158781,-26.92916,49.94789,-117.2082,-27.1585,50.77055,-115.9596,S_LF
-0.2285156,-0.6779785,0.842041,-0.6809924,-0.9432748,1.602847,-38.06501,12.05319,-40.5839,-37.84916,11.93556,-40.35343,-0.3537598,-0.2141113,-0.2177734,-2.27413,0.5331145,-0.4738016,-26.96935,49.94069,-117.2264,-27.26717,49.19606,-117.7734,S_LF
-0.232666,-0.6745605,0.8510742,-0.7573281,0.0,2.213534,-38.06284,12.05398,-40.53923,-37.39951,12.09251,-39.97717,-0.3618164,-0.2128906,-0.2199707,-2.396267,0.7926565,-0.3974657,-26.99903,49.94886,-117.2408,-26.69184,49.76661,-117.654,S_LF
-0.2265625,-0.6838379,0.8410645,-0.7573281,-1.309687,2.488344,-38.07541,12.02975,-40.50348,-38.13465,11.80538,-40.58086,-0.3640137,-0.2106934,-0.2199707,-2.335198,0.7315878,-0.6722746,-27.01814,49.96149,-117.2574,-26.35297,50.07838,-117.6097,S_LF
-0.2333984,-0.6791992,0.8413086,-0.2535114,-1.569229,2.579947,-38.07499,12.01125,-40.46774,-37.88047,12.18091,-40.48572,-0.3461914,-0.208252,-0.2192383,-2.655809,0.7773893,-0.5348701,-27.05563,49.95098,-117.2899,-26.94027,48.8644,-118.4872,S_LF
-0.2287598,-0.6782227,0.8381348,0.1587023,-1.141748,2.656282,-38.0707,11.99382,-40.42928,-37.97736,11.97901,-40.49718,-0.3640137,-0.2077637,-0.2165527,-2.564206,0.8995267,-0.7944121,-27.07479,49.97513,-117.3023,-26.1289,50.49703,-117.324,S_LF
-0.2299805,-0.6750488,0.8334961,-0.2382443,-1.019611,2.67155,-38.07239,11.981,-40.39243,-37.98008,12.10211,-40.55069,-0.3608398,-0.2009277,-0.2185059,-2.564206,0.2888396,-0.5196033,-27.07785,49.99074,-117.321,-25.46898,50.55759,-117.8814,S_LF
-0.2282715,-0.6835938,0.8513184,-0.2382443,-0.5768626,2.595214,-38.07014,11.96964,-40.35398,-37.79661,11.8091,-40.25022,-0.3586426,-0.208252,-0.213623,-2.411534,0.1514351,-0.1379237,-27.10201,49.99804,-117.3216,-26.51343,50.24481,-117.253,S_LF
-0.2290039,-0.6777344,0.8349609,0.05183208,-0.3936565,2.412008,-38.06905,11.96489,-40.32324,-38.0534,12.02144,-40.58934,-0.3625488,-0.2062988,-0.2197266,-2.243596,-0.06230533,0.1063511,-27.11193,50.00241,-117.3292,-25.94884,50.26249,-117.7781,S_LF
-0.2346191,-0.6799316,0.8391113,0.1434351,-0.5768626,2.28987,-38.0649,11.96224,-40.29517,-37.96739,12.25642,-40.60265,-0.3642578,-0.2026367,-0.2099609,-2.06039,0.4415114,0.1216183,-27.11261,50.03448,-117.3157,-25.73252,51.30278,-116.7349,S_LF
-0.2353516,-0.6745605,0.8393555,0.3266413,-0.6684657,1.953992,-38.05379,11.9604,-40.27053,-37.73345,12.32875,-40.4036,-0.3691406,-0.2075195,-0.2138672,-1.526038,0.5483816,0.07581687,-27.11158,50.06358,-117.3041,-25.93958,51.08681,-116.7952,S_LF
-0.2304688,-0.6716309,0.8466797,0.6777863,-0.1646488,1.511244,-38.03136,11.95954,-40.24261,-37.43056,12.03828,-39.98508,-0.3640137,-0.2070313,-0.2131348,-1.220695,0.6552519,0.2437558,-27.10894,50.08683,-117.2942,-26.142,50.77625,-116.974,S_LF
-0.2321777,-0.6726074,0.8381348,0.6014504,0.1559618,1.312771,-38.01684,11.96632,-40.22635,-37.71763,12.19136,-40.33031,-0.3630371,-0.203125,-0.2246094,-0.8848166,0.838458,0.1674199,-27.08868,50.10074,-117.3132,-25.44565,50.1661,-118.3658,S_LF
-0.2365723,-0.6750488,0.8483887,0.1892367,0.7055801,0.7631527,-38.00308,11.98354,-40.21331,-37.46811,12.30918,-40.13526,-0.3647461,-0.2075195,-0.2177734,-0.7016106,1.342275,0.5338321,-27.07724,50.12688,-117.3081,-26.0354,50.48677,-117.4268,S_LF
-0.2270508,-0.6745605,0.8452148,0.02129769,0.9193206,0.3204046,-37.9952,11.99364,-40.20665,-37.62387,11.85761,-40.1004,-0.3666992,-0.2084961,-0.2260742,-0.1825268,1.662885,0.5185649,-27.05491,50.14908,-117.3181,-25.82644,50.01451,-118.1886,S_LF
-0.2260742,-0.6696777,0.8430176,0.2808397,0.9193206,-0.0002061129,-37.98113,12.00446,-40.20207,-37.49797,11.85879,-39.97736,-0.3603516,-0.2075195,-0.2133789,0.04648089,2.166702,0.350626,-27.04031,50.18682,-117.3099,-26.3595,50.44343,-117.164,S_LF
-0.2346191,-0.6577148,0.8381348,0.3113741,1.346802,-0.04600763,-37.95849,12.03255,-40.19471,-37.07785,12.41937,-39.80005,-0.3579102,-0.208252,-0.2243652,0.1075497,1.754489,0.0147481,-27.02279,50.19807,-117.3324,-26.24313,49.4598,-118.4502,S_LF
-0.2319336,-0.6826172,0.8422852,-0.5435878,1.850618,-0.5192901,-37.96736,12.06061,-40.20967,-38.0024,12.07519,-40.56145,-0.3581543,-0.2099609,-0.2199707,0.2907557,1.189603,0.1368854,-27.00922,50.20377,-117.3422,-26.54381,49.66717,-117.9167,S_LF
-0.2375488,-0.6745605,0.8391113,-0.222977,1.621611,-0.4734885,-37.96552,12.09049,-40.22079,-37.72197,12.44241,-40.44059,-0.3537598,-0.2099609,-0.222168,0.7793052,0.746855,0.4880307,-26.99128,50.19407,-117.3557,-26.68477,49.16977,-118.3718,S_LF
-0.2373047,-0.6750488,0.8288574,0.3113741,1.285733,-0.1376107,-37.96283,12.11791,-40.23447,-38.06005,12.51634,-40.80374,-0.3596191,-0.2053223,-0.2194824,1.237321,0.6857863,0.350626,-26.95291,50.20253,-117.3619,-25.98218,50.11305,-117.9243,S_LF
-0.2319336,-0.6706543,0.8342285,0.05183208,0.9651221,-0.3971527,-37.958,12.13426,-40.24334,-37.75936,12.22603,-40.38577,-0.3625488,-0.206543,-0.2177734,1.557931,0.6399847,0.06054974,-26.91306,50.21486,-117.365,-26.02931,50.37978,-117.5609,S_LF
-0.2348633,-0.668457,0.8310547,0.00603056,0.858252,0.0,-37.95358,12.15173,-40.24746,-37.741,12.41903,-40.44928,-0.3649902,-0.2058105,-0.2167969,1.466328,0.319374,0.2284887,-26.86909,50.22922,-117.3613,-25.86437,50.68229,-117.3567,S_LF
-0.2368164,-0.6655273,0.8469238,0.2961069,0.9345879,0.0,-37.93222,12.17134,-40.23913,-37.11801,12.39971,-39.83094,-0.3635254,-0.2116699,-0.2219238,0.8251068,0.3957099,0.5949008,-26.84892,50.22702,-117.3622,-26.42648,49.84784,-117.8144,S_LF
-0.2365723,-0.6872559,0.8405762,0.1587023,1.148328,0.0,-37.93547,12.18951,-40.25134,-38.20363,12.29178,-40.84948,-0.3601074,-0.2145996,-0.222168,0.06174803,1.067466,0.3200917,-26.8489,50.22573,-117.3687,-26.89303,49.37815,-117.9226,S_LF
-0.2458496,-0.6750488,0.8378906,-0.4825191,1.362069,-0.8093664,-37.93798,12.22315,-40.27042,-37.70626,12.87041,-40.61044,-0.3581543,-0.208252,-0.2304688,-0.09092379,1.952962,-0.04632068,-26.83431,50.22932,-117.4037,-26.05724,49.06557,-119.0866,S_LF
-0.2480469,-0.6728516,0.8271484,0.0,0.873519,-0.3666183,-37.93772,12.25259,-40.28853,-37.92493,13.09598,-40.92446,-0.359375,-0.2155762,-0.2216797,-0.01458788,1.662885,0.1368854,-26.83877,50.23498,-117.4111,-27.04638,49.29034,-117.8777,S_LF
-0.2436523,-0.6760254,0.8439941,-0.6809924,0.8429847,-0.1223435,-37.94059,12.27389,-40.29279,-37.58034,12.69787,-40.41174,-0.3591309,-0.2099609,-0.2175293,-0.7626796,0.5178473,0.2132213,-26.84456,50.23606,-117.4119,-26.56768,49.90818,-117.6052,S_LF
-0.2426758,-0.6743164,0.8425293,-0.574122,0.5223741,0.09139694,-37.94148,12.28956,-40.29329,-37.56319,12.6737,-40.38446,-0.3562012,-0.2087402,-0.2229004,-1.251229,-0.3065802,0.4880307,-26.8544,50.21468,-117.4238,-26.4168,49.39269,-118.3644,S_LF
-0.2399902,-0.6875,0.8354492,-0.7878625,0.5529084,0.4730763,-37.96106,12.30202,-40.30198,-38.34134,12.50636,-41.07565,-0.3544922,-0.208252,-0.223877,-1.480237,-0.0470382,0.6254351,-26.86589,50.19416,-117.4381,-26.41376,49.22116,-118.5697,S_LF
-0.2412109,-0.6750488,0.8269043,-0.742061,0.04909158,0.9768932,-37.97373,12.31132,-40.30098,-38.08561,12.73317,-40.92227,-0.3513184,-0.2070313,-0.2224121,-1.327565,0.227771,-0.1531909,-26.87747,50.17649,-117.4638,-26.46906,49.1433,-118.6089,S_LF
-0.2451172,-0.6704102,0.8242188,0.0,-0.2715191,0.0,-37.97308,12.32093,-40.31284,-37.94148,12.99144,-40.89422,-0.3537598,-0.2058105,-0.2370605,-1.449702,0.4262443,-0.1989923,-26.87712,50.1475,-117.519,-25.79446,48.4133,-120.0805,S_LF
-0.2431641,-0.6721191,0.8276367,0.0,-0.607397,1.037962,-37.97211,12.32254,-40.30761,-37.92434,12.84779,-40.81416,-0.3510742,-0.2121582,-0.2265625,-1.770313,-0.3065802,-0.1531909,-26.90399,50.11043,-117.5491,-26.91961,48.51966,-118.9128,S_LF
-0.244873,-0.6772461,0.8322754,-0.8641985,-1.126481,1.221168,-37.98491,12.31664,-40.30089,-37.97706,12.85542,-40.86918,-0.3586426,-0.2077637,-0.2158203,-2.365733,-0.9325343,0.0,-26.9472,50.08976,-117.5483,-26.39808,50.12807,-117.5063,S_LF
-0.2329102,-0.6772461,0.8393555,0.0,-1.569229,1.602847,-37.9825,12.27866,-40.26819,-37.86459,12.18622,-40.47234,-0.3620605,-0.2099609,-0.2214355,-2.610008,-1.192076,-0.3058627,-26.97051,50.06911,-117.5592,-26.32232,49.87519,-117.8821,S_LF
-0.2272949,-0.6733398,0.833252,-0.5283206,-1.141748,1.938725,-37.9889,12.25699,-40.24544,-37.94006,11.97861,-40.46038,-0.3571777,-0.2089844,-0.2219238,-2.900084,-1.482153,-0.07685494,-27.00226,50.03635,-117.5732,-26.42655,49.5207,-118.2036,S_LF
-0.2382813,-0.6782227,0.8339844,-0.5283206,-0.8058702,1.999794,-37.99736,12.24998,-40.22633,-38.02334,12.49851,-40.76009,-0.3552246,-0.2055664,-0.2143555,-2.930618,-0.7340611,0.4269619,-27.03244,50.02687,-117.567,-26.35719,50.10183,-117.5775,S_LF
-0.2426758,-0.677002,0.8286133,-0.2687786,-1.004344,2.183,-38.00336,12.24578,-40.20883,-38.09981,12.77833,-40.95585,-0.3596191,-0.2050781,-0.2175293,-3.098557,-1.436351,0.5032978,-27.0545,50.01189,-117.5631,-26.00972,50.2626,-117.7198,S_LF
-0.2424316,-0.6750488,0.8381348,-0.009236574,-1.157015,2.381473,-37.998,12.2389,-40.18311,-37.72918,12.69515,-40.55635,-0.3608398,-0.2089844,-0.2338867,-3.220695,-2.30658,0.6865039,-27.07915,49.95778,-117.5875,-25.91971,49.00194,-119.2878,S_LF
-0.2385254,-0.6787109,0.8320313,-0.1771755,-0.6379313,2.320405,-38.00267,12.23523,-40.16229,-38.10147,12.52452,-40.84789,-0.3652344,-0.2055664,-0.2180176,-3.098557,-1.787496,0.5643663,-27.09899,49.94502,-117.5771,-25.79358,50.63358,-117.483,S_LF
-0.2297363,-0.6862793,0.8369141,-0.5130534,-0.1646488,1.770786,-38.01686,12.22779,-40.15004,-38.33553,11.98396,-40.85121,-0.364502,-0.2089844,-0.2175293,-2.732145,-1.161542,0.6865039,-27.12142,49.93684,-117.563,-26.21259,50.38983,-117.3718,S_LF
-0.2414551,-0.6928711,0.8376465,-0.1771755,-0.1188473,1.770786,-38.02869,12.23194,-40.14534,-38.47777,12.52298,-41.21679,-0.3588867,-0.2097168,-0.2192383,-2.16726,-0.4287176,0.0,-27.13881,49.92802,-117.5679,-26.504,49.78985,-117.8087,S_LF
-0.246582,-0.6899414,0.8359375,-0.131374,-0.2409847,1.358572,-38.03724,12.24033,-40.14847,-38.36614,12.81654,-41.23387,-0.3657227,-0.2150879,-0.2243652,-2.16726,-0.7493282,1.297191,-27.16038,49.91126,-117.5548,-26.6246,49.64044,-117.8703,S_LF
-0.236084,-0.6779785,0.8425293,0.8457253,-0.2104504,1.37384,-38.01947,12.23872,-40.13399,-37.7703,12.31477,-40.43383,-0.3666992,-0.2060547,-0.2150879,-2.151992,-4.779863,1.480397,-27.16599,49.86105,-117.5237,-25.85911,50.91384,-117.083,S_LF
-0.2333984,-0.6796875,0.847168,1.471679,0.6445115,1.358572,-37.99187,12.24598,-40.11749,-37.7215,12.1279,-40.30762,-0.3703613,-0.2045898,-0.21875,-2.151992,-1.161542,1.175053,-27.16305,49.8675,-117.5027,-25.4375,51.03728,-117.339,S_LF
-0.2329102,-0.6757813,0.8378906,1.013664,1.117794,1.541779,-37.97412,12.26167,-40.10181,-37.84949,12.20884,-40.467,-0.364502,-0.203125,-0.2231445,-1.648176,-0.642458,1.342992,-27.15082,49.86895,-117.4969,-25.4207,50.38058,-118.1362,S_LF
-0.244873,-0.6721191,0.8381348,0.738855,1.316267,1.404374,-37.95624,12.29129,-40.09011,-37.58701,12.83996,-40.48032,-0.3635254,-0.2058105,-0.2097168,-0.8848166,-0.382916,0.5490992,-27.14327,49.88697,-117.4721,-26.12324,51.05162,-116.6578,S_LF
-0.2307129,-0.6733398,0.840332,0.0,1.591076,1.266969,-37.95097,12.31072,-40.07498,-37.69275,12.093,-40.2649,-0.3625488,-0.1906738,-0.2165527,-0.8848166,-0.5966565,0.0,-27.09941,49.91017,-117.4799,-24.29981,51.48557,-117.8633,S_LF
-0.2380371,-0.6728516,0.8442383,0.0,1.026191,1.129565,-37.94178,12.32827,-40.0611,-37.49125,12.43435,-40.21107,-0.3620605,-0.2016602,-0.215332,-0.7779465,0.0,0.9155113,-27.07972,49.92848,-117.4668,-25.58104,50.82595,-117.4556,S_LF
-0.2321777,-0.6813965,0.8425293,0.0,1.178863,0.9463588,-37.9418,12.33976,-40.05711,-37.94311,12.09379,-40.51094,-0.3666992,-0.1984863,-0.2158203,-0.3962674,-0.642458,0.9918472,-27.04411,49.94755,-117.4502,-25.00822,51.35391,-117.3656,S_LF
-0.2380371,-0.6655273,0.8417969,0.998397,1.239931,0.8852901,-37.91355,12.36133,-40.04333,-37.26287,12.50692,-40.01853,-0.3652344,-0.2011719,-0.2219238,-0.3657329,0.09036642,0.610168,-27.01239,49.96273,-117.4533,-25.20726,50.64437,-118.0231,S_LF
-0.2424316,-0.6567383,0.8383789,0.0,1.942221,0.6410153,-37.89452,12.39723,-40.03091,-36.96193,12.82424,-39.86226,-0.3608398,-0.201416,-0.2199707,-0.8084807,-0.4745191,0.701771,-26.99369,49.96498,-117.4545,-25.48289,50.42438,-118.0262,S_LF
-0.2421875,-0.6767578,0.8369141,0.0,1.972756,0.8089542,-37.8934,12.43192,-40.03156,-37.8388,12.68137,-40.6578,-0.3554688,-0.2089844,-0.2231445,0.0,0.0,0.7933741,-26.98322,49.95173,-117.4621,-26.47021,49.30242,-118.4202,S_LF
-0.2443848,-0.6733398,0.8439941,0.0,1.423137,1.022695,-37.88481,12.45928,-40.02234,-37.46376,12.75392,-40.32203,-0.364502,-0.2036133,-0.2172852,-1.342832,-0.8867329,0.4574962,-26.97463,49.95559,-117.4565,-25.63271,50.75315,-117.4935,S_LF
-0.2456055,-0.6669922,0.8435059,0.0,1.056725,1.175366,-37.87124,12.4819,-40.00814,-37.2061,12.86542,-40.11894,-0.3635254,-0.1982422,-0.2158203,-1.159626,-1.268412,0.4574962,-26.95464,49.96037,-117.4512,-25.1228,51.12654,-117.5295,S_LF
-0.2390137,-0.677002,0.848877,0.9525955,0.7208474,1.266969,-37.85006,12.49115,-39.99382,-37.51261,12.41454,-40.22355,-0.3635254,-0.2028809,-0.220459,-1.08329,-1.421084,0.2132213,-26.94061,49.95178,-117.4573,-25.51038,50.50589,-117.9038,S_LF
-0.2387695,-0.6757813,0.8413086,0.7999237,1.133061,1.175366,-37.83598,12.5064,-39.98639,-37.69442,12.47653,-40.42814,-0.3640137,-0.2045898,-0.2116699,-0.8542824,-1.405817,0.3658931,-26.93263,49.95282,-117.4404,-25.91358,51.03708,-116.881,S_LF
-0.2402344,-0.6708984,0.8469238,0.9220611,1.362069,0.7631527,-37.81192,12.52701,-39.97699,-37.31077,12.53553,-40.0777,-0.3632813,-0.1965332,-0.2160645,0.0,-1.482153,0.442229,-26.89272,49.95599,-117.4374,-24.93706,51.20079,-117.6147,S_LF
-0.234375,-0.6726074,0.8464355,0.738855,1.133061,0.9921603,-37.79373,12.53776,-39.96448,-37.44558,12.23165,-40.0805,-0.3659668,-0.2055664,-0.2231445,-0.381,-0.9478015,0.5643663,-26.87253,49.95067,-117.4408,-25.62179,50.34009,-117.9957,S_LF
-0.2421875,-0.668457,0.8376465,0.7846565,1.270466,0.8394885,-37.77658,12.55912,-39.96015,-37.47443,12.73435,-40.32394,-0.3652344,-0.2043457,-0.2263184,0.03121376,-0.1081069,0.2132213,-26.84332,49.95292,-117.4569,-25.43519,50.14265,-118.4031,S_LF
-0.2392578,-0.6760254,0.8483887,0.7846565,1.530008,0.8394885,-37.75922,12.57918,-39.95274,-37.48534,12.43782,-40.20675,-0.3632813,-0.2099609,-0.2214355,0.3670917,0.1056336,-0.1531909,-26.82675,49.95472,-117.4663,-26.26653,49.9702,-117.8225,S_LF
-0.2519531,-0.670166,0.8408203,0.8457253,1.285733,0.6257481,-37.73967,12.609,-39.95339,-37.36164,13.18799,-40.41457,-0.3457031,-0.2058105,-0.2158203,0.489229,0.6247175,0.4880307,-26.81891,49.94915,-117.4741,-26.79408,49.21718,-118.2103,S_LF
-0.2438965,-0.666748,0.8444824,0.738855,1.056725,0.6868168,-37.71764,12.62779,-39.9453,-37.1815,12.77179,-40.05378,-0.3618164,-0.2084961,-0.2180176,0.5350306,0.3651755,0.3048244,-26.80058,49.95879,-117.4718,-26.26955,50.18021,-117.5684,S_LF
-0.2529297,-0.6694336,0.8532715,0.9678626,0.9193206,0.8089542,-37.68902,12.6504,-39.93501,-36.95042,13.1276,-39.9859,-0.3630371,-0.2106934,-0.2209473,0.1686182,-0.01650381,0.350626,-26.7895,49.95811,-117.4724,-26.37059,49.93728,-117.7615,S_LF
-0.2480469,-0.6738281,0.861084,4.952595,0.6292443,0.9463588,-37.60127,12.66228,-39.91888,-36.94161,12.78176,-39.82375,-0.364502,-0.2070313,-0.2131348,-0.1214581,-0.06230533,0.1216183,-26.77788,49.97432,-117.4602,-26.11938,50.81387,-116.9506,S_LF
-0.2480469,-0.6772461,0.8557129,1.288473,0.4002366,0.0,-37.57511,12.67103,-39.92302,-37.24024,12.80562,-40.12602,-0.3603516,-0.2092285,-0.2119141,-0.3504658,0.05983204,-0.09212208,-26.77888,49.98424,-117.4514,-26.58769,50.42926,-116.9564,S_LF
-0.2358398,-0.671875,0.8513184,1.212137,0.7666489,0.8700229,-37.55209,12.6735,-39.91082,-37.25558,12.26866,-39.90999,-0.3603516,-0.208252,-0.2150879,-0.4878702,-0.031771,-0.3363969,-26.77833,49.98968,-117.4539,-26.39233,50.27969,-117.3295,S_LF
-0.2365723,-0.6604004,0.8535156,0.8304581,0.6445115,0.5036107,-37.52302,12.67679,-39.89353,-36.7093,12.36456,-39.4164,-0.3615723,-0.203125,-0.2143555,-0.2283282,0.1972366,-0.1379237,-26.76195,50.00799,-117.4535,-25.79187,50.76015,-117.3329,S_LF
-0.2392578,-0.6708984,0.8481445,0.7693894,0.430771,0.5799466,-37.5069,12.6791,-39.88762,-37.28228,12.47547,-40.02404,-0.3608398,-0.2004395,-0.2165527,0.229687,0.3499084,-0.2142596,-26.73293,50.02713,-117.461,-25.46809,50.72529,-117.6828,S_LF
-0.2416992,-0.6647949,0.828125,0.5403817,0.262832,0.0,-37.50172,12.68556,-39.89993,-37.61855,12.82203,-40.50333,-0.3666992,-0.199707,-0.2148438,0.2449541,0.3499084,-0.1989923,-26.69804,50.0586,-117.4593,-25.16871,51.34328,-117.2271,S_LF
-0.2338867,-0.6660156,0.8222656,0.4487787,0.430771,-0.0002061129,-37.50351,12.68746,-39.91484,-37.92119,12.46381,-40.64506,-0.3618164,-0.2080078,-0.2253418,0.4434273,0.3346412,-0.3058627,-26.6778,50.05666,-117.4819,-26.01208,49.71595,-118.3663,S_LF
-0.2365723,-0.6665039,0.809082,-0.2687786,0.9193206,-0.3818855,-37.52404,12.70157,-39.94531,-38.33242,12.71755,-41.15771,-0.3666992,-0.2055664,-0.2182617,0.07701516,0.1056336,-0.168458,-26.65761,50.07157,-117.4833,-25.72078,50.72936,-117.438,S_LF
-0.2373047,-0.6704102,0.8156738,-0.558855,0.7513816,-0.2597481,-37.54683,12.71119,-39.97166,-38.28012,12.66712,-41.08455,-0.3652344,-0.2060547,-0.2177734,0.3365571,0.4415114,-0.0005190372,-26.63658,50.089,-117.4825,-25.85349,50.6188,-117.4434,S_LF
-0.2382813,-0.6599121,0.8134766,-0.7267939,0.9651221,-0.336084,-37.5646,12.72747,-39.99271,-37.90123,12.81551,-40.77738,-0.3654785,-0.2111816,-0.2133789,0.2754886,0.7773893,-0.2295268,-26.63018,50.11063,-117.4726,-26.51928,50.59941,-116.8171,S_LF
-0.2294922,-0.666748,0.8100586,-0.9558016,0.0,-0.1376107,-37.59488,12.71969,-40.01566,-38.37639,12.33842,-41.03885,-0.3625488,-0.2050781,-0.2189941,-0.04512215,0.8231909,-0.1226563,-26.61491,50.12753,-117.4795,-25.8354,50.39068,-117.7334,S_LF
-0.2407227,-0.6660156,0.8164063,-0.7878625,1.056725,0.09139694,-37.61465,12.73718,-40.03289,-38.0426,12.86969,-40.93969,-0.3596191,-0.204834,-0.2321777,-0.2435954,0.5636489,-0.1989923,-26.59763,50.11872,-117.5187,-25.57209,49.27281,-119.2925,S_LF
-0.2419434,-0.6645508,0.8208008,-0.558855,1.377336,0.3356718,-37.62723,12.76075,-40.04228,-37.83298,12.90334,-40.74903,-0.364502,-0.2016602,-0.2258301,-0.1825268,0.487313,0.350626,-26.57193,50.12875,-117.5327,-25.18762,50.28617,-118.4631,S_LF
-0.2529297,-0.6564941,0.8398438,-0.4672519,1.560542,0.2288015,-37.61738,12.79391,-40.03735,-36.8141,13.34793,-39.95272,-0.3662109,-0.2026367,-0.2189941,0.01594663,0.1667023,0.5490992,-26.54832,50.14521,-117.5264,-25.40295,50.82933,-117.6203,S_LF
-0.2565918,-0.673584,0.8552246,-0.6199236,1.041458,0.3967404,-37.61476,12.81859,-40.03326,-37.03047,13.26259,-40.1249,-0.3647461,-0.2038574,-0.2219238,0.0922823,0.3804427,0.8086412,-26.52646,50.15665,-117.5235,-25.52303,50.43737,-117.9732,S_LF
-0.253418,-0.6789551,0.8786621,0.2350382,0.7055801,0.4730763,-37.59085,12.82971,-40.01595,-36.59211,12.85579,-39.5153,-0.364502,-0.2019043,-0.215332,-0.07565641,-0.4134504,1.037649,-26.50698,50.16741,-117.5043,-25.49716,50.99853,-117.3287,S_LF
-0.2426758,-0.673584,0.864502,1.471679,0.7971831,0.6868168,-37.55492,12.83455,-39.99815,-36.87586,12.48566,-39.63097,-0.3608398,-0.2050781,-0.2045898,-0.1061909,0.0,1.46513,-26.50456,50.18892,-117.4575,-26.30768,51.24279,-116.2402,S_LF
-0.2434082,-0.6708984,0.8381348,2.296107,1.19413,0.6257481,-37.52106,12.8509,-39.99729,-37.54967,12.77446,-40.41508,-0.3618164,-0.1972656,-0.2104492,0.672435,-0.7493282,1.541466,-26.46992,50.20361,-117.4282,-25.23384,51.43732,-117.0524,S_LF
-0.2416992,-0.6557617,0.8188477,2.38771,1.316267,0.6104809,-37.48842,12.87143,-39.99859,-37.52693,12.97427,-40.48075,-0.3615723,-0.1904297,-0.2087402,2.21442,0.6552519,0.5338321,-26.39834,50.24905,-117.413,-24.51858,51.99396,-117.0579,S_LF
-0.2443848,-0.6386719,0.8244629,1.242672,0.1864962,-0.01547329,-37.45242,12.8805,-39.99231,-36.60166,13.18827,-39.67322,-0.3654785,-0.1835938,-0.2075195,4.229687,1.433878,-0.5043359,-26.28014,50.32182,-117.4102,-23.59726,52.83358,-116.9024,S_LF
-0.260498,-0.6315918,0.8476563,0.0976336,-0.5310611,-1.32845,-37.41113,12.89196,-39.98936,-35.4596,13.8436,-38.86852,-0.3693848,-0.1943359,-0.2192383,5.13045,1.31174,0.0,-26.16598,50.36628,-117.4162,-24.34298,51.58095,-117.7113,S_LF
-0.2463379,-0.6557617,0.8737793,-0.5283206,-0.3783893,-2.259748,-37.3875,12.88269,-39.99718,-35.84179,12.70683,-38.71896,-0.3774414,-0.2041016,-0.2143555,4.962512,0.6247175,0.0,-26.07338,50.40608,-117.3988,-25.18349,51.89711,-116.5447,S_LF
-0.2290039,-0.673584,0.8461914,-0.4825191,0.2017633,-2.656695,-37.3976,12.86711,-40.03741,-37.53786,11.95503,-40.05594,-0.3808594,-0.2072754,-0.2231445,3.817473,-0.382916,-0.3821983,-25.97268,50.41674,-117.4037,-25.15335,51.35192,-117.2313,S_LF
-0.2382813,-0.6716309,0.8269043,0.5709161,1.133061,-2.336084,-37.39676,12.88636,-40.10213,-37.97082,12.60815,-40.7556,-0.3693848,-0.2043457,-0.2219238,2.840374,-0.031771,0.350626,-25.91888,50.42317,-117.4051,-25.37049,50.7617,-117.7314,S_LF
-0.2485352,-0.6867676,0.848877,0.5556489,3.697947,-1.801733,-37.39719,12.93945,-40.14074,-37.82707,12.82305,-40.708,-0.3654785,-0.2077637,-0.2160645,2.32129,2.548382,0.0,-25.88788,50.46503,-117.401,-26.07493,50.64292,-117.2006,S_LF
-0.2456055,-0.6640625,0.8618164,1.028931,4.827718,-1.236847,-37.36492,13.00605,-40.1442,-36.53968,12.72094,-39.40485,-0.3662109,-0.2043457,-0.2229004,2.199152,3.143802,0.0,-25.84749,50.51099,-117.4128,-25.48475,50.4523,-117.9914,S_LF
-0.253418,-0.6611328,0.8359375,1.532748,4.033824,-1.053641,-37.33751,13.07273,-40.1621,-37.12109,13.37523,-40.26454,-0.3571777,-0.2033691,-0.2231445,1.283122,2.28884,0.0,-25.82844,50.52803,-117.4345,-25.7753,49.79288,-118.4979,S_LF
-0.2612305,-0.670166,0.842041,1.044199,4.094893,-0.763565,-37.32124,13.14034,-40.17942,-37.24002,13.64405,-40.50429,-0.3474121,-0.208252,-0.2148438,1.115183,2.99113,0.5490992,-25.83575,50.5467,-117.4366,-27.01367,49.26318,-117.9421,S_LF
-0.2573242,-0.6621094,0.8376465,-0.390916,4.049092,-0.4124198,-37.32204,13.20805,-40.18788,-37.07436,13.55,-40.29918,-0.3586426,-0.1992188,-0.2207031,1.176252,2.868992,0.7323053,-25.80926,50.58195,-117.4434,-25.31785,50.34095,-118.2785,S_LF
-0.2607422,-0.6674805,0.8237305,0.2503054,3.697947,-0.8399009,-37.32592,13.27096,-40.21607,-37.68735,13.8167,-41.0215,-0.3608398,-0.201416,-0.2224121,1.573198,2.960595,0.442229,-25.77826,50.61892,-117.4538,-25.41587,50.25451,-118.2894,S_LF
-0.2658691,-0.6679688,0.8476563,-0.3298473,3.163595,-0.8093664,-37.32304,13.32884,-40.22971,-36.93953,13.83948,-40.30279,-0.355957,-0.2062988,-0.2231445,1.435794,2.365176,0.2895572,-25.76606,50.62922,-117.4702,-26.15335,49.51118,-118.4745,S_LF
-0.2644043,-0.6652832,0.8334961,-0.3298473,2.537641,-0.763565,-37.3264,13.37557,-40.24878,-37.26462,13.92452,-40.65964,-0.3527832,-0.2075195,-0.2199707,1.222053,2.28884,-0.2142596,-25.7633,50.63821,-117.4891,-26.52617,49.39647,-118.2554,S_LF
-0.2617188,-0.6687012,0.8303223,0.03656495,1.89642,-0.855168,-37.32989,13.41179,-40.27346,-37.52782,13.79272,-40.85445,-0.3574219,-0.2116699,-0.2180176,1.115183,1.80029,-0.8402138,-25.76805,50.6445,-117.5055,-26.82028,49.62992,-117.6924,S_LF
-0.2631836,-0.6691895,0.8525391,-0.7115266,2.125427,-0.7024961,-37.33116,13.44778,-40.28125,-36.87035,13.64909,-40.1463,-0.3601074,-0.2141113,-0.2209473,0.9167099,1.31174,-0.8860154,-25.77762,50.63941,-117.5237,-26.87535,49.48987,-117.8063,S_LF
-0.2529297,-0.6728516,0.8283691,-0.1466411,1.942221,-0.504023,-37.34339,13.47213,-40.30153,-37.84201,13.33321,-40.94993,-0.357666,-0.2097168,-0.2287598,0.5502977,0.6399847,0.0,-25.77972,50.61708,-117.5509,-26.28735,49.05226,-118.8873,S_LF
-0.2580566,-0.6672363,0.8244629,-0.3451145,1.988023,-0.1834122,-37.35521,13.50541,-40.31717,-37.68066,13.67461,-40.94872,-0.3544922,-0.2102051,-0.2197266,-0.04512215,0.5483816,-1.481435,-25.79976,50.60034,-117.583,-26.7485,49.37712,-118.0643,S_LF
-0.263916,-0.6721191,0.8469238,0.0,2.171229,0.2593359,-37.3511,13.54156,-40.31603,-37.14997,13.71723,-40.45052,-0.3588867,-0.2058105,-0.215332,-0.1825268,0.0,-1.710443,-25.80998,50.59449,-117.6047,-26.18546,50.308,-117.4964,S_LF
-0.25,-0.6672363,0.8317871,-0.558855,1.78955,0.6562824,-37.36239,13.55917,-40.31239,-37.53231,13.19455,-40.58435,-0.3671875,-0.2026367,-0.2114258,0.1838853,0.8995267,-2.260061,-25.80226,50.62434,-117.6209,-25.55934,51.4257,-116.7539,S_LF
-0.2495117,-0.6635742,0.8259277,-1.001603,0.8124504,0.4883435,-37.38115,13.56497,-40.31179,-37.56387,13.25197,-40.64108,-0.3623047,-0.2026367,-0.2197266,-0.02985501,0.6094504,-1.817313,-25.79779,50.62977,-117.6513,-25.55828,50.47746,-117.8925,S_LF
-0.2561035,-0.6669922,0.8532715,-1.826031,0.0,0.3356718,-37.39502,13.55976,-40.29976,-36.8219,13.30433,-39.94046,-0.3583984,-0.2070313,-0.2097168,0.5960991,0.5636489,-1.557771,-25.80307,50.63689,-117.6586,-26.49961,50.5714,-116.8708,S_LF
-0.2514648,-0.6645508,0.862793,-1.444351,0.0,0.03032825,-37.39798,13.5486,-40.28276,-36.48162,13.00184,-39.47251,-0.3669434,-0.1960449,-0.2109375,0.9930458,0.0,-1.267694,-25.76947,50.66166,-117.6618,-24.85298,51.87561,-116.8861,S_LF
-0.2478027,-0.661377,0.8317871,-0.9863358,0.0,-0.6719618,-37.41069,13.54015,-40.29368,-37.30848,13.12605,-40.33481,-0.3730469,-0.1960449,-0.2224121,1.909076,0.5331145,-1.420366,-25.71189,50.68674,-117.6859,-24.29379,51.52393,-117.8235,S_LF
-0.2412109,-0.6604004,0.8146973,-1.12374,1.010924,-1.450588,-37.43612,13.54326,-40.32501,-37.85638,12.95278,-40.79375,-0.3696289,-0.1987305,-0.2246094,2.657168,1.403344,-1.817313,-25.65214,50.71253,-117.722,-24.67734,50.94521,-118.1561,S_LF
-0.2475586,-0.6557617,0.8300781,-2.161908,1.346802,-2.458221,-37.46173,13.55562,-40.35821,-37.12752,13.17132,-40.1784,-0.3640137,-0.2045898,-0.223877,3.252588,3.036931,-1.817313,-25.60612,50.74396,-117.7565,-25.58241,50.20058,-118.1978,S_LF
-0.2634277,-0.6799316,0.8518066,-2.986336,1.697947,-2.916237,-37.50005,13.57956,-40.40236,-37.32872,13.58774,-40.56477,-0.3613281,-0.2126465,-0.2211914,3.619,3.601817,-1.34403,-25.57387,50.77529,-117.7774,-26.65358,49.66306,-117.8152,S_LF
-0.2590332,-0.6811523,0.8537598,-2.375649,1.362069,-2.763565,-37.53217,13.59484,-40.4446,-37.36031,13.34227,-40.48306,-0.3554688,-0.215332,-0.2219238,3.664802,3.327008,-1.908916,-25.55245,50.78829,-117.8119,-27.19636,48.98005,-118.1013,S_LF
-0.2463379,-0.6755371,0.8217773,-0.742061,0.9193206,-2.962038,-37.55679,13.59721,-40.50296,-38.21785,13.03786,-41.18571,-0.3603516,-0.2097168,-0.2231445,-0.289397,2.487313,-1.954718,-25.57189,50.79949,-117.8456,-26.32588,49.64215,-118.1558,S_LF
-0.2473145,-0.6716309,0.8134766,-0.9405342,0.8124504,-3.099443,-37.58468,13.6003,-40.56227,-38.30629,13.19423,-41.34217,-0.3581543,-0.213623,-0.2255859,0.0,2.472046,-2.137924,-25.59604,50.80104,-117.8884,-26.77955,49.05983,-118.4108,S_LF
-0.2480469,-0.6733398,0.824707,-2.177176,1.362069,-3.252115,-37.6254,13.61061,-40.61936,-38.02045,13.11479,-41.02642,-0.3552246,-0.2163086,-0.2270508,3.084649,2.823191,-2.122656,-25.582,50.79775,-117.9344,-27.16147,48.56174,-118.6312,S_LF
-0.2539063,-0.6843262,0.8449707,-2.894733,1.484206,-2.794099,-37.67141,13.62309,-40.66447,-37.7979,13.14386,-40.82145,-0.3535156,-0.2199707,-0.2255859,2.53503,2.349908,-1.802046,-25.58916,50.77983,-117.9694,-27.6788,48.29005,-118.4487,S_LF
-0.2543945,-0.6994629,0.8125,-2.055038,0.6597786,-2.320817,-37.73427,13.62666,-40.73285,-39.4048,13.34859,-42.49115,-0.3518066,-0.2177734,-0.223877,1.695336,1.830824,-1.405099,-25.60396,50.7592,-117.999,-27.57531,48.40225,-118.4172,S_LF
-0.2651367,-0.6848145,0.8395996,-1.673359,0.4460382,-2.061275,-37.76168,13.6357,-40.77198,-37.87521,13.75071,-41.1743,-0.355957,-0.2185059,-0.230957,1.420527,1.357542,-1.496702,-25.61593,50.72855,-118.0399,-27.2465,48.22883,-118.9409,S_LF
-0.2373047,-0.6784668,0.8466797,-2.085573,0.430771,-1.053641,-37.79018,13.61606,-40.77861,-37.65353,12.33733,-40.32887,-0.3701172,-0.2116699,-0.2258301,1.176252,0.9758626,-1.359298,-25.6079,50.72926,-118.0559,-26.02156,50.09497,-117.9083,S_LF
-0.2624512,-0.6870117,0.8234863,-1.71916,0.0,-0.946771,-37.82757,13.61877,-40.81137,-38.48044,13.75142,-41.76727,-0.3537598,-0.2119141,-0.2268066,0.9930458,0.838458,-2.244794,-25.61637,50.70171,-118.104,-26.76134,48.73516,-118.8108,S_LF
-0.25,-0.6791992,0.8286133,-2.10084,-0.7295343,-0.8093664,-37.86436,13.59835,-40.82975,-38.12279,13.13428,-41.13543,-0.3601074,-0.2199707,-0.2185059,0.3365571,0.7621221,-2.061588,-25.65093,50.68356,-118.1177,-27.57486,49.27164,-117.3758,S_LF
-0.2475586,-0.6948242,0.8500977,-3.032137,-0.5157939,-0.5650916,-37.91113,13.57344,-40.83986,-38.12299,12.70644,-40.94735,-0.3562012,-0.2241211,-0.2226563,-0.2435954,0.9300611,-1.61884,-25.70312,50.65215,-118.1368,-28.08163,48.42963,-117.882,S_LF
-0.2453613,-0.6889648,0.8112793,-1.978702,-0.1341145,-0.3818855,-37.96413,13.55963,-40.86935,-39.10662,12.9814,-42.034,-0.3515625,-0.2197266,-0.2299805,-0.4878702,0.6857863,-1.496702,-25.74797,50.60578,-118.175,-27.61088,47.86301,-119.0185,S_LF
-0.2529297,-0.6867676,0.8239746,-2.131374,0.2475649,0.01506107,-38.00504,13.55719,-40.884,-38.54739,13.26789,-41.61181,-0.3544922,-0.2163086,-0.2233887,-0.7626796,0.7773893,-0.9012823,-25.79031,50.57996,-118.1902,-27.30461,48.74343,-118.2771,S_LF
-0.2453613,-0.6862793,0.8312988,-1.764962,0.339168,0.702084,-38.03831,13.54749,-40.88084,-38.37156,12.82278,-41.24191,-0.3552246,-0.2128906,-0.2226563,-0.7932138,0.8537251,-0.8554807,-25.8246,50.56226,-118.2043,-26.92164,49.06773,-118.2644,S_LF
-0.246582,-0.6901855,0.8154297,-1.276412,-0.1646488,0.534145,-38.07658,13.53406,-40.89436,-39.01353,12.99713,-41.94932,-0.3566895,-0.2167969,-0.2224121,-0.8542824,0.2430381,-0.6570077,-25.86548,50.53339,-118.2103,-27.28254,48.95176,-118.0506,S_LF
-0.2412109,-0.6899414,0.8427734,-1.032137,-0.1188473,0.534145,-38.0933,13.5115,-40.88781,-38.20465,12.48738,-40.93331,-0.3608398,-0.2102051,-0.2226563,-0.9916873,0.3346412,-0.07685494,-25.89015,50.52129,-118.2085,-26.37035,49.68233,-118.0656,S_LF
-0.246582,-0.6833496,0.8127441,-0.1161069,0.04909158,0.4272748,-38.10953,13.50346,-40.89961,-38.81939,13.0735,-41.79217,-0.3520508,-0.2158203,-0.223877,-0.3504658,-0.4592519,-0.2142596,-25.92421,50.47548,-118.2165,-27.3525,48.54596,-118.4646,S_LF
-0.2531738,-0.6821289,0.8317871,-0.2840458,0.4002366,0.3662061,-38.11354,13.50375,-40.90014,-38.1156,13.24373,-41.17746,-0.3522949,-0.2055664,-0.2192383,-0.4268017,-0.382916,-0.0310533,-25.93909,50.451,-118.2178,-26.35425,49.53297,-118.2581,S_LF
-0.2441406,-0.6804199,0.8283691,-0.1161069,0.5681756,0.3356718,-38.11766,13.49863,-40.89941,-38.23424,12.82998,-41.11028,-0.3554688,-0.2160645,-0.2202148,-0.3199313,0.1667023,0.4116948,-25.97121,50.42517,-118.2057,-27.32587,49.04541,-117.896,S_LF
-0.2451172,-0.6772461,0.8312988,0.4945802,0.5834427,0.2593359,-38.10862,13.49419,-40.89598,-38.00488,12.8766,-40.90574,-0.3552246,-0.2226563,-0.2253418,-0.1214581,0.1972366,-0.2753282,-26.0114,50.38504,-118.2108,-27.89179,48.27353,-118.2582,S_LF
-0.2431641,-0.6870117,0.842041,-0.08557248,0.9040535,-0.06127481,-38.10954,13.48985,-40.89648,-38.09143,12.61242,-40.87577,-0.3464355,-0.2246094,-0.2163086,0.1686182,0.7010534,0.2132213,-26.06487,50.34783,-118.1965,-28.80846,48.00919,-117.6503,S_LF
-0.2443848,-0.689209,0.8210449,0.738855,0.0,0.5036107,-38.11285,13.4769,-40.90494,-38.81826,12.84262,-41.68949,-0.3486328,-0.2128906,-0.2229004,0.4128931,0.4262443,0.2437558,-26.0824,50.31711,-118.2016,-27.22485,48.51957,-118.6197,S_LF
-0.2509766,-0.6767578,0.8205566,0.5861833,0.9651221,0.8547558,-38.1078,13.48614,-40.90184,-38.26242,13.27676,-41.33624,-0.3522949,-0.2104492,-0.2341309,-0.09092379,-0.3218473,0.4727633,-26.09102,50.27067,-118.2252,-26.45107,48.21598,-119.7065,S_LF
-0.2351074,-0.6860352,0.8571777,0.06709921,0.0,0.9921603,-38.09797,13.45816,-40.87484,-37.66224,12.08687,-40.23242,-0.354248,-0.2131348,-0.2272949,-0.6863437,-0.382916,0.4574962,-26.11642,50.23294,-118.23,-26.85682,48.66558,-118.8015,S_LF
-0.2431641,-0.6848145,0.8220215,0.7693894,0.6139771,0.793687,-38.09711,13.45411,-40.87524,-38.62017,12.8045,-41.47815,-0.3603516,-0.2114258,-0.2128906,-0.5642061,-0.5661222,0.4727633,-26.1384,50.22432,-118.1985,-26.80066,50.21828,-117.0014,S_LF
-0.2446289,-0.6801758,0.7895508,0.5556489,0.5376411,0.7173512,-38.116,13.45714,-40.89667,-39.45028,13.21043,-42.47393,-0.3515625,-0.215332,-0.2229004,-0.6710763,-0.902,0.5338321,-26.17188,50.1795,-118.1952,-27.35204,48.60189,-118.3988,S_LF
-0.2478027,-0.6801758,0.8117676,-0.2077099,0.4613054,0.3662061,-38.13069,13.45771,-40.90823,-38.70824,13.16937,-41.72561,-0.355957,-0.2163086,-0.2258301,0.0,-0.993603,0.610168,-26.19172,50.13531,-118.1916,-27.16356,48.70038,-118.4654,S_LF
-0.2583008,-0.6796875,0.8359375,-0.6809924,0.873519,0.5646794,-38.13492,13.47104,-40.90211,-37.84162,13.48203,-41.01734,-0.3532715,-0.2224121,-0.2243652,-0.8542824,-1.237878,0.5185649,-26.23937,50.07951,-118.1858,-27.98856,48.19449,-118.2563,S_LF
-0.2583008,-0.6831055,0.8552246,-0.4061831,0.8277176,0.5036107,-38.12585,13.47854,-40.88707,-37.40261,13.27818,-40.49531,-0.3562012,-0.2324219,-0.2216797,0.0,-1.558489,0.0,-26.2943,50.01419,-118.1726,-28.9856,47.95889,-117.5287,S_LF
-0.2631836,-0.6933594,0.8566895,0.1739695,0.7055801,0.8089542,-38.11533,13.48795,-40.87508,-37.72776,13.4306,-40.88245,-0.3588867,-0.2133789,-0.2145996,0.0,-2.138641,0.9918472,-26.30911,49.98178,-118.1396,-27.03468,49.86106,-117.202,S_LF
-0.263916,-0.6821289,0.8603516,0.738855,0.2933664,0.0,-38.08612,13.49254,-40.86495,-37.16169,13.51581,-40.36859,-0.3508301,-0.2121582,-0.213623,0.0,-1.60429,0.7933741,-26.32926,49.93328,-118.1094,-27.31693,49.36454,-117.5214,S_LF
-0.2590332,-0.7021484,0.8618164,0.0,0.01855725,0.9005573,-38.08366,13.48544,-40.84678,-37.9631,13.11696,-40.9712,-0.3544922,-0.2062988,-0.2133789,-0.8084807,-0.993603,0.610168,-26.34458,49.92125,-118.0879,-26.50077,50.06218,-117.4855,S_LF
-0.2648926,-0.6921387,0.854248,1.288473,-0.1035802,0.534145,-38.05776,13.48514,-40.84085,-37.73554,13.54618,-40.94303,-0.3439941,-0.2138672,-0.213623,-0.8084807,0.0,0.7781069,-26.3856,49.89668,-118.0716,-27.84126,48.69294,-117.8067,S_LF
-0.2626953,-0.6921387,0.8774414,2.051832,-0.439458,0.0,-38.01,13.47396,-40.82713,-37.07742,13.22779,-40.15496,-0.3583984,-0.2141113,-0.2163086,-0.06038928,-0.6119237,0.0,-26.40055,49.88299,-118.058,-27.08861,49.66163,-117.3897,S_LF
-0.2641602,-0.6872559,0.8654785,2.067099,-0.1493817,0.6104809,-37.96374,13.47114,-40.80938,-37.21621,13.44289,-40.38829,-0.354248,-0.2097168,-0.2167969,-0.1214581,-0.3676488,0.86971,-26.41015,49.87165,-118.0395,-26.79147,49.58654,-117.7725,S_LF
-0.2670898,-0.6867676,0.8664551,2.189237,-0.179916,0.4120076,-37.91513,13.4707,-40.79473,-37.14201,13.58102,-40.37948,-0.3530273,-0.2070313,-0.2116699,-0.1061909,-1.146275,1.129252,-26.41742,49.85876,-118.0102,-26.70078,50.01338,-117.3483,S_LF
-0.2578125,-0.6889648,0.8530273,1.944962,0.1406947,0.2593359,-37.88431,13.46783,-40.79074,-37.70873,13.23115,-40.77338,-0.3566895,-0.2099609,-0.2058105,0.06174803,-1.268412,1.35826,-26.42846,49.85299,-117.9588,-27.01486,50.50216,-116.4389,S_LF
-0.2438965,-0.6889648,0.8554688,2.067099,0.1254275,0.4730763,-37.8514,13.45071,-40.77814,-37.75789,12.51916,-40.50859,-0.3603516,-0.2133789,-0.208252,0.0,-4.779863,1.373527,-26.44276,49.79356,-117.9082,-27.14349,50.39515,-116.4399,S_LF
-0.244873,-0.6826172,0.8745117,2.555649,-0.4852595,0.0,-37.79542,13.4235,-40.75594,-36.93065,12.44722,-39.66803,-0.3583984,-0.2058105,-0.2097168,0.0,-0.6119237,1.068183,-26.4412,49.80176,-117.8725,-26.36455,50.65317,-116.9048,S_LF
-0.2546387,-0.6791992,0.8632813,2.112901,-0.5463283,-0.07654199,-37.74923,13.40804,-40.74271,-37.03899,13.0517,-40.03833,-0.357666,-0.2080078,-0.213623,0.6419008,-0.8867329,0.8391757,-26.43359,49.79637,-117.8488,-26.53261,50.18408,-117.3075,S_LF
-0.2585449,-0.6796875,0.8398438,1.532748,0.0,-0.2444809,-37.72614,13.40903,-40.74922,-37.72124,13.4578,-40.8885,-0.361084,-0.2050781,-0.2175293,0.6266336,-0.993603,0.5185649,-26.41517,49.79435,-117.8377,-25.9425,50.37706,-117.6474,S_LF
-0.2529297,-0.6723633,0.8388672,0.5403817,-0.9280076,-0.336084,-37.71425,13.3929,-40.75034,-37.50228,13.23914,-40.57507,-0.3549805,-0.1928711,-0.2199707,0.9625113,-1.283679,0.4880307,-26.36851,49.78973,-117.8451,-24.78961,50.5069,-118.5679,S_LF
-0.2568359,-0.6745605,0.829834,0.6777863,-0.05777865,-0.6108932,-37.70662,13.39429,-40.76466,-37.83089,13.50462,-41.01719,-0.3608398,-0.2106934,-0.2241211,0.9930458,-1.71116,0.0,-26.35418,49.75984,-117.8523,-26.38183,49.55325,-118.2078,S_LF
-0.2565918,-0.6706543,0.8273926,0.9373282,0.171229,-0.763565,-37.69365,13.39983,-40.77966,-37.74665,13.54542,-40.95354,-0.362793,-0.2116699,-0.2211914,1.756404,-1.665359,0.0,-26.33261,49.73859,-117.8507,-26.48056,49.83969,-117.7718,S_LF
-0.2651367,-0.6806641,0.838623,0.0,0.09489316,-0.946771,-37.69449,13.40897,-40.79821,-37.73588,13.79207,-41.05739,-0.3439941,-0.215332,-0.2124023,2.168618,-0.9325343,0.86971,-26.3349,49.70363,-117.8335,-28.04082,48.67606,-117.6264,S_LF
-0.2585449,-0.685791,0.8325195,0.7235878,-0.02724427,-0.6566947,-37.6938,13.40998,-40.81907,-38.19178,13.47959,-41.35907,-0.3615723,-0.2126465,-0.2180176,2.183886,-0.5966565,0.4880307,-26.31073,49.69864,-117.8189,-26.73184,49.89286,-117.4631,S_LF
-0.2480469,-0.6721191,0.8369141,0.647252,-0.3020534,-0.5498245,-37.68233,13.39758,-40.82207,-37.59574,13.0119,-40.56475,-0.3588867,-0.2075195,-0.2180176,1.603733,-0.7035267,0.6559694,-26.28848,49.6953,-117.8083,-26.29813,50.01406,-117.7396,S_LF
-0.2473145,-0.668457,0.8205566,0.906794,0.3849695,-0.168145,-37.67531,13.39796,-40.82749,-37.95357,13.15257,-40.97778,-0.3491211,-0.2087402,-0.222168,0.8251068,-0.4745191,0.5949008,-26.28593,49.67188,-117.8162,-26.76761,48.87315,-118.6426,S_LF
-0.2490234,-0.6674805,0.8337402,0.6777863,0.430771,-0.1986794,-37.66168,13.39883,-40.82413,-37.4918,13.12488,-40.51346,-0.3527832,-0.2143555,-0.2131348,0.580832,-0.7340611,0.2895572,-26.30122,49.65582,-117.8018,-27.47751,49.40836,-117.308,S_LF
-0.2507324,-0.6704102,0.8383789,0.2961069,-0.2562519,-0.1986794,-37.65322,13.39003,-40.82034,-37.45654,13.14703,-40.48892,-0.3554688,-0.2141113,-0.2145996,0.4434273,-1.024137,0.1216183,-26.31467,49.6395,-117.791,-27.27801,49.54237,-117.3454,S_LF
-0.2453613,-0.6728516,0.8186035,0.1892367,-1.157015,-0.07654199,-37.66186,13.3671,-40.82864,-38.21491,13.03715,-41.18252,-0.359375,-0.2192383,-0.2197266,0.2449541,-1.192076,-0.1989923,-26.3347,49.61283,-117.7893,-27.496,49.18255,-117.5624,S_LF
-0.246582,-0.677002,0.8251953,0.1434351,-2.408924,0.2288015,-37.66991,13.32451,-40.83121,-38.16982,13.00817,-41.12546,-0.364502,-0.2211914,-0.2145996,0.06174803,-0.7035267,-0.6264734,-26.35923,49.60595,-117.7771,-27.60651,49.78551,-116.7172,S_LF
-0.2421875,-0.6806641,0.8374023,-0.3603816,-2.393656,0.3356718,-37.68149,13.27582,-40.82537,-37.98371,12.64908,-40.7859,-0.3686523,-0.2253418,-0.2216797,-0.7779465,-0.7035267,-0.6417403,-26.39643,49.59126,-117.7742,-27.64749,49.38842,-117.1608,S_LF
-0.232666,-0.6853027,0.8393555,-0.6351909,-1.630298,0.793687,-37.70111,13.2287,-40.81257,-38.19548,12.11847,-40.76907,-0.3693848,-0.2167969,-0.2150879,-1.663443,-0.2149771,-0.4738016,-26.4292,49.60483,-117.7585,-26.89386,50.41756,-116.665,S_LF
-0.2426758,-0.685791,0.8435059,-0.9863358,-1.477626,1.068496,-37.72065,13.19553,-40.79717,-38.00164,12.58382,-40.77536,-0.3632813,-0.2089844,-0.2163086,-1.312298,0.9758626,-0.5501375,-26.44595,49.63463,-117.7574,-26.30239,50.37756,-117.2993,S_LF
-0.2421875,-0.6745605,0.8388672,-0.9099999,-1.355489,1.526511,-37.73339,13.16529,-40.76899,-37.68892,12.67976,-40.51023,-0.3618164,-0.204834,-0.2143555,-0.7932138,2.075099,-0.4890685,-26.44808,49.68579,-117.755,-25.96915,50.66731,-117.2737,S_LF
-0.2424316,-0.6711426,0.8269043,-0.8031298,-1.324954,1.144832,-37.74879,13.13899,-40.75264,-37.91323,12.82414,-40.79292,-0.3613281,-0.2182617,-0.2148438,-0.1519923,1.80029,-0.01578617,-26.47012,49.71284,-117.7396,-27.43861,49.71542,-116.9737,S_LF
-0.2480469,-0.6635742,0.8195801,-0.5283206,-1.263885,0.4120076,-37.75705,13.12236,-40.74831,-37.77345,13.23646,-40.8391,-0.3630371,-0.1984863,-0.2067871,0.4586947,1.58655,0.1674199,-26.4422,49.77606,-117.7134,-25.41122,51.70755,-116.5551,S_LF
-0.2434082,-0.6633301,0.8149414,0.0,-1.615031,-0.4429542,-37.76093,13.09702,-40.75838,-37.9512,13.04228,-40.9263,-0.3522949,-0.1977539,-0.2114258,0.6113663,1.647618,0.9765801,-26.419,49.81492,-117.6982,-25.70186,50.58865,-117.6243,S_LF
-0.2580566,-0.6601563,0.8222656,0.0,-1.966176,-1.267382,-37.75476,13.08313,-40.77583,-37.45257,13.75139,-40.76167,-0.3544922,-0.2038574,-0.2175293,1.359458,1.20487,0.8544428,-26.39287,49.83507,-117.6919,-26.11152,49.9367,-118.0107,S_LF
-0.2590332,-0.6672363,0.8444824,-0.4977863,-1.99671,-1.435321,-37.74831,13.06276,-40.78709,-37.06652,13.53241,-40.28342,-0.3500977,-0.2036133,-0.2182617,2.015946,0.7315878,0.9460459,-26.36271,49.83939,-117.6915,-26.26795,49.54935,-118.3209,S_LF
-0.2600098,-0.6723633,0.8291016,0.9525955,-1.981443,-1.908603,-37.73492,13.04811,-40.81766,-37.73255,13.68935,-41.00628,-0.3520508,-0.2092285,-0.2158203,2.290756,0.4720459,0.3811603,-26.3392,49.83971,-117.6879,-26.87052,49.50835,-117.7889,S_LF
-0.2478027,-0.6665039,0.8251953,0.9373282,-2.10358,-2.336084,-37.72093,13.01921,-40.85068,-37.72431,13.14919,-40.75181,-0.3513184,-0.2104492,-0.2290039,1.573198,-0.2149771,0.6407022,-26.32226,49.80939,-117.709,-26.64877,48.48199,-119.2134,S_LF
-0.2614746,-0.6748047,0.8320313,0.3113741,-2.973809,-2.061275,-37.71654,12.98944,-40.8843,-37.73005,13.71641,-41.01641,-0.354248,-0.2089844,-0.2148438,0.5044961,-1.329481,0.7475727,-26.32424,49.79029,-117.6962,-26.7673,49.76627,-117.5806,S_LF
-0.2543945,-0.6779785,0.8535156,0.00603056,-2.378389,-0.9009695,-37.70772,12.95975,-40.88521,-37.27994,13.13684,-40.31175,-0.3571777,-0.2004395,-0.204834,1.298389,-2.077573,0.0,-26.29781,49.7891,-117.6736,-25.95711,51.25751,-116.5702,S_LF
-0.2453613,-0.6726074,0.8320313,0.8762596,-2.149382,-0.4124198,-37.69647,12.92729,-40.88781,-37.78929,12.91641,-40.712,-0.3635254,-0.1989746,-0.217041,3.435794,-3.069939,0.7933741,-26.22478,49.76806,-117.6613,-25.17155,50.99356,-117.6422,S_LF
-0.2380371,-0.6567383,0.8249512,0.4182443,-4.347855,-1.618527,-37.68463,12.85925,-40.89899,-37.41194,12.7211,-40.25702,-0.3637695,-0.1889648,-0.213623,5.893809,-1.756962,0.5643663,-26.09623,49.78492,-117.6503,-24.12933,51.9025,-117.5254,S_LF
-0.2514648,-0.6674805,0.8552246,-0.6351909,-5.126481,-3.038374,-37.67678,12.78771,-40.92225,-36.82501,13.05029,-39.8289,-0.3693848,-0.2062988,-0.2084961,6.32129,-0.993603,0.0,-26.00631,49.80656,-117.622,-25.93666,51.54882,-116.2338,S_LF
-0.2438965,-0.6711426,0.8476563,0.1892367,-4.271519,-3.908603,-37.66599,12.7276,-40.95966,-37.26722,12.71219,-40.11156,-0.3669434,-0.2160645,-0.2243652,5.970145,-1.970702,0.0,-25.93188,49.77492,-117.6252,-26.67299,49.67316,-117.7843,S_LF
-0.2380371,-0.666748,0.8295898,0.2045038,-3.111214,-4.30555,-37.66341,12.67945,-41.01331,-37.68735,12.60686,-40.47717,-0.3640137,-0.2141113,-0.2333984,4.550298,-2.30658,0.0,-25.87767,49.72725,-117.6513,-26.34254,48.97323,-118.9279,S_LF
-0.2546387,-0.6713867,0.8530273,-0.3603816,-2.378389,-4.168145,-37.65554,12.65725,-41.05202,-37.02281,13.20128,-40.08969,-0.359375,-0.2102051,-0.2270508,3.909076,-1.71116,0.0,-25.82889,49.69299,-117.6704,-26.31213,49.27209,-118.606,S_LF
-0.2600098,-0.6672363,0.8581543,-0.390916,-2.256252,-3.297916,-37.64125,12.63998,-41.07634,-36.65364,13.452,-39.8441,-0.3623047,-0.208252,-0.223877,4.21442,-1.039405,0.610168,-25.77564,49.68162,-117.6722,-26.05753,49.83787,-118.1793,S_LF
-0.2526855,-0.6645508,0.8266602,0.6167176,-2.454725,-2.885702,-37.63101,12.6215,-41.10835,-37.55254,13.40006,-40.6972,-0.3659668,-0.2075195,-0.2233887,4.138084,-0.9783359,0.0,-25.71584,49.67762,-117.6781,-25.82701,50.20068,-117.9675,S_LF
-0.2436523,-0.6608887,0.8273926,0.219771,-2.48526,-2.549824,-37.62437,12.59169,-41.13183,-37.46034,12.95771,-40.40827,-0.3684082,-0.2099609,-0.223877,3.466328,0.0,-0.7944121,-25.66993,49.6881,-117.6929,-25.96782,50.20171,-117.8325,S_LF
-0.2412109,-0.6660156,0.8352051,-0.2535114,-2.195183,-2.244481,-37.62474,12.56207,-41.14822,-37.45634,12.72408,-40.30177,-0.3608398,-0.2124023,-0.2299805,2.825107,-1.558489,-0.2142596,-25.64575,49.65407,-117.7175,-26.39915,49.05563,-118.7781,S_LF
-0.2387695,-0.6655273,0.8366699,-0.4519846,-1.569229,-1.954405,-37.6267,12.5411,-41.15609,-37.41272,12.58983,-40.20087,-0.3652344,-0.2155762,-0.21875,2.489229,-1.863832,-0.2905953,-25.63337,49.63239,-117.7131,-26.8561,49.93974,-117.284,S_LF
-0.2380371,-0.6755371,0.848877,0.02129769,-1.050145,-1.755931,-37.62307,12.52235,-41.16191,-37.46097,12.37546,-40.15634,-0.3635254,-0.2126465,-0.222168,2.229687,-1.802763,0.1368854,-25.61842,49.60863,-117.7131,-26.5249,49.76956,-117.8127,S_LF
-0.2409668,-0.6755371,0.8537598,0.8609924,-0.7906031,-1.465855,-37.60374,12.50989,-41.16088,-37.28927,12.48038,-40.03299,-0.3659668,-0.2104492,-0.21875,1.848008,-1.60429,0.5796337,-25.60611,49.60097,-117.6987,-26.27069,50.32642,-117.3917,S_LF
-0.2478027,-0.6765137,0.8500977,1.502214,-0.4241909,-1.435321,-37.57866,12.51084,-41.16299,-37.38016,12.8487,-40.28175,-0.3693848,-0.2119141,-0.2104492,1.909076,-1.329481,0.7933741,-25.59583,49.61028,-117.659,-26.49492,51.04351,-116.2977,S_LF
-0.2331543,-0.6875,0.8549805,1.68542,-0.08831299,-1.22158,-37.55838,12.49929,-41.16438,-37.80371,11.99783,-40.33442,-0.3662109,-0.2128906,-0.2133789,1.924343,-1.314214,0.8086412,-25.58902,49.60962,-117.6287,-26.66988,50.54313,-116.7359,S_LF
-0.2375488,-0.6782227,0.8620605,2.204504,-0.179916,-1.191046,-37.5184,12.49105,-41.1549,-37.17945,12.21976,-39.81485,-0.3632813,-0.2045898,-0.2109375,1.909076,-1.573756,0.0,-25.57039,49.61645,-117.6128,-25.96724,51.03077,-116.8363,S_LF
-0.234375,-0.675293,0.8720703,2.38771,-0.2409847,-1.175779,-37.47107,12.47786,-41.13474,-36.78985,11.99667,-39.34042,-0.3686523,-0.213623,-0.2180176,1.893809,-1.741695,0.86971,-25.56132,49.60604,-117.5898,-26.50892,50.37637,-117.0983,S_LF
-0.2304688,-0.6782227,0.8574219,2.708321,0.03382444,-1.358985,-37.42935,12.46689,-41.12955,-37.37579,11.90444,-39.87621,-0.3647461,-0.2172852,-0.204834,1.970145,-1.98597,0.6865039,-25.55465,49.58302,-117.5376,-27.44808,50.69324,-115.7554,S_LF
-0.2250977,-0.6652832,0.8400879,2.448779,-0.1493817,-1.511657,-37.37385,12.45144,-41.13896,-37.41373,11.86282,-39.89638,-0.3647461,-0.215332,-0.2155762,1.588466,-1.512687,0.3048244,-25.55903,49.57163,-117.5218,-26.94107,50.12561,-116.9741,S_LF
-0.2312012,-0.6625977,0.8378906,1.227405,0.262832,-1.191046,-37.3547,12.45052,-41.13264,-37.31843,12.21248,-39.94789,-0.3583984,-0.2158203,-0.2077637,1.527397,-0.4287176,-0.1226563,-25.57726,49.5765,-117.5013,-27.51826,50.10888,-116.4095,S_LF
-0.2373047,-0.666748,0.8564453,0.0976336,-0.02724427,-1.191046,-37.34384,12.4478,-41.1177,-36.87867,12.33292,-39.56845,-0.3601074,-0.234375,-0.2092285,1.02358,-0.2302443,0.0147481,-25.63804,49.55952,-117.4703,-29.36884,48.89666,-115.9643,S_LF
-0.2192383,-0.6682129,0.8591309,0.3419085,-0.3936565,-0.7024961,-37.33199,12.42083,-41.09172,-37.00266,11.38879,-39.30276,-0.3635254,-0.2194824,-0.2138672,0.840374,-0.031771,-0.3974657,-25.66276,49.56525,-117.4614,-27.49175,49.86927,-116.7316,S_LF
-0.2224121,-0.6708984,0.8371582,0.6167176,-0.6531985,-0.3055496,-37.33146,12.39706,-41.07786,-37.7589,11.7124,-40.17405,-0.3598633,-0.2194824,-0.2094727,-0.4268017,-0.8256641,-0.9623513,-25.71166,49.55912,-117.4548,-27.79408,49.86586,-116.4252,S_LF
-0.2287598,-0.6674805,0.8442383,-0.390916,-1.141748,0.04559542,-37.33753,12.37233,-41.05339,-37.34768,12.00001,-39.88802,-0.3666992,-0.2148438,-0.2119141,0.0,-0.3981832,-1.145557,-25.73538,49.57304,-117.4526,-26.89739,50.54776,-116.5017,S_LF
-0.2321777,-0.6679688,0.8491211,-1.490153,-1.447092,0.4272748,-37.35652,12.34619,-41.02182,-37.19137,12.12877,-39.78839,-0.3659668,-0.215332,-0.2067871,-1.022222,0.02929771,-1.557771,-25.77819,49.59788,-117.4457,-27.12473,50.79349,-115.9659,S_LF
-0.2392578,-0.6713867,0.8498535,-1.673359,-2.21045,0.6257481,-37.37901,12.31592,-40.99189,-37.25088,12.45713,-39.98545,-0.3620605,-0.2207031,-0.2006836,-1.327565,-0.382916,-1.603572,-25.84343,49.61059,-117.4269,-28.06442,50.51491,-115.3273,S_LF
-0.2260742,-0.668457,0.8479004,-1.673359,-2.225718,0.6868168,-37.402,12.2734,-40.95732,-37.29853,11.826,-39.76838,-0.3657227,-0.2097168,-0.203125,-1.617641,-0.993603,-1.420366,-25.88125,49.63273,-117.4124,-26.62464,51.39925,-115.7253,S_LF
-0.2248535,-0.6689453,0.8430176,-1.764962,-1.660832,0.8547558,-37.42772,12.24117,-40.92513,-37.4777,11.8014,-39.93407,-0.3632813,-0.2077637,-0.1896973,-1.281764,-0.642458,-1.83258,-25.92013,49.67552,-117.3788,-26.88293,52.24456,-114.384,S_LF
-0.2263184,-0.6779785,0.8500977,-1.688626,-1.447092,0.442542,-37.45641,12.21023,-40.90126,-37.62093,11.75758,-40.05685,-0.3710938,-0.2116699,-0.2070313,0.2602212,-0.01650381,-1.603572,-25.92747,49.71006,-117.3719,-26.47878,51.41468,-115.855,S_LF
-0.2224121,-0.6711426,0.845459,-1.306947,-1.447092,-0.07654199,-37.47676,12.1776,-40.88246,-37.51347,11.64231,-39.90488,-0.3703613,-0.2128906,-0.2104492,0.7335038,-0.001236677,-1.374565,-25.92923,49.73689,-117.3692,-26.55452,51.05248,-116.2266,S_LF
-0.2172852,-0.6782227,0.8452148,-0.6199236,-1.233351,-0.4887558,-37.4934,12.14267,-40.87434,-37.8528,11.33779,-40.11753,-0.3647461,-0.2209473,-0.2053223,0.3518243,-0.6882596,-1.038687,-25.96204,49.74027,-117.3512,-27.82814,50.41154,-115.7095,S_LF
-0.2207031,-0.6816406,0.8334961,-0.390916,-0.8211374,-0.7177633,-37.51585,12.11942,-40.88106,-38.32861,11.58376,-40.68262,-0.361084,-0.2058105,-0.2028809,-0.1672597,0.0,-0.2295268,-25.97356,49.77202,-117.3277,-26.42346,51.32774,-116.0189,S_LF
-0.2104492,-0.6838379,0.8381348,-0.3756489,-0.07304579,-0.2292137,-37.53781,12.09622,-40.87631,-38.35597,11.00946,-40.48629,-0.3642578,-0.2312012,-0.208252,-0.6863437,-1.131008,-0.04632068,-26.0413,49.74985,-117.2972,-28.85572,49.49471,-115.7663,S_LF
-0.2197266,-0.6791992,0.848877,-0.2077099,-0.179916,0.09139694,-37.54533,12.08018,-40.85868,-37.7609,11.42622,-40.0619,-0.361084,-0.2150879,-0.2097168,-0.5184045,-1.436351,-0.4585342,-26.07315,49.73856,-117.2884,-27.25286,50.241,-116.5183,S_LF
-0.2197266,-0.6728516,0.8466797,0.00603056,-0.3936565,0.3356718,-37.54569,12.06248,-40.83448,-37.56798,11.4846,-39.89545,-0.3728027,-0.213623,-0.1994629,-0.06038928,-0.7951298,-0.5196033,-26.08867,49.77019,-117.2483,-26.80507,51.9045,-114.9018,S_LF
-0.2075195,-0.6704102,0.8498535,-0.1466411,-0.02724427,0.2593359,-37.54622,12.03788,-40.80496,-37.46432,10.85264,-39.54927,-0.3708496,-0.2199707,-0.21875,0.0,-0.4287176,-0.428,-26.10815,49.77022,-117.2476,-27.06229,50.0868,-116.9,S_LF
-0.220459,-0.6625977,0.8466797,-0.3603816,-0.05777865,-0.03074045,-37.54335,12.02803,-40.77961,-37.1378,11.58807,-39.51457,-0.3718262,-0.2197266,-0.206543,-0.1214581,0.3041069,-0.3821983,-26.13418,49.79842,-117.2194,-27.3204,50.95691,-115.5582,S_LF
-0.2177734,-0.6711426,0.8405762,-0.6199236,0.03382444,-0.2750153,-37.55561,12.01688,-40.76826,-37.70093,11.44536,-40.01052,-0.361084,-0.2167969,-0.203125,-0.09092379,0.9453281,-0.260061,-26.16519,49.8265,-117.1936,-27.62259,50.55368,-115.7475,S_LF
-0.2277832,-0.6760254,0.8435059,-0.6809924,0.5681756,-0.5192901,-37.56845,12.02232,-40.76446,-37.73027,11.89926,-40.22184,-0.3544922,-0.2121582,-0.2087402,0.0922823,0.9758626,0.182687,-26.18615,49.84398,-117.1831,-27.28095,49.98333,-116.8059,S_LF
-0.2324219,-0.6762695,0.8413086,-0.574122,0.9345879,-0.8093664,-37.5809,12.03864,-40.76835,-37.76878,12.1515,-40.36384,-0.362793,-0.220459,-0.215332,0.1838853,0.3651755,0.4269619,-26.21152,49.84555,-117.1711,-27.58966,49.65398,-116.8955,S_LF
-0.2294922,-0.6774902,0.8444824,-0.1771755,0.690313,-0.5803587,-37.58681,12.04737,-40.76683,-37.74623,11.96793,-40.26567,-0.3596191,-0.2192383,-0.2038574,0.5350306,-0.1386412,0.182687,-26.23874,49.85121,-117.1417,-27.93943,50.2237,-115.8278,S_LF
-0.2211914,-0.6767578,0.8381348,-0.299313,-0.08831299,-0.4887558,-37.59878,12.03728,-40.76515,-37.98011,11.60324,-40.3476,-0.3598633,-0.2207031,-0.2116699,0.5044961,-0.3065802,-0.3058627,-26.26379,49.84254,-117.136,-27.86232,49.64315,-116.6295,S_LF
-0.2241211,-0.677002,0.8535156,-0.6809924,-0.607397,-0.4582213,-37.60672,12.02011,-40.75417,-37.49484,11.62507,-39.87966,-0.3642578,-0.2246094,-0.2119141,0.229687,-0.5050534,-0.7333436,-26.29628,49.83248,-117.1309,-28.05706,49.71042,-116.3444,S_LF
-0.2175293,-0.6872559,0.8383789,-0.8031298,-0.5310611,-0.2750153,-37.63501,11.99882,-40.75693,-38.43094,11.34632,-40.68981,-0.3581543,-0.2209473,-0.2019043,-0.07565641,-0.07757253,-0.7028093,-26.33646,49.83706,-117.1106,-28.25339,50.11499,-115.631,S_LF
-0.2167969,-0.6879883,0.8395996,-0.4825191,-0.3631221,-0.2292137,-37.6575,11.97976,-40.75828,-38.42852,11.2948,-40.66737,-0.362793,-0.2192383,-0.2080078,-0.640542,0.04456491,-0.5959387,-26.37246,49.84508,-117.0999,-27.6658,50.2051,-116.1376,S_LF
-0.2243652,-0.6867676,0.8391113,-0.6199236,-0.1035802,0.3204046,-37.68011,11.97245,-40.75299,-38.33236,11.69051,-40.72898,-0.3588867,-0.2155762,-0.2163086,-1.403901,-0.4897862,-0.5348701,-26.41013,49.83307,-117.1122,-27.22403,49.6044,-117.3242,S_LF
-0.229248,-0.6796875,0.842041,-0.7115266,0.01855725,0.8089542,-37.69523,11.9725,-40.73457,-37.91295,11.96119,-40.42659,-0.3630371,-0.2194824,-0.2172852,-1.159626,-0.4745191,-0.4432673,-26.44734,49.82166,-117.1189,-27.41827,49.61131,-117.1211,S_LF
-0.2214355,-0.6813965,0.8361816,-0.5283206,-0.1341145,0.0,-37.71367,11.9631,-40.7317,-38.22882,11.60097,-40.59129,-0.364502,-0.2160645,-0.203125,-0.9458857,0.05983204,-0.9318166,-26.47887,49.84342,-117.1016,-27.37486,50.86876,-115.6119,S_LF
-0.2265625,-0.6794434,0.8425293,-0.833664,-0.3783893,0.9158244,-37.72904,11.9551,-40.71185,-37.9103,11.82263,-40.36738,-0.3613281,-0.2165527,-0.2106934,-0.7626796,0.3804427,-0.4585342,-26.50795,49.85411,-117.0977,-27.37216,50.09815,-116.5724,S_LF
-0.2263184,-0.6816406,0.8334961,-0.8794656,-0.6379313,0.8547558,-37.75302,11.94402,-40.70008,-38.28164,11.87022,-40.75171,-0.3657227,-0.213623,-0.2053223,-0.7168779,0.01403052,-0.2753282,-26.52745,49.87695,-117.0768,-26.99128,50.98668,-115.8629,S_LF
-0.2229004,-0.6831055,0.8383789,-0.5893893,-0.8058702,0.7478855,-37.77041,11.92701,-40.6878,-38.21822,11.64639,-40.59901,-0.3710938,-0.217041,-0.2062988,-0.7321453,-0.1386412,-0.1226563,-26.54918,49.89936,-117.0498,-27.07556,51.09926,-115.635,S_LF
-0.2243652,-0.6706543,0.8505859,-0.1771755,-0.7448015,0.6257481,-37.76403,11.91157,-40.65966,-37.32134,11.70253,-39.74063,-0.3615723,-0.2163086,-0.213623,-0.5184045,-0.5050534,-0.0310533,-26.57033,49.89329,-117.0469,-27.25142,49.94254,-116.8856,S_LF
-0.2260742,-0.6784668,0.8361816,-0.2382443,-0.6379313,0.534145,-37.77343,11.90173,-40.64991,-38.07034,11.85695,-40.53859,-0.3579102,-0.2180176,-0.2077637,-0.4268017,-0.031771,-0.0310533,-26.60082,49.89338,-117.0338,-27.78085,49.92138,-116.3702,S_LF
-0.2253418,-0.6791992,0.8395996,-0.1771755,-0.3631221,0.3662061,-37.78058,11.89409,-40.64036,-38.00069,11.78646,-40.44152,-0.3630371,-0.2148438,-0.2041016,-0.1519923,0.1514351,0.06054974,-26.61679,49.91327,-117.0087,-27.28737,50.77626,-115.8191,S_LF
-0.2199707,-0.6730957,0.838623,-0.131374,-0.4241909,0.3356718,-37.78339,11.88119,-40.62617,-37.82423,11.56093,-40.17753,-0.3640137,-0.2148438,-0.2109375,-0.09092379,0.1972366,-0.01578617,-26.62682,49.926,-116.9991,-27.05177,50.40493,-116.521,S_LF
-0.2287598,-0.6743164,0.8356934,0.02129769,-0.1951832,0.2593359,-37.78525,11.88122,-40.61849,-37.8923,12.02617,-40.43307,-0.3688965,-0.2211914,-0.2058105,-0.1519923,0.3651755,0.182687,-26.64927,49.94649,-116.9679,-27.6376,50.682,-115.5705,S_LF
-0.2192383,-0.6755371,0.8381348,-0.2077099,-0.2562519,0.3509389,-37.79152,11.87006,-40.60651,-37.94585,11.51149,-40.27742,-0.3659668,-0.2160645,-0.2067871,0.04648089,0.578916,0.1979542,-26.65972,49.97038,-116.9447,-27.20375,50.74382,-115.9462,S_LF
-0.2236328,-0.6779785,0.8408203,-0.3145801,-0.2715191,0.4120076,-37.79855,11.86288,-40.5954,-37.92711,11.69762,-40.33335,-0.3686523,-0.2197266,-0.215332,-0.09092379,1.052198,-0.0005190372,-26.67253,49.98952,-116.9387,-27.23316,50.15425,-116.6449,S_LF
-0.2241211,-0.6835938,0.842041,-0.4061831,0.2322977,0.07612977,-37.81084,11.86255,-40.59255,-38.11475,11.67535,-40.50885,-0.362793,-0.2236328,-0.2177734,-0.1061909,1.388076,0.3200917,-26.69778,49.99596,-116.9366,-27.85703,49.29114,-117.0665,S_LF
-0.2285156,-0.6811523,0.8391113,-0.2535114,0.7666489,0.2288015,-37.81974,11.87534,-40.58875,-38.06912,11.93859,-40.57073,-0.3620605,-0.2177734,-0.2104492,-0.3351984,0.9758626,0.3964274,-26.71826,50.01217,-116.9216,-27.47527,50.0894,-116.4777,S_LF
-0.2312012,-0.6838379,0.8349609,-0.222977,0.7971831,0.5036107,-37.8323,11.89138,-40.58647,-38.28421,12.09131,-40.84501,-0.3601074,-0.2175293,-0.2104492,0.0006792545,0.0,0.5796337,-26.73476,50.01099,-116.9067,-27.54371,49.95317,-116.5753,S_LF
-0.2353516,-0.6848145,0.8422852,0.128168,0.4613054,0.8394885,-37.83515,11.90453,-40.57695,-38.0627,12.23266,-40.68625,-0.3625488,-0.2148438,-0.2131348,0.2449541,1.678153,0.8849771,-26.73767,50.03839,-116.8921,-27.06046,50.14737,-116.8279,S_LF
-0.2319336,-0.6806641,0.8393555,0.3266413,0.1101603,0.0,-37.8339,11.91033,-40.57716,-38.01276,12.11321,-40.58739,-0.3632813,-0.2145996,-0.2097168,0.1228168,1.036931,0.7323053,-26.743,50.06175,-116.8721,-27.09419,50.44455,-116.4292,S_LF
-0.2287598,-0.6748047,0.8369141,0.5403817,0.07962596,0.0,-37.82677,11.91354,-40.57381,-37.87469,12.01252,-40.41015,-0.3613281,-0.2145996,-0.2041016,-0.1367252,0.8537251,0.2742901,-26.7569,50.08544,-116.849,-27.34447,50.66053,-115.9043,S_LF
-0.2248535,-0.675293,0.8410645,0.0976336,0.06435877,0.961626,-37.82489,11.91166,-40.55393,-37.79937,11.77552,-40.2393,-0.3642578,-0.2145996,-0.2128906,-0.5336719,1.327008,0.5185649,-26.7688,50.10948,-116.8389,-26.95975,50.31202,-116.7279,S_LF
-0.2265625,-0.6726074,0.8354492,-0.2687786,0.3239008,0.8394885,-37.8293,11.91674,-40.53749,-37.84791,11.92759,-40.34895,-0.3615723,-0.2089844,-0.2128906,-0.7321453,1.098,0.3964274,-26.77372,50.13293,-116.8366,-26.47635,50.47488,-117.011,S_LF
-0.2319336,-0.6755371,0.8415527,-0.2687786,0.5376411,0.9005573,-37.83138,11.9289,-40.51994,-37.73537,12.12965,-40.32196,-0.3659668,-0.2099609,-0.220459,0.0,0.1209008,0.3353589,-26.76167,50.1368,-116.847,-26.17115,50.24334,-117.5878,S_LF
-0.2299805,-0.671875,0.845459,-0.299313,0.4765725,0.8700229,-37.82849,11.93731,-40.49818,-37.48181,12.0222,-40.02868,-0.3596191,-0.2160645,-0.2041016,0.0,-0.2455115,0.2284887,-26.77819,50.13899,-116.8255,-27.58815,50.42651,-115.9427,S_LF
-0.2333984,-0.6804199,0.8374023,-0.2687786,0.430771,0.5646794,-37.83688,11.94901,-40.49318,-38.05041,12.20574,-40.66292,-0.3647461,-0.2167969,-0.2109375,0.0,-0.1691756,0.5032978,-26.78718,50.14051,-116.8108,-27.22724,50.33124,-116.4333,S_LF
-0.2290039,-0.6711426,0.8464355,-0.009236574,0.2933664,0.6257481,-37.82887,11.95344,-40.47385,-37.42997,11.9693,-39.95601,-0.3591309,-0.2124023,-0.2155762,0.0,-0.3981832,0.350626,-26.78921,50.12944,-116.8159,-26.88911,49.8796,-117.3241,S_LF
-0.2280273,-0.6665039,0.8481445,0.3419085,0.1101603,0.7784199,-37.81116,11.95471,-40.44716,-37.19446,11.93617,-39.71154,-0.3652344,-0.2131348,-0.2165527,-1.022222,-0.3218473,0.5032978,-26.80956,50.12444,-116.8106,-26.65471,50.24236,-117.1169,S_LF
-0.2312012,-0.6706543,0.8540039,0.3113741,0.1254275,0.8242214,-37.79117,11.95884,-40.41394,-37.1628,12.01988,-39.7151,-0.3647461,-0.2177734,-0.2131348,-1.526038,-0.1844428,0.3353589,-26.83973,50.1219,-116.8027,-27.27101,50.12399,-116.6436,S_LF
-0.2333984,-0.675293,0.8481445,-0.1466411,0.2780993,0.8852901,-37.78761,11.96647,-40.39574,-37.51215,12.1494,-40.11129,-0.3659668,-0.2160645,-0.2050781,-1.602374,-0.1997099,0.2895572,-26.8715,50.13362,-116.7775,-27.25028,50.85468,-115.7596,S_LF
-0.234375,-0.670166,0.8461914,-0.2687786,0.2933664,0.702084,-37.78285,11.97646,-40.37745,-37.35245,12.25043,-39.99717,-0.3623047,-0.215332,-0.2119141,-1.648176,-0.1081069,0.5032978,-26.89986,50.13298,-116.769,-27.15903,50.17598,-116.6934,S_LF
-0.2312012,-0.6728516,0.8442383,-0.2077099,0.4613054,0.7784199,-37.78102,11.98502,-40.36165,-37.54906,12.08791,-40.12186,-0.3647461,-0.2099609,-0.2104492,-1.800848,-0.1844428,0.2132213,-26.91835,50.144,-116.7618,-26.50068,50.8193,-116.5671,S_LF
-0.232666,-0.6711426,0.838623,-0.1619084,0.262832,0.9768932,-37.78055,11.99363,-40.34536,-37.63806,12.22213,-40.26516,-0.3581543,-0.2143555,-0.2185059,-1.57184,0.09036642,0.4727633,-26.94282,50.13199,-116.7727,-27.06348,49.48145,-117.6317,S_LF
-0.2338867,-0.6765137,0.842041,-0.2840458,0.2017633,0.7784199,-37.78371,12.00088,-40.33512,-37.74395,12.21784,-40.36722,-0.3652344,-0.2155762,-0.2126465,-1.434435,0.05983204,0.3200917,-26.96415,50.13695,-116.7654,-27.02542,50.33876,-116.629,S_LF
-0.2211914,-0.6750488,0.840332,-0.009236574,0.3086336,0.5952138,-37.785,11.99703,-40.32443,-37.84188,11.59654,-40.20907,-0.3640137,-0.2121582,-0.2067871,-1.251229,0.227771,0.182687,-26.98075,50.15473,-116.7503,-26.87447,50.85855,-116.1417,S_LF
-0.2346191,-0.6791992,0.8491211,0.1129008,0.2017633,0.702084,-37.78028,12.00357,-40.31242,-37.63204,12.17618,-40.24002,-0.3637695,-0.2177734,-0.2131348,-1.602374,0.09036642,0.4116948,-27.01105,50.15393,-116.743,-27.31765,50.04839,-116.689,S_LF
-0.2338867,-0.6711426,0.8422852,0.1587023,0.1406947,0.8700229,-37.77266,12.01062,-40.29654,-37.51566,12.25266,-40.15801,-0.3635254,-0.2160645,-0.2097168,-1.724512,-0.2149771,0.3200917,-27.0393,50.15521,-116.7313,-27.2408,50.36522,-116.3775,S_LF
-0.2275391,-0.6772461,0.8442383,0.03656495,0.4002366,0.9005573,-37.7719,12.01336,-40.28305,-37.75988,11.87263,-40.24003,-0.3666992,-0.2128906,-0.2092285,-2.029855,-0.3981832,0.610168,-27.06355,50.16334,-116.713,-26.75964,50.85428,-116.2637,S_LF
-0.2260742,-0.677002,0.8376465,0.0976336,0.2475649,1.205901,-37.77432,12.01382,-40.26834,-37.9649,11.85463,-40.43404,-0.3637695,-0.2131348,-0.2133789,-1.78558,-0.3523817,0.7323053,-27.08474,50.16167,-116.7048,-26.81104,50.33886,-116.8442,S_LF
-0.2385254,-0.6669922,0.8532715,0.4335115,0.7666489,1.022695,-37.75193,12.03322,-40.24192,-36.97342,12.42049,-39.69839,-0.3735352,-0.2114258,-0.208252,-1.602374,-0.07757253,0.5338321,-27.09116,50.18804,-116.681,-26.30652,51.53363,-115.8821,S_LF
-0.2351074,-0.6791992,0.8427734,0.6014504,0.3239008,1.205901,-37.74506,12.0421,-40.2297,-37.82109,12.25488,-40.45844,-0.3630371,-0.2163086,-0.2128906,-1.617641,-0.2455115,0.6712368,-27.11716,50.18276,-116.6723,-27.20203,50.10435,-116.7377,S_LF
-0.2363281,-0.670166,0.84375,0.219771,-0.3020534,1.343305,-37.73513,12.04423,-40.20745,-37.41006,12.37064,-40.10442,-0.3625488,-0.2080078,-0.2084961,-1.816114,-1.176809,0.7933741,-27.12861,50.18119,-116.6582,-26.44384,50.91166,-116.5108,S_LF
-0.2287598,-0.6672363,0.8464355,0.5098474,-0.3325878,1.328038,-37.71885,12.03844,-40.18119,-37.27068,11.983,-39.80553,-0.3652344,-0.2124023,-0.208252,-1.57184,-1.298947,0.610168,-27.1452,50.17525,-116.6408,-26.80279,50.8392,-116.2386,S_LF
-0.2277832,-0.673584,0.8391113,0.4029771,-0.2867863,1.114298,-37.71384,12.03251,-40.16674,-37.7649,11.95249,-40.27766,-0.3710938,-0.2119141,-0.2126465,-1.358099,-0.6882596,0.6712368,-27.14807,50.18286,-116.6279,-26.35709,51.02758,-116.4552,S_LF
-0.2294922,-0.6757813,0.840332,0.2350382,-0.05777865,0.702084,-37.71241,12.03135,-40.16058,-37.80339,12.01433,-40.3409,-0.3603516,-0.2084961,-0.2185059,-0.3962674,-0.5203207,0.6407022,-27.13741,50.17221,-116.6398,-26.32354,50.03285,-117.6926,S_LF
-0.2297363,-0.671875,0.84375,0.6777863,-0.2562519,0.4272748,-37.69891,12.02744,-40.15274,-37.53597,12.02427,-40.08264,-0.3569336,-0.2148438,-0.2121582,-0.381,-0.1844428,0.5338321,-27.14741,50.16147,-116.6389,-27.35767,49.77101,-116.9877,S_LF
-0.2302246,-0.6721191,0.84375,0.4182443,-0.4852595,0.0,-37.68962,12.02071,-40.15165,-37.54196,12.04743,-40.09811,-0.3596191,-0.2163086,-0.2116699,-0.6710763,-0.1539084,0.9460459,-27.16169,50.15447,-116.6284,-27.40071,49.91708,-116.7656,S_LF
-0.2358398,-0.6723633,0.8469238,0.3266413,-0.6837328,0.2898702,-37.67952,12.01698,-40.14612,-37.4084,12.30323,-40.07424,-0.3640137,-0.21875,-0.2150879,-0.6252747,-0.382916,0.5643663,-27.17415,50.14367,-116.6253,-27.35574,49.87674,-116.8606,S_LF
-0.2243652,-0.6787109,0.8369141,0.4182443,-0.3936565,0.4730763,-37.68163,12.00648,-40.14674,-38.0719,11.76215,-40.50167,-0.362793,-0.2104492,-0.2111816,-0.5947404,-0.4745191,0.2437558,-27.17193,50.14556,-116.6238,-26.626,50.58708,-116.726,S_LF
-0.2338867,-0.6755371,0.8413086,0.3571756,-0.5005267,0.4883435,-37.67727,12.00361,-40.14374,-37.7263,12.23083,-40.35535,-0.371582,-0.2116699,-0.2111816,-0.4420686,-0.642458,0.5796337,-27.16149,50.15738,-116.609,-26.34692,51.17736,-116.2815,S_LF
-0.2441406,-0.6691895,0.8425293,0.2961069,-0.4089237,0.4578092,-37.66645,12.01362,-40.13885,-37.33927,12.78433,-40.21353,-0.3679199,-0.2121582,-0.2114258,-0.3504658,-0.5050534,0.4880307,-27.15469,50.16383,-116.5989,-26.56368,50.85134,-116.4648,S_LF
-0.2321777,-0.6733398,0.8540039,0.4640458,0.04909158,0.3204046,-37.6516,12.01509,-40.12793,-37.26511,12.05127,-39.82833,-0.3630371,-0.2131348,-0.2124023,-0.2741299,0.1361679,0.4880307,-27.15308,50.16949,-116.5952,-26.87273,50.34661,-116.773,S_LF
-0.2236328,-0.6699219,0.8476563,0.4029771,0.1406947,0.3814733,-37.64037,12.01074,-40.11578,-37.38617,11.69429,-39.80088,-0.3615723,-0.2119141,-0.2160645,-0.3351984,0.1361679,0.5032978,-27.14876,50.16938,-116.6019,-26.70729,50.07022,-117.2733,S_LF
-0.2338867,-0.6708984,0.8457031,0.2655725,0.2933664,0.2135344,-37.63195,12.01905,-40.11123,-37.40157,12.22488,-40.03453,-0.3630371,-0.2106934,-0.2219238,-0.1061909,0.5483816,0.3353589,-27.13411,50.17095,-116.6225,-26.34333,49.87194,-117.8658,S_LF
-0.2329102,-0.6708984,0.8449707,0.2655725,0.1864962,0.1219313,-37.6243,12.02486,-40.10826,-37.43202,12.18164,-40.04623,-0.362793,-0.2111816,-0.2180176,-0.1367252,0.2430381,0.6712368,-27.12363,50.17252,-116.6298,-26.51639,50.0827,-117.4455,S_LF
-0.229248,-0.671875,0.8395996,0.3266413,0.2322977,-0.0002061129,-37.62067,12.02824,-40.1104,-37.66718,12.0346,-40.21561,-0.3647461,-0.2133789,-0.213623,-0.3046641,-0.291313,0.5338321,-27.12133,50.17243,-116.6257,-26.78469,50.38211,-116.8178,S_LF
-0.2319336,-0.6711426,0.838623,0.479313,0.04909158,0.3204046,-37.6141,12.0321,-40.1086,-37.64428,12.18481,-40.25563,-0.364502,-0.2089844,-0.2050781,-0.2435954,-0.4439847,0.4880307,-27.11349,50.18697,-116.6063,-26.55058,51.22556,-116.0167,S_LF
-0.2331543,-0.6711426,0.840332,0.3724428,0.1254275,0.3204046,-37.60797,12.03794,-40.106,-37.58154,12.23226,-40.21402,-0.3447266,-0.2114258,-0.2175293,-0.4573359,-0.1997099,0.5949008,-27.1258,50.15355,-116.6316,-27.41493,48.65331,-118.2762,S_LF
-0.2382813,-0.6611328,0.8378906,0.5251145,0.171229,0.06086259,-37.59254,12.05124,-40.10279,-37.19673,12.5851,-39.98749,-0.3605957,-0.2128906,-0.204834,-0.3046641,-0.4134504,0.701771,-27.13123,50.15786,-116.6099,-27.17349,50.67273,-116.0658,S_LF
-0.2436523,-0.6691895,0.8288574,0.2808397,0.09489316,0.2746031,-37.59178,12.06927,-40.11009,-37.76099,12.88318,-40.66965,-0.3635254,-0.2119141,-0.2094727,-0.4268017,-0.4592519,0.3964274,-27.13042,50.16159,-116.6016,-26.79779,50.6596,-116.4649,S_LF
-0.236084,-0.6713867,0.8481445,0.4335115,-0.01197708,0.3204046,-37.58058,12.07395,-40.1035,-37.32923,12.31172,-40.00029,-0.3625488,-0.2102051,-0.2038574,-0.4268017,-0.4745191,0.3200917,-27.13031,50.17285,-116.5837,-26.81127,51.07314,-115.9402,S_LF
-0.2363281,-0.6640625,0.8408203,0.3419085,-0.2867863,0.2440687,-37.56887,12.07703,-40.09731,-37.24637,12.43873,-39.97319,-0.3657227,-0.2077637,-0.215332,-0.3351984,-0.4745191,0.2132213,-27.11397,50.1771,-116.5913,-26.08356,50.71115,-117.1098,S_LF
-0.2255859,-0.6657715,0.8369141,0.2808397,-0.1341145,0.3509389,-37.5642,12.07188,-40.09111,-37.52765,11.91139,-40.02799,-0.3718262,-0.206543,-0.2167969,-0.1672597,-0.2607787,0.1063511,-27.08685,50.19284,-116.598,-25.63501,51.15526,-117.008,S_LF
-0.2280273,-0.6689453,0.8537598,0.03656495,-0.4547252,0.0,-37.55488,12.06122,-40.08164,-37.12549,11.87282,-39.61795,-0.361084,-0.2089844,-0.2016602,0.04648089,0.07509923,0.182687,-27.08058,50.21389,-116.5793,-26.80773,51.19068,-115.7975,S_LF
-0.2333984,-0.6774902,0.8383789,0.3266413,-0.6837328,0.1066641,-37.55699,12.05429,-40.08886,-37.90044,12.21766,-40.52068,-0.3659668,-0.2053223,-0.201416,-0.02985501,0.1819695,0.0147481,-27.06288,50.24882,-116.5604,-26.17488,51.83548,-115.6403,S_LF
-0.2194824,-0.6757813,0.8320313,0.7999237,-0.7753359,-0.0002061129,-37.55775,12.03401,-40.09701,-38.14403,11.572,-40.49634,-0.3706055,-0.2072754,-0.2092285,0.0922823,-0.1691756,0.1674199,-27.03962,50.27188,-116.5513,-25.96762,51.52623,-116.2309,S_LF
-0.2290039,-0.6691895,0.8376465,0.3266413,-0.5463283,0.1677328,-37.55416,12.02644,-40.09614,-37.61831,12.05701,-40.17695,-0.364502,-0.208252,-0.2165527,-0.3962674,-0.382916,-0.09212208,-27.02784,50.27088,-116.5674,-26.15965,50.50305,-117.2869,S_LF
-0.2451172,-0.668457,0.8579102,-0.3603816,-0.1035802,0.2593359,-37.54518,12.03841,-40.08419,-36.84017,12.70095,-39.68934,-0.3674316,-0.2116699,-0.2033691,-0.4573359,-0.2302443,0.2895572,-27.02899,50.28966,-116.5442,-26.74929,51.37917,-115.6223,S_LF
-0.2358398,-0.6696777,0.8530273,-0.1924427,-0.1035802,0.4730763,-37.53938,12.04149,-40.07098,-37.11382,12.26884,-39.7713,-0.3706055,-0.213623,-0.2097168,-0.5031376,-0.4134504,-0.0005190372,-27.02814,50.2996,-116.5357,-26.64132,51.07021,-116.1169,S_LF
-0.2272949,-0.666748,0.8415527,0.1739695,-0.2257175,0.3356718,-37.53444,12.03663,-40.06358,-37.4115,11.953,-39.93119,-0.3679199,-0.2106934,-0.2016602,-0.197794,-0.5813893,-0.09212208,-27.02378,50.31699,-116.5151,-26.66467,51.59635,-115.4376,S_LF
-0.2299805,-0.661377,0.8476563,0.2961069,-0.2104504,0.3356718,-37.51901,12.03428,-40.04855,-36.98043,12.07396,-39.55902,-0.3662109,-0.2099609,-0.2058105,-0.2130611,-0.2149771,0.07581687,-27.01736,50.33252,-116.5036,-26.55634,51.24104,-115.9916,S_LF
-0.2185059,-0.6633301,0.8476563,-0.1466411,-0.01197708,0.3662061,-37.51372,12.02294,-40.03226,-37.15392,11.47547,-39.48544,-0.3710938,-0.2087402,-0.2092285,-0.1061909,0.1667023,-0.1379237,-27.00065,50.35763,-116.4989,-26.10418,51.46527,-116.1699,S_LF
-0.229248,-0.6699219,0.8391113,-0.2535114,0.1864962,0.01506107,-37.5192,12.02626,-40.03457,-37.60152,12.05201,-40.15842,-0.3623047,-0.2060547,-0.2111816,-0.1367252,0.3041069,0.2284887,-26.98587,50.37148,-116.5032,-26.16746,50.84139,-116.8701,S_LF
-0.3520508,-0.8652344,0.4709473,-1.993969,-0.347855,0.8547558,-55.90162,20.44746,-63.41495,-55.80107,19.66565,-63.24439,-0.1916504,-0.2529297,-0.3479004,0.0,0.7163206,-1.038687,-31.81944,25.57705,-137.449,-32.48851,24.01624,-137.6304,LR
-0.3532715,-0.8781738,0.4558105,-2.42145,-0.1341145,0.8242214,-55.95333,20.42952,-63.42028,-56.70769,19.64905,-64.2873,-0.1928711,-0.2504883,-0.3500977,0.0,0.7163206,-1.298229,-31.82454,25.55803,-137.4762,-32.07438,24.13417,-137.9179,LR
-0.3615723,-0.8754883,0.4650879,-2.482519,-0.3325878,0.7173512,-55.9896,20.41713,-63.41901,-56.06402,20.03818,-63.84867,-0.1982422,-0.2526855,-0.3405762,-0.9153514,0.487313,-1.679908,-31.86205,25.55894,-137.4981,-32.66872,25.05451,-136.6798,LR
-0.3579102,-0.8769531,0.4680176,-2.329847,-0.3936565,0.7784199,-56.04442,20.39595,-63.40718,-56.10459,19.80198,-63.7052,-0.1953125,-0.2580566,-0.3518066,0.0,0.05983204,-1.359298,-31.87827,25.53095,-137.5159,-32.67268,24.11579,-137.3883,LR
-0.3637695,-0.8911133,0.4836426,-2.009237,-0.08831299,0.9921603,-56.06944,20.38148,-63.39088,-55.81863,19.7371,-63.32118,-0.1977539,-0.2553711,-0.3505859,0.0,-0.6271908,-1.83258,-31.88855,25.50131,-137.5394,-32.39272,24.50985,-137.3463,LR
