xa_S1,ya_S1,za_S1,xgb_S1,ybg_S1,zbg_S1,tilt_x_S1,tilt_y_S1,tilt_z_S1,tilt_accx_S1,tilt_accy_S1,tilt_accz_S1,xa_S2,ya_S2,za_S2,xgb_S2,ybg_S2,zbg_S2,tilt_x_S2,tilt_y_S2,tilt_z_S2,tilt_accx_S2,tilt_accy_S2,tilt_accz_S2,Posture
0.7144701489491521,-1.7266330811361288,1.511018607292877,0.624380581533717,0.1356069700245746,0.933994341110941,-1.8823219950642316,-0.7152277022513365,1.3652487370721453,-1.9642682751424725,-0.7458013967751317,-113.1207,1.572495260443144,-1.2624707237735178,-0.5498298668242345,0.42541381503460923,1.382386932727521,-0.5994095234486163,-1.2896894850766902,-1.48170221189387,-0.5905665119200686,-1.2886562062672569,-1.5042789989288177,-69.84364,LR
0.7268648670084785,-1.710394998317163,1.4444841791649534,0.5124081772130991,-0.0653931819059532,0.7120216408347945,-1.882660628119617,-0.7159285881685695,1.366136112807587,-1.9317111697511382,-0.7568922139605836,-113.6756,1.560392169934744,-1.2551866788623733,-0.5522129318473367,0.6897790349719773,1.0989901471023324,-0.3254262376317148,-1.2892597342862853,-1.4808274344475094,-0.5905056660567977,-1.2890283714850475,-1.49284649156915,-69.85938,LR
0.6719738276917608,-1.7185140397266458,1.2707527870977129,0.34444993744120944,-0.3812505903794633,0.7437318782291846,-1.8811173259820952,-0.7159086815411481,1.3648900107110093,-1.832599837507766,-0.7150238882937819,-114.8035,1.526772363912777,-1.2653838643695865,-0.545063411400501,0.42541381503460923,0.2488001614764491,-0.4167541325032941,-1.2888312511973272,-1.479984361972022,-0.5904003762586151,-1.2822373089017094,-1.4619951019379833,-69.78268,LR
0.7215528449830529,-1.6697986827168534,1.4925367375885294,0.42842924068167293,0.19303567352757162,0.33149692277436477,-1.8816843562258998,-0.7163084325145699,1.365871788120435,-1.9395114377910372,-0.7479915380219084,-113.4973,1.5577025942662108,-1.2682976016761416,-0.5553905687964923,0.36666590287114764,-0.06293633983622615,0.13121241340804835,-1.2886880009338595,-1.479957132997037,-0.5902606953203229,-1.2946959523785027,-1.4905908565825465,-69.95092,LR
0.6436429710291645,-1.6535594913449922,1.4740548678841812,0.03652622893945119,0.2504642641833098,-0.4929736112445241,-1.8815813253175593,-0.7152952445210699,1.3659473094596213,-1.8946428827970951,-0.6794549079811673,-113.6105,1.5469442365094273,-1.2362476847250081,-0.5418860998288743,-0.3676816523783908,0.16378101441398818,-0.29498380540677316,-1.2885834155645133,-1.4793837392738016,-0.5900479993461055,-1.274248458603775,-1.4800599656351985,-69.63791,LR
0.7180114969661024,-1.7455782501268517,1.4186092587711376,0.9043112256262246,0.5950359961965037,-0.8417878842074806,-1.8816288780444854,-0.7156295032297502,1.3657301856094595,-1.927701713244273,-0.7525657168611061,-113.7023,1.564426533437544,-1.2901497364095749,-0.5538017503219145,-0.8376643724887701,0.9572917542897383,-0.3558688692555746,-1.2890904961431615,-1.4787488938570204,-0.590151701860898,-1.2977780646685,-1.4973190377925345,-69.99355,LR
0.7091580543967333,-1.707687912145405,1.4038231573922026,0.26047100090978337,0.22174990867023603,-1.158891919776047,-1.881596455730672,-0.7159112710211378,1.3648239295392215,-1.9050241751141657,-0.7424392180060438,-113.9571,1.5765296239459439,-1.2872365958135061,-0.6086138727409113,-0.8376643724887701,-0.14795535696129858,-0.44719676412715376,-1.2906795599065013,-1.479150521238054,-0.5911934888589933,-1.3525314433739497,-1.5077536350569114,-70.84888,LR
0.7197821709745776,-1.6697986827168534,1.3557705989686266,0.9882901621576505,-0.6971079988529734,0.04610312460018868,-1.8805113889617142,-0.7167250690554251,1.3637666307906096,-1.873264906680318,-0.7499252305097306,-114.4716,1.5213932125757104,-1.243531729636153,-0.5498298668242345,-0.16206444080403645,-0.4880313326491678,0.10076982744654085,-1.2905077863604837,-1.4787722995855181,-0.5908786776533729,-1.2822633477650704,-1.4563215568974808,-69.78934,LR
0.6755151757087112,-1.6183762395353034,1.4666618171947137,-0.04745270759197487,-0.6109651034654279,-0.30271116913307605,-1.880427811441662,-0.7165951095284381,1.363672229116626,-1.892191452726267,-0.7043310292390987,-113.8511,1.530806727415577,-1.28286569149843,-0.5569793872710702,-0.16206444080403645,-0.7714281182743562,0.1616550109346931,-1.2906535720268455,-1.4788277832845464,-0.5907950807281827,-1.2977952122126644,-1.4659819604517366,-70.02431,LR
0.7020753583628324,-1.6616796413073711,1.3890370560132677,-0.5513276469330659,-0.8693939777068291,-0.5246838486389143,-1.8803896251609473,-0.7171304845163246,1.3626715713724045,-1.8800009094502481,-0.7331071294214846,-114.2512,1.5738400482774106,-1.2610135567649967,-0.5418860998288743,-0.19143826220639412,-0.8564470797119763,0.1316234003007088,-1.2904608814069591,-1.4797083422255957,-0.5903972016918354,-1.28050667712956,-1.5056060140165426,-69.71394,LR
0.6914513143119813,-1.6643856189262332,1.3594663672940397,-0.4673487104016399,-0.3525364173027913,-0.778366786309451,-1.8799645326020595,-0.717273229600761,1.3611705847560716,-1.8629581853311432,-0.7249304586724673,-114.4374,1.5913223452055274,-1.2610135567649967,-0.5657174008149547,-0.573299152551402,-0.17629505408630147,0.039884683838172244,-1.2909457772102917,-1.4803861758528845,-0.5904390001544308,-1.3049978158559492,-1.5215490412525683,-70.08803,LR
0.6949926623289318,-1.7049819345265425,1.4296980777860182,0.5124081772130991,0.10689274052427314,-0.6198151839313341,-1.8799414767344587,-0.7173082954756226,1.3610761830820892,-1.911163610140929,-0.729364634130885,-113.7697,1.6155285813049776,-1.167777543218153,-0.5371196444051407,-1.102029592426138,0.05042233728888099,-0.44719676412715376,-1.2907423111281093,-1.4813097230044412,-0.5898733981732399,-1.2581450093506994,-1.5430064992350339,-69.33524,LR
0.6613497836409096,-1.710394998317163,1.3151095771958763,0.2884639186354192,0.6237505454307051,-0.778366786309451,-1.8787620250075103,-0.7166176056358493,1.3594619144569755,-1.8465163728950824,-0.7040806582296747,-114.5164,1.581908830365661,-1.269754768684662,-0.5402972813542964,-1.0139077241809458,0.2488001614764491,-0.5385244595998149,-1.290956552672588,-1.4814771066006696,-0.589757526485793,-1.281017927983351,-1.5132791297318715,-69.71594,LR
0.6914513143119813,-1.7158080621077834,1.4555729981798335,0.3724428551668452,0.3940358818817288,-0.5881045311307778,-1.8791316393849837,-0.7164874842663631,1.359858401487706,-1.9256470296822503,-0.7265089524178111,-113.5366,1.5751848361116774,-1.2391614220315632,-0.5466522298750789,-0.3676816523783908,0.5321967614767967,-0.29498380540677316,-1.2908506996017957,-1.4812940570188333,-0.5895527669285243,-1.2809004355511129,-1.5063554545306517,-69.71955,LR
0.689680640303506,-1.6887438517075772,1.462966048869301,0.8763177578370327,0.36532153953416857,0.04610312460018868,-1.8790826456663332,-0.7162937048471281,1.3605569738751806,-1.9195539300141786,-0.7226003678303047,-113.5952,1.5765296239459439,-1.29306347371613,-0.5490356202757101,-0.2501862128496766,0.8439332627894719,-0.3558688692555746,-1.2909546511204182,-1.4809298228534473,-0.5895956235800459,-1.2941478660594696,-1.508634248757463,-69.92675,LR
0.6967633363374068,-1.6752117465074738,1.4296980777860182,0.400435772892481,0.22174990867023603,0.01439288720579849,-1.8789572793862535,-0.7162828074521711,1.3606513755491643,-1.901929841941479,-0.7285120280639914,-113.8977,1.5940119208740609,-1.2668410313781069,-0.5657174008149547,-0.5439251964696711,0.5321967614767967,-0.3254262376317148,-1.2914408146251977,-1.4811117534363116,-0.5898146686878217,-1.3062546673337783,-1.5241521586044022,-70.10597,LR
0.7091580543967333,-1.6183762395353034,1.3188068595599312,0.7363529858543351,0.3366071971866083,0.20465514238447177,-1.8772691575803648,-0.7164053222241874,1.3588955044130764,-1.8342512586511677,-0.7377208405253282,-114.948,1.5657713212718107,-1.269754768684662,-0.5363253978566165,-0.19143826220639412,0.985631655602066,-0.23409854215905374,-1.2911549479489839,-1.4803809538576815,-0.5895263122053629,-1.276393806907012,-1.4983819250273576,-69.65507,LR
0.7056167063797829,-1.6860367655358193,1.433393846111431,0.5683945627279267,0.8821792315933417,-0.1758694452384217,-1.8772561886548393,-0.7162826995571715,1.3590182265892545,-1.9106090338165775,-0.7369350359178771,-113.835,1.6007359151280445,-1.2668410313781069,-0.5704835308611593,-0.632046872315759,1.0989901471023324,-0.23409854215905374,-1.2917799247621686,-1.4802785654517439,-0.589790330342513,-1.3112687362663007,-1.5303511464875252,-70.18075,LR
0.6790565237256617,-1.6400273861448895,1.4149119764070828,0.6523734992593528,0.9396077658254506,0.29978668537997455,-1.876512636924716,-0.7156118084498201,1.358886064245679,-1.8762919087849048,-0.7106841062019676,-114.1337,1.6276317268960279,-1.2726679092807307,-0.5649231542664305,0.19042255117897186,0.9572917542897383,-0.4167541325032941,-1.2919225411749136,-1.4807829542383726,-0.590044824779326,-1.3076937908551332,-1.5554879045232932,-70.10935,LR
0.7197821709745776,-1.7401651863362315,1.4296980777860182,0.14849857825371354,0.6237505454307051,-0.017317412499516613,-1.8771805365892742,-0.715944394786007,1.3594619144569755,-1.9318407639574813,-0.7534031016614762,-113.6484,1.5281171517470438,-1.345508955102662,-0.5609512707687503,0.04355305936897461,0.8439332627894719,-0.2645411737829135,-1.2922572143568216,-1.4795621263599212,-0.5904157199980482,-1.3138980263715114,-1.4650558721297229,-70.27986,LR
0.7197821709745776,-1.7374592087173695,1.3631636496580946,0.2324775331205915,0.10689274052427314,0.20465514238447177,-1.877140909316836,-0.7165171553912458,1.3592731111090095,-1.899389361103163,-0.754840785245129,-114.1289,1.5442546608408938,-1.2988909483292401,-0.5617455173172747,0.42541381503460923,1.0423107157273586,-0.02100049964997999,-1.2922515097003118,-1.4784915240934606,-0.5905432317636867,-1.306420426927368,-1.4787443895244186,-70.14743,LR
0.7481130276371741,-1.7320461449267492,1.4407868968008986,-0.15942514858349657,-0.2663935219152456,0.49004894055864784,-1.8782259760857938,-0.7176783753241616,1.3602076876814433,-1.9444881449106097,-0.7768990359220223,-113.6322,1.5940119208740609,-1.2945206407246503,-0.5823995067317285,0.2785442270250597,0.4471778000391765,0.6487363791404519,-1.2927547871746208,-1.4787907630685562,-0.5907321184870589,-1.3283724589289665,-1.5244405708427857,-70.45464,LR
0.6967633363374068,-1.8511291141088146,1.547982346701573,-0.10343911144225446,-1.1852513861803393,0.5217593856561211,-1.880645401192143,-0.7184521443136068,1.363587267610041,-2.014256887271942,-0.7394308933445822,-112.3414,1.564426533437544,-1.28286569149843,-0.5728669212617905,0.33729213918852136,0.19212073010147518,0.6791790107643116,-1.2929588871075268,-1.478724462379465,-0.5907114838029932,-1.3153276234794413,-1.4968951393108272,-70.27098,LR
0.7109287284052086,-1.5317705445440641,1.3225026278853438,-0.49534162812727567,-1.4436804485005053,0.39491760526622816,-1.8791020990546212,-0.719176551340747,1.3611989052582663,-1.8062024388626217,-0.7323079860363026,-115.3144,1.614183793470711,-1.220223024604685,-0.6078196261923868,1.0716398868371644,-0.34633305121147817,0.9531620971822948,-1.2933011664981142,-1.4799506055030336,-0.5909638618619525,-1.3402226821350378,-1.5418180645401343,-70.62987,LR
0.7374889110593298,-1.6752117465074738,1.3964301067027352,-0.8592517588147653,-1.1852513861803393,0.10952380709205206,-1.8796820982239513,-0.7204259754358144,1.3608118583949356,-1.9007613221144506,-0.7646361812142591,-114.1783,1.530806727415577,-1.2712113389826967,-0.5808106882571507,0.24917027094332897,-0.4030123526490636,0.6791790107643116,-1.293615556456876,-1.479671508509434,-0.5910374059923411,-1.3192398039258422,-1.4652682433000541,-70.36407,LR
0.6967633363374068,-1.8348910312898494,1.3151095771958763,-0.5513276469330659,-1.4436804485005053,-0.20757975075942314,-1.8800704454938502,-0.7213421658246975,1.3605003328707914,-1.900657791547372,-0.7438401123801486,-114.0308,1.5375307216695606,-1.285779428804985,-0.5545959968704389,0.1316747736948834,-0.7147486868993822,0.831391770085774,-1.2935236481019967,-1.4797684884203406,-0.5906591034511336,-1.296373236235474,-1.4723210289213826,-69.99517,LR
0.7268648670084785,-1.6562665775167509,1.3779482369983873,-0.6633004179627213,-1.1278228519482303,0.4266278426606184,-1.8801677124352907,-0.7223579972456871,1.3599811236638841,-1.8817971285895643,-0.7544655783360544,-114.3806,1.5711504726088774,-1.279952550902362,-0.5569793872710702,0.5429094469624278,-0.6864089712118953,0.740064074613113,-1.2932732770662887,-1.4804791460174747,-0.590325244844837,-1.2992121074360286,-1.5032887773262273,-70.01106,LR
0.6843685457510873,-1.7455782501268517,1.304020758180996,0.06327376610311998,-1.357537365034195,0.04610312460018868,-1.8794162352506802,-0.7228130444063906,1.3590182265892545,-1.8617006147366282,-0.7268051485829881,-114.4698,1.5482890243436938,-1.2901497364095749,-0.5744557397363684,0.33729213918852136,-0.6864089712118953,0.7705067062369727,-1.2935236481019967,-1.4807123640532223,-0.5903458795289026,-1.3175555340323597,-1.4820714440975005,-70.32004,LR
0.6967633363374068,-1.6968628931170602,1.2929319391661154,-0.5233347292074301,0.22407583549444884,0.17294490499008164,-1.8786762859998707,-0.7227780324790288,1.3576022014795066,-1.8445326403510574,-0.7338547463991418,-114.7711,1.5940119208740609,-1.2726679092807307,-0.5720723493357371,0.5135354908806972,-0.6013900097742749,0.9531620971822948,-1.293596540935177,-1.481736341362516,-0.5901765693006693,-1.3137646565835661,-1.5241801934741281,-70.22441,LR
0.6790565237256617,-1.7131009759360254,1.4370911284754857,-0.8032657400089751,-1.3288230038787583,0.5217593856561211,-1.8794414526058683,-0.723042698912984,1.3585367780519404,-1.911270036667926,-0.7161188513463822,-113.6655,1.610149429967911,-1.29306347371613,-0.5744557397363684,0.7779007108180652,-0.3179933540864753,1.1358176875265351,-1.293678307678484,-1.4828344523537047,-0.5900442956848625,-1.320714492723983,-1.5394608851926175,-70.32376,LR
0.6825978717426121,-1.672504660335716,1.448179947490366,-0.4673487104016399,-1.3001088308020863,0.29978668537997455,-1.8798600607019944,-0.7232782336970541,1.3591126282632382,-1.9043979237818365,-0.7155375925926023,-113.7614,1.5375307216695606,-1.28286569149843,-0.5665116473634791,1.0716398868371644,-0.17629505408630147,1.1358176875265351,-1.2933556776603192,-1.482465182692945,-0.589756468296867,-1.3076436184110969,-1.472050150196841,-70.17356,LR
0.6772858497171865,-1.6643856189262332,1.3705551863089198,-0.4393557926760041,-1.4149660873450685,0.9022838960134677,-1.879428483680343,-0.7234946710661996,1.35898990608706,-1.862897370172859,-0.7124017427617864,-114.3425,1.522738000409977,-1.2624707237735178,-0.5514186852988123,1.0128919746737026,-0.006256908461252185,1.3793583417195772,-1.2926704850284199,-1.48169941439644,-0.5890622963611122,-1.2877384951073465,-1.458059156247846,-69.87397,LR
0.6967633363374068,-1.7022759569076806,1.3594663672940397,-0.5793211147222578,-1.3001088308020863,1.504781314350044,-1.8793816514492794,-0.7240617132364611,1.3593863931177892,-1.877700069295171,-0.7325139303102199,-114.2802,1.560392169934744,-1.234791114426974,-0.5657174008149547,1.0128919746737026,-0.374672748336481,0.9836047288061547,-1.2922128448061903,-1.4818999949621707,-0.5886787028752721,-1.298446183796684,-1.492196813935938,-70.00867,LR
0.6719738276917608,-1.637321408526027,1.4444841791649534,-0.5513276469330659,-1.1852513861803393,0.807152560721048,-1.8794969307872826,-0.7239865643692578,1.3599811236638841,-1.886652929382548,-0.7034765944688066,-113.9253,1.5778744117802104,-1.2712113389826967,-0.5101110318474337,0.8953963427458839,-0.006256908461252185,0.1316234003007088,-1.2908785890336212,-1.4821780662067128,-0.5878305644507181,-1.2512320086755249,-1.5099680147168275,-69.24855,LR
0.6648911316578601,-1.6941558069453018,1.485143686899062,0.06327376610311998,-0.6683938257763014,0.9657045785053312,-1.8799594891310223,-0.7236462095931014,1.3616897939629788,-1.9220799310529029,-0.7010438810947468,-113.3863,1.5765296239459439,-1.2712113389826967,-0.5466522298750789,0.6897790349719773,-0.09127594414880867,0.2225401744829535,-1.2903924255288415,-1.4824788904303519,-0.5875691917858833,-1.2874145970509074,-1.5082386664318,-69.82082,LR
0.6595791096324344,-1.7320461449267492,1.4186092587711376,-0.3833694071611764,-0.40996495153490004,0.933994341110941,-1.880257774418106,-0.7232128493273123,1.3627565328789895,-1.9012789749498438,-0.7015033159309445,-113.6952,1.5536681756807604,-1.2406185890400843,-0.5418860998288743,0.7191529910537081,0.3338191229140693,0.4356381571723518,-1.289664131047758,-1.4820257890966064,-0.5870506792119202,-1.2754665693336766,-1.4864219120587345,-69.65113,LR
0.6808271977341369,-1.734753231098507,1.3705551863089198,-0.04745270759197487,-0.6683938257763014,0.4583382877580916,-1.8800884578904138,-0.7232915587295015,1.3628226140507773,-1.8878627166384105,-0.721162092607317,-114.0463,1.5536681756807604,-1.2420751593381183,-0.5498298668242345,0.8660223866641531,0.6172157229144168,0.1316234003007088,-1.28904232348819,-1.4813708016983294,-0.5867988302474236,-1.28368913430763,-1.4863318066747662,-69.78104,LR
0.6808271977341369,-1.6914498293264397,1.3003249898555829,0.12050560552172215,-0.8406798046301571,0.4266278426606184,-1.8788809068248264,-0.7234096498065352,1.361585952121598,-1.8404145853472569,-0.7195854275653717,-114.7246,1.5832536181999275,-1.2551866788623733,-0.5728669212617905,0.6016573591258895,0.36215883860155634,0.5878511158927324,-1.289100637754734,-1.48146442461232,-0.5867998884363504,-1.310686354858938,-1.5138432025622082,-70.18359,LR
0.673744501700236,-1.672504660335716,1.5331962453226375,-0.2993904706297504,-0.7832510823192835,0.5851798604449016,-1.8799486816930842,-0.7232199164497843,1.3634645454338628,-1.9412758013712526,-0.7055634139735633,-113.1412,1.5415650851723606,-1.2624707237735178,-0.5569793872710702,0.33729213918852136,0.3338191229140693,0.1316234003007088,-1.2889586551927126,-1.480813353710445,-0.586741688045395,-1.2943098150876893,-1.4754452760589563,-69.95939,LR
0.7250941930000033,-1.7401651863362315,1.4925367375885294,-0.10343911144225446,-0.2951076949919178,0.6168903055423748,-1.8813284312698135,-0.7238488364023015,1.365210976402552,-1.9637325225575906,-0.7564454724773879,-113.2076,1.564426533437544,-1.2901497364095749,-0.5379142163311943,0.33729213918852136,0.5038572314141504,0.1316234003007088,-1.2885739078036633,-1.480489310258137,-0.586457035224179,-1.2820150259218002,-1.4975449107061451,-69.74452,LR
0.6879099662950309,-1.680623701745199,1.2929319391661154,-0.3833694071611764,-0.49610784692244553,0.9657045785053312,-1.8802959606988194,-0.7239189142045248,1.3640781563147537,-1.8358230408968166,-0.7249913437385614,-114.8318,1.5563577513492934,-1.23333454412894,-0.5744557397363684,0.33729213918852136,-0.09127594414880867,0.9836047288061547,-1.2886905363367527,-1.480426646315705,-0.5862676194063435,-1.3067322581934688,-1.4882640561574083,-70.14314,LR
0.6330189269783131,-1.6670915965450956,1.3705551863089198,-1.5590774522734407,-1.9605380089045432,0.933994341110941,-1.8802390415256804,-0.7236542477705697,1.3640498358125592,-1.8465076850153275,-0.674529564304047,-114.2774,1.5913223452055274,-1.243531729636153,-0.5506241133727588,0.8660223866641531,-0.5730502940867881,1.4402434055683784,-1.2881137321785396,-1.4813955129256278,-0.5855014906235895,-1.2863978111913805,-1.521418618162974,-69.79473,LR
0.6365602749952636,-1.575073946316132,1.4444841791649534,-0.9432303286371541,-8.73711746149185,-0.4929736112445241,-1.87981322847093,-0.72578948981214,1.3632757420858967,-1.8508957882815078,-0.6670836219189469,-114.1502,1.5778744117802104,-1.2653838643695865,-0.5418860998288743,-0.27955997653230286,-0.629729725461762,1.4402434055683784,-1.288027528480169,-1.4821155887641093,-0.5847475310134898,-1.281555852794731,-1.5094348833815066,-69.72741,LR
0.6524963410715404,-1.621082217154166,1.51471437561829,-0.32738338835538616,-0.9268227000177025,-0.1758694452384217,-1.880187165823579,-0.7251619185471176,1.3640026349755674,-1.9065974053397743,-0.6830916074016193,-113.465,1.5388755095038273,-1.243531729636153,-0.5331477609074607,-0.13269036928284295,-0.374672748336481,1.0444899920538744,-1.287581297570959,-1.4819235871904972,-0.5839142072339063,-1.266618436544836,-1.4728771319727,-69.52448,LR
0.7038460323713077,-1.6697986827168534,1.5221074263077574,0.2324775331205915,-0.46739348576700884,-0.1758694452384217,-1.8810287049910046,-0.7253500874263747,1.3650976943937725,-1.9470257297890063,-0.7318181086670581,-113.2655,1.5496338121779605,-1.2639272940715518,-0.5339423328335141,0.19042255117897186,-0.6864089712118953,0.6791790107643116,-1.2870906971111167,-1.482194384941721,-0.5833062776956579,-1.2720986646409393,-1.4833384514373171,-69.60083,LR
0.6542670150800157,-1.6752117465074738,1.433393846111431,0.008533256207459787,-0.8406798046301571,0.363207367871838,-1.880798146314998,-0.7248675809882795,1.3654753010897058,-1.887153206458431,-0.6916986150886392,-113.8226,1.5133244304874598,-1.2580998194584414,-0.5474468018011323,0.04355305936897461,-1.5365991424626193,0.1316234003007088,-1.2868923018347205,-1.4823892772626777,-0.5831480784511529,-1.2823560715224036,-1.4492736469056697,-69.79885,LR
0.7764438842997705,-1.6508535137261304,1.3853412876878548,-0.32738338835538616,-1.5585375169647226,-0.27100086942776097,-1.8810279844951427,-0.7268106080881088,1.3643236006671102,-1.9003102763571775,-0.7970387078068286,-114.4024,1.5536681756807604,-1.3411386474980722,-0.5315592678104119,0.014178987847781124,-1.1965231110872978,0.5574086836677908,-1.2867731378987373,-1.4831164400946486,-0.5828343254344586,-1.2854248468336067,-1.4888474439816028,-69.80611,LR
0.6383309490037389,-1.680623701745199,1.219004460348724,-0.07544568032396626,-1.3001088308020863,0.9657045785053312,-1.8787814783957986,-0.7263965070797437,1.3624072466852521,-1.783164353722688,-0.6847715941855846,-115.2878,1.5926671330397941,-1.2755816465872858,-0.50137269292602,0.24917027094332897,-0.5730502940867881,0.6487363791404519,-1.285708268683576,-1.4840790589603112,-0.5817576182017905,-1.2440560789898294,-1.5238109583002808,-69.12526,LR
0.64895499305459,-1.7239271035172663,1.433393846111431,-0.41136269159584965,-0.6971079988529734,0.14123466759569145,-1.8791006580628957,-0.725799146414602,1.3630680584031336,-1.9012659431302115,-0.691326473947027,-113.6122,1.5671161091060775,-1.2508157745472972,-0.5323535143589363,-0.48517747670531397,0.30547940722658234,0.5574086836677908,-1.2855060703028396,-1.4838990866256478,-0.5811930744095263,-1.2686647101484567,-1.4992887921176192,-69.53231,LR
0.5798985616700707,-1.64544044993551,1.3372887292642788,-0.32738338835538616,-0.2951076949919178,0.26807582487633524,-1.877401728819069,-0.7238006073374919,1.3620768408263109,-1.801682569420159,-0.6280363939568281,-114.5359,1.5590473821004776,-1.243531729636153,-0.5402972813542964,-0.632046872315759,0.6738951542893908,0.46608078879621156,-1.2855143103622426,-1.483267877955526,-0.5807729734057232,-1.2747292249346063,-1.491516851142454,-69.63482,LR
0.6949926623289318,-1.5940180067539598,1.3446817799537463,0.008533256207459787,0.3078929676863068,0.20465514238447177,-1.8761660784148435,-0.723487226311229,1.3604625722011983,-1.833009615836203,-0.7227281619266294,-114.8557,1.5160140612386437,-1.234791114426974,-0.602258924220129,-0.632046872315759,0.6738951542893908,0.4965234204200713,-1.2866799618424107,-1.481825022031047,-0.5813655592045384,-1.3327342860890123,-1.4500801885423977,-70.59486,LR
0.7675904417304014,-1.6616796413073711,1.4444841791649534,0.008533256207459787,-0.09410754306138994,0.0778135696976619,-1.8768822513021906,-0.7246730463040476,1.3605475337077833,-1.9298316917641716,-0.7886975075373326,-113.9236,1.5200484247414436,-1.2522729415558183,-0.5609512707687503,-0.044568662652898355,0.19212073010147518,0.3138679098353982,-1.2867858149132039,-1.480866785911358,-0.5813793156605822,-1.2950312821310512,-1.4551049935707494,-69.99262,LR
0.6914513143119813,-1.6346154309071645,1.4666618171947137,-0.04745270759197487,0.02074971348159234,-0.0490277122048317,-1.87710488452371,-0.7244064917075999,1.3607929780601398,-1.9039316742349928,-0.7196061349420909,-113.8,1.536185933835294,-1.243531729636153,-0.5553905687964923,-0.3383078886957645,0.5605364771642837,0.13121241340804835,-1.2869144866100362,-1.4799110675393563,-0.5813406917647671,-1.288639693817321,-1.4699949785930932,-69.87537,LR
0.6967633363374068,-1.648147536107268,1.4075204397562575,-0.13143204750334211,0.8821792315933417,0.29978668537997455,-1.8769355679960167,-0.7239231221095082,1.3605475337077833,-1.8822604821764897,-0.7269267035735999,-114.1719,1.5213932125757104,-1.2580998194584414,-0.5442691648519765,-0.6907947844792206,0.787253831414498,-0.08188558343867317,-1.287022241232999,-1.4785857997568514,-0.581251274800481,-1.2796734335020148,-1.4568232779272565,-69.74783,LR
0.6843685457510873,-1.6752117465074738,1.4186092587711376,0.2044845420531482,0.853464870437905,-0.5246838486389143,-1.8767691334517744,-0.7232842758170303,1.3601604868444515,-1.8919641198726815,-0.7180901936100575,-113.9628,1.5671161091060775,-1.2493592042492632,-0.5506241133727588,-0.6907947844792206,0.985631655602066,-0.23409854215905374,-1.2872662737614735,-1.4779794888138567,-0.5812941314520025,-1.2865775428579922,-1.4989977545402648,-69.81528,LR
0.7056167063797829,-1.6156702619164414,1.3853412876878548,0.5124081772130991,0.9396077658254506,-0.017317412499516613,-1.8758692341194845,-0.7229134946509941,1.3591409487654327,-1.8638689647254438,-0.7326255350029277,-114.4817,1.5133244304874598,-1.2508157745472972,-0.5116995249444825,-0.7201685481618469,0.5321967614767967,-0.5385244595998149,-1.2866977096626635,-1.4767407569518531,-0.5808195337184877,-1.2454526511978874,-1.4497615849058478,-69.21469,LR
0.6825978717426121,-1.6914498293264397,1.3964301067027352,0.5124081772130991,0.45146456657684936,-0.4295523056434115,-1.8754318931309328,-0.7224722580502361,1.358678380562916,-1.8862496669639264,-0.7184873449599151,-114.0492,1.560392169934744,-1.2901497364095749,-0.5561848153450168,-0.7789164603253085,0.6455552529770631,-0.14277084668639264,-1.287257399851347,-1.4763140453438641,-0.5810639753604984,-1.2999608835312084,-1.4935526139902375,-70.03135,LR
0.7091580543967333,-1.7022759569076806,1.3779482369983873,0.42842924068167293,0.3366071971866083,-0.5246838486389143,-1.8751451357776492,-0.7225737332973353,1.3579514876732452,-1.890940398041568,-0.7426834574805431,-114.1633,1.5455994486751605,-1.2770388135958068,-0.6078196261923868,-0.2208120643688413,0.8155933614771441,-0.23409854215905374,-1.2884991134183124,-1.4754758218639221,-0.5821623754661596,-1.3482578943116392,-1.478742232995978,-70.80847,LR
0.6967633363374068,-1.680623701745199,1.40012738906679,0.34444993744120944,-0.007964459595079734,-0.0490277122048317,-1.8748021797470895,-0.7226106873346895,1.3577438039904821,-1.8896857234069713,-0.7297262871206524,-114.0851,1.5617369577690108,-1.2493592042492632,-0.5744557397363684,-0.6907947844792206,0.078762052976368,-0.14277084668639264,-1.2893554457455056,-1.475358513471691,-0.582607343909734,-1.3101770092878327,-1.4936451571889646,-70.19258,LR
0.6949926623289318,-1.6670915965450956,1.3742524686729747,0.2324775331205915,-0.036678820750516455,-0.5881045311307778,-1.8742690128088229,-0.7225683385473567,1.3566865052418702,-1.8721919535305935,-0.7278067401914722,-114.3249,1.5496338121779605,-1.3090887305469394,-0.5426803463773987,-0.2501862128496766,0.05042233728888099,0.10076982744654085,-1.2894029845497539,-1.47521388285456,-0.5825607835969695,-1.289822874364666,-1.4842470062454889,-69.87988,LR
0.739259585067805,-1.6183762395353034,1.3705551863089198,-0.15942514858349657,0.3940358818817288,-0.1758694452384217,-1.8739224542989492,-0.7230431304929823,1.3553743219735046,-1.869672468401686,-0.7625983064181118,-114.6127,1.5240827882442438,-1.1648638059115979,-0.5514186852988123,-0.7789164603253085,0.078762052976368,0.3747530933235505,-1.2892692420471352,-1.4745021995083682,-0.5820719003129475,-1.2679292710320718,-1.4566408168687734,-69.56236,LR
0.7073873803882582,-1.7049819345265425,1.485143686899062,0.17649156932115684,-0.23767916075980894,-0.27100086942776097,-1.8748281175981403,-0.7233070416619404,1.3563466592155315,-1.94220757647496,-0.7386357838639559,-113.3879,1.530806727415577,-1.2755816465872858,-0.5442691648519765,0.014178987847781124,-0.34633305121147817,0.5269660520439311,-1.2890676775171224,-1.4743088924359555,-0.5817771946969293,-1.2837227943017304,-1.4660142146162372,-69.80186,LR
0.6914513143119813,-1.6643856189262332,1.3816455193624422,-0.2154109840347682,0.3940358818817288,0.10952380709205206,-1.8745781055338446,-0.7229994330181548,1.355865210678216,-1.8734683478645777,-0.724330428816155,-114.2801,1.5550129635150272,-1.2712113389826967,-0.5911375202756131,-0.6614208283974898,-0.9698057568370836,0.3747530933235505,-1.290140152940964,-1.4750058422956824,-0.5823226910885174,-1.3308740950942874,-1.4876246923558683,-70.52504,LR
0.689680640303506,-1.6670915965450956,1.3520733166045718,-0.18741806630913238,-0.18025043844893548,0.04610312460018868,-1.8740442180997163,-0.7229298407434295,1.3549778349427741,-1.8597262940623376,-0.7238207046364962,-114.476,1.5415650851723606,-1.2624707237735178,-0.5434749183034521,0.5429094469624278,-1.1965231110872978,0.13121241340804835,-1.289609619885553,-1.475618494232852,-0.5821290425149762,-1.2808667755570124,-1.4756680548230654,-69.74679,LR
0.6879099662950309,-1.6589725551356127,1.4814479185736493,-0.18741806630913238,-0.8119654434747203,-0.3978420682490214,-1.8746753724752852,-0.7230139448955974,1.3554970441496828,-1.9177823265341685,-0.7181338673500473,-113.5862,1.564426533437544,-1.2479026339512285,-0.5625397638657991,0.6310313152076202,-1.1965231110872978,0.6791790107643116,-1.2893903075352873,-1.4766291368043962,-0.581992536143463,-1.2980746536731218,-1.4962925302548808,-69.99914,LR
0.6861392922865556,-1.680623701745199,1.219004460348724,-0.6633004179627213,-0.72582236000841,0.23636558748194503,-1.8732365422378285,-0.7232080479998312,1.3531086817979079,-1.8005741407614357,-0.7255105341475775,-115.3462,1.536185933835294,-1.2741250762892518,-0.5522129318473367,0.16104859509724107,-1.366561219587379,0.8009493378608324,-1.2892743128529214,-1.47723843174465,-0.5817295761952388,-1.291610029523136,-1.4708233668005442,-69.92146,LR
0.6613497836409096,-1.6589725551356127,1.4223050270965507,-0.6353069501735294,-0.23767916075980894,0.6486005429367648,-1.8733763184351582,-0.722615111029672,1.3536184508374167,-1.879286331340411,-0.6967337347550685,-113.9789,1.5550129635150272,-1.28286569149843,-0.5474468018011323,0.6016573591258895,-0.3179933540864753,0.5878511158927324,-1.2889060455826782,-1.4774137415835966,-0.5815020655760509,-1.2895764578040814,-1.488543654757818,-69.87196,LR
0.6578084356239592,-1.6535594913449922,1.3520733166045718,0.06451920992239592,0.04946403702127615,-0.27100086942776097,-1.87238851860764,-0.7218827197725635,1.3525233914192114,-1.8430433929630796,-0.6952230643916546,-114.4971,1.5698056847746107,-1.2770388135958068,-0.5474468018011323,0.5429094469624278,-0.4880313326491678,0.3138679098353982,-1.2885644000428134,-1.4779810740624002,-0.5813655592045384,-1.2890855299655957,-1.502113750612501,-69.85223,LR
0.6524963410715404,-1.6779177241263363,1.5036255566034096,0.17649156932115684,0.1356069700245746,-0.14415913057848465,-1.8728907042238179,-0.720994743926069,1.3537883738505867,-1.920360454851422,-0.688423998941107,-113.307,1.5630817456032775,-1.2901497364095749,-0.5601566988426969,0.30791818310679053,-0.17629505408630147,-0.05144307145416429,-1.2886303205180378,-1.4781804423792448,-0.5816343391918584,-1.3040350130058287,-1.4959844279742152,-70.09351,LR
0.6772858497171865,-1.6860367655358193,1.4112162080816701,0.26047100090978337,0.6237505454307051,-0.4295523056434115,-1.8727134622416375,-0.7203993253709197,1.353590130335222,-1.8893852675654494,-0.7130691119314819,-113.9613,1.5563577513492934,-1.295977211022685,-0.5768388047594707,0.014178987847781124,-0.03459662414873918,0.009442092094096135,-1.2891950815125077,-1.4781380136682232,-0.582169782788645,-1.3214747005152716,-1.4896452657424628,-70.37466,LR
0.7215528449830529,-1.6887438517075772,1.4186092587711376,0.12050560552172215,0.42275020542141256,-0.30271116913307605,-1.8730448903383974,-0.7206788273673163,1.353524049163433,-1.9102709304961174,-0.7513029433789886,-113.9459,1.5281171517470438,-1.2420751593381183,-0.545063411400501,-0.015194833554576523,-0.6013900097742749,-0.05144307145416429,-1.2888882977624252,-1.477989093555033,-0.5820105253552131,-1.2776011210350324,-1.4626266834847166,-69.70873,LR
0.689680640303506,-1.6697986827168534,1.2892361708407027,-0.27139736954959587,0.2504642641833098,0.0778135696976619,-1.8720174632384412,-0.7205127769629718,1.3518909002035246,-1.831013575462525,-0.7257521381377671,-114.9072,1.5375307216695606,-1.23333454412894,-0.5204378638658961,-0.2208120643688413,-0.43135206833655054,0.009442092094096135,-1.2881726802958073,-1.477895936890614,-0.5813893684553837,-1.2518251866847685,-1.4715913722116623,-69.29207,LR
0.6294775789613627,-1.6697986827168534,1.485143686899062,-0.13143204750334211,0.36532153953416857,-0.0490277122048317,-1.872298456624825,-0.7191459631083676,1.352976519454331,-1.8993553335741238,-0.6683385965189232,-113.4458,1.5657713212718107,-1.297433781320719,-0.5466522298750789,0.1316747736948834,-0.7714281182743562,0.1920976026787692,-1.288101055164074,-1.4786221672234416,-0.5813549773152742,-1.2921905056478122,-1.4988160435786304,-69.90403,LR
0.6825978717426121,-1.6779177241263363,1.4555729981798335,-0.13143204750334211,0.8821792315933417,0.7120216408347945,-1.8727725429023645,-0.7185442866432431,1.3540904592073322,-1.9097112862419094,-0.7157850054053522,-113.6857,1.536185933835294,-1.2945206407246503,-0.5506241133727588,-0.13269036928284295,-0.14795535696129858,-0.11232821506253289,-1.2882018374290798,-1.4783024132671927,-0.5815020655760509,-1.294099598898118,-1.471362311386444,-69.96024,LR
0.6772858497171865,-1.6183762395353034,1.2892361708407027,0.12050560552172215,0.997036488136324,0.4266278426606184,-1.8710800981212994,-0.7178083887986483,1.3522779470668551,-1.8086676247430615,-0.7109058633817432,-115.1199,1.5496338121779605,-1.3090887305469394,-0.5561848153450168,0.7779007108180652,-0.34633305121147817,-0.14277084668639264,-1.2880421070468053,-1.478387830188722,-0.581796771192069,-1.3031877973052608,-1.4840386668457202,-70.09117,LR
0.6560376890884909,-1.680623701745199,1.3964301067027352,0.26047100090978337,0.8247505092824682,0.4583382877580916,-1.8706074528354855,-0.7168354456399894,1.3525233914192114,-1.8723476113762012,-0.6947359838629018,-114.0644,1.5482890243436938,-1.3105453008449734,-0.5617455173172747,1.0716398868371644,0.5321967614767967,0.1616550109346931,-1.2878570226355992,-1.4777969987315065,-0.5820634348015354,-1.3089201578100036,-1.4827461562130426,-70.18295,LR
0.689680640303506,-1.6508535137261304,1.4555729981798335,0.34444993744120944,0.6237505454307051,1.3779401570694,-1.8707140862231388,-0.7164675236914418,1.3538544550223743,-1.903406057509824,-0.7196998828839656,-113.8084,1.522738000409977,-1.2508157745472972,-0.529970449335834,1.0422659307554336,0.2204602601641214,0.13121241340804835,-1.2867953226740538,-1.47695868200165,-0.5816131754133294,-1.2640755192546753,-1.4581381039411876,-69.49978,LR
0.6825978717426121,-1.6833307879169568,1.4075204397562575,0.2324775331205915,0.5663218231198316,1.219388139285117,-1.8705930429182345,-0.7160875175029421,1.354685189753427,-1.8887648081529567,-0.7175257158992293,-114.0051,1.560392169934744,-1.3105453008449734,-0.5657174008149547,0.9541442549093454,1.2973677856650598,0.10076982744654085,-1.2867832795103107,-1.4760524793341594,-0.5819713723649339,-1.3134509200347797,-1.493858559742463,-70.24406,LR
0.6666618056663353,-1.8240649037086087,1.348377548279159,0.06451920992239592,0.6524647185073772,0.7120216408347945,-1.8708257630818292,-0.7156543190796523,1.3555631253214704,-1.901570018921632,-0.7169055165201385,-113.8134,1.48104946738241,-1.295977211022685,-0.5339423328335141,0.9247702988276147,0.4471778000391765,-0.20365591053519397,-1.2859782890917064,-1.4743048826896392,-0.5818867172508176,-1.274561560058332,-1.4208536024479501,-69.71092,LR
0.7020753583628324,-1.5290645669252023,1.3964301067027352,0.4564221584073087,0.7386076138949227,1.8853058247073906,-1.8695562493720659,-0.7153112129810067,1.3553271211365128,-1.8377597140921693,-0.7221766464957736,-114.7827,1.618218156973511,-1.297433781320719,-0.5720723493357371,1.0128919746737026,0.4755173301018227,0.1920976026787692,-1.2860733667002024,-1.4751159704445103,-0.5822629034141724,-1.3194411287962169,-1.5470214582519872,-70.29915,LR
0.7091580543967333,-1.8213589260897463,1.4777506362095945,0.12050560552172215,0.1356069700245746,1.7584646674267468,-1.8712724705165935,-0.7157737048966809,1.3584518165453554,-1.976696287131791,-0.7493162722780016,-112.9661,1.5146692734043772,-1.3134590381515288,-0.5879598833264574,1.3947528265388895,0.2488001614764491,0.13121241340804835,-1.2862647896186428,-1.474174985558973,-0.5829814136952359,-1.3336361198932152,-1.4513287247473114,-70.60764,LR
0.7020753583628324,-1.7320461449267492,1.189433771629496,-0.41136269159584965,-0.2951076949919178,1.5999126496424636,-1.869961168046803,-0.7163126943670531,1.3569980307660143,-1.8099737026662077,-0.7438134886100809,-115.3422,1.5469442365094273,-1.348422692409217,-0.5728669212617905,2.2172224424327247,-0.26131405821763504,0.9531620971822948,-1.2858534204992143,-1.4742436174959221,-0.5832009878974752,-1.3272362753545168,-1.4822221198020136,-70.47282,LR
0.6613497836409096,-1.6941558069453018,1.3631636496580946,-0.9152377776205556,-0.72582236000841,-0.17479138897177515,-1.869974857468191,-0.7161300281327743,1.356374979717726,-1.8634222629080481,-0.7013795557391755,-114.2483,1.5671161091060775,-1.2712113389826967,-0.5458579833265544,2.452212936691944,-0.09127594414880867,1.5620139320638173,-1.2846712889002392,-1.474538473725044,-0.5825348579682713,-1.2862199848074527,-1.4995231973828853,-69.8092,LR
0.6684324796748105,-1.6346154309071645,1.3816455193624422,-1.3351337437593171,-0.6971079988529734,1.79017511252422,-1.8701463354834713,-0.7160028738757762,1.3569130692594307,-1.8545772773276274,-0.7019490892770468,-114.382,1.5415650851723606,-1.2624707237735178,-0.5617455173172747,2.070352662024071,-0.06293633983622615,1.6533416275364785,-1.2838054488121968,-1.4743073071874118,-0.5820084089773604,-1.2990622251981472,-1.4753669847003574,-70.03455,LR
0.673744501700236,-1.6264952809447863,1.4703575855201265,-1.419112130227187,-0.8406798046301571,2.360962085763323,-1.8710772161378495,-0.7159116486536364,1.3587444617347035,-1.896000364008791,-0.703373649224545,-113.7876,1.5657713212718107,-1.348422692409217,-0.5545959968704389,1.9822319481735053,-0.3179933540864753,1.7446693230091392,-1.28335224554503,-1.474761993769701,-0.5816988887163717,-1.310090636472782,-1.4997664162861255,-70.18578,LR
0.7038460323713077,-1.6616796413073711,1.3668594179835072,-1.503091616822169,-0.9555368730943747,1.9804375754059764,-1.871639202910617,-0.7165727213160265,1.3593108717786027,-1.8700916585998575,-0.7352275110121448,-114.4107,1.5482890243436938,-1.231877377120419,-0.5498298668242345,2.246596013716246,-0.7147486868993822,1.5620139320638173,-1.2820686978303255,-1.4751533636601577,-0.5809248235166696,-1.2813596086781829,-1.4810805661601671,-69.74925,LR
0.6967633363374068,-1.6535594913449922,1.448179947490366,-1.6430569388684229,-1.1852513861803393,1.8853058247073906,-1.872810729183078,-0.7170651001465828,1.360660815716563,-1.9034958322672906,-0.7262769222277671,-113.8578,1.5375307216695606,-1.2406185890400843,-0.5490356202757101,1.6003703267119007,-0.7997678339618431,1.6228989959126188,-1.2812580027552114,-1.4753566484734042,-0.5802364716200107,-1.2817794059630967,-1.471282144785723,-69.76566,LR
0.6719738276917608,-1.6643856189262332,1.5036255566034096,-1.531085084611361,-1.6159662392755962,-0.17479138897177515,-1.8744246399151279,-0.7173764851153533,1.3615953922889967,-1.9238204029637918,-0.7041387464552769,-113.3859,1.572495260443144,-1.2260499025073088,-0.5577736338195947,2.2172224424327247,-1.1115041496496776,1.9577673455783215,-1.28018933043571,-1.4764931784292983,-0.5794375389805366,-1.2892709774802629,-1.5034295142474932,-69.85404,LR
0.6648911316578601,-1.6941558069453018,1.3779482369983873,0.06327376610311998,0.22407583549444884,1.060835913797751,-1.8739858579348518,-0.7168513062049268,1.3618974776457422,-1.8717047082743423,-0.7040026156228704,-114.1481,1.5254275760785103,-1.2551866788623733,-0.5498298668242345,1.9234828816154168,-1.9900338509630482,1.988209777803263,-1.279268345334739,-1.4773581646346539,-0.5786613574029819,-1.2848462759916142,-1.460389332108804,-69.82568,LR
0.6684324796748105,-1.6427344723166475,1.3779482369983873,0.06327376610311998,-1.903110038908728,0.49004894055864784,-1.8732365422378285,-0.7172082768110175,1.3613782684388347,-1.8556140309783733,-0.7027397345699647,-114.3731,1.5577025942662108,-1.2668410313781069,-0.49740080942834003,1.453500738702351,-2.1033927137129957,0.1316234003007088,-1.277637447423661,-1.4789070457117297,-0.5777909970109719,-1.2369392130673669,-1.4914371533522635,-69.03831,LR
0.6542670150800157,-1.629202367116544,1.4518757158157787,0.06327376610311998,-2.218967635461003,0.4266278426606184,-1.8729937351321584,-0.717378858805344,1.361755875134768,-1.8803057092316475,-0.6871671956377319,-113.8858,1.620907732642044,-1.2508157745472972,-0.5315592678104119,1.0128919746737026,-0.2674212212845777,0.1316234003007088,-1.2769085190918539,-1.4802191652563135,-0.5774439110430949,-1.269809149947875,-1.5492509148585654,-69.51557,LR
0.6418722970206892,-1.6887438517075772,1.3520733166045718,-2.17492567603684,-2.075395829683819,0.7437318782291846,-1.8734217096744972,-0.7174331299901298,1.361500990615013,-1.8488302448697918,-0.6845566677508569,-114.3262,1.560392169934744,-1.2610135567649967,-0.4989896279029179,0.983518018591972,-0.2674212212845777,1.8968822817295201,-1.2755622201555417,-1.480401468838835,-0.5759148280443663,-1.237417439021286,-1.493769673265874,-69.04383,LR
0.6206241363919937,-1.7212211258984036,1.4592687665052462,-2.538834889951736,-1.9892519939024504,0.807152560721048,-1.8750846141251976,-0.7170805291315218,1.3630397379009391,-1.900720778675595,-0.6661363535584794,-113.4065,1.5765296239459439,-1.2551866788623733,-0.529970449335834,1.0128919746737026,-2.046713282338022,0.1316234003007088,-1.2748307564208412,-1.4821801177048282,-0.5755968422719663,-1.2675837797718696,-1.5081469670920278,-69.50797,LR
0.624165484408944,-1.6670915965450956,1.3890370560132677,-2.874751369495515,-1.730824248133637,0.04610312460018868,-1.8759275942843487,-0.7166307148782975,1.3626526910376087,-1.851487288094818,-0.666373009292414,-114.1354,1.581908830365661,-1.2566432491604074,-0.5164659803682159,0.7191529910537081,-1.224862826774785,0.1316234003007088,-1.2739991442718577,-1.4834195023162318,-0.5750656314308863,-1.254690096748683,-1.5133397000524165,-69.30054,LR
0.6046880703157167,-1.6616796413073711,1.3779482369983873,-2.9587314061540533,-1.730824248133637,0.6168903055423748,-1.8765032704785034,-0.7158514971913739,1.3625110885266332,-1.8364268485397786,-0.6495026825865203,-114.2121,1.564426533437544,-1.28286569149843,-0.5132883434190603,0.807274666899796,-1.4232404653375124,0.1316234003007088,-1.2731707013764906,-1.484470428850768,-0.574583097280422,-1.256194634975554,-1.4977462179479555,-69.33681,LR
0.624165484408944,-1.6697986827168534,1.4296980777860182,-2.1189383737494185,-1.5011089827326138,1.060835913797751,-1.8772763625389903,-0.7153098103460123,1.363379583927279,-1.8712869660561298,-0.6653994936596376,-113.8351,1.5334963030841102,-1.2624707237735178,-0.5085222133728559,0.7779007108180652,-1.1115041496496776,2.7492745714051656,-1.2721666818307666,-1.4846942286451676,-0.5729450208222694,-1.2458305322637329,-1.4687941673001879,-69.20019,LR
0.6666618056663353,-1.6346154309071645,1.3927343383773223,-2.202918410407957,-0.8406798046301571,0.7754423233266579,-1.877752610304117,-0.7151667415765771,1.3631246994075241,-1.8591304503091501,-0.7000976346567669,-114.3008,1.5832536181999275,-1.2566432491604074,-0.5061391483497535,0.7191529910537081,-0.28965365696147233,2.2621928642212463,-1.2712089333878438,-1.4852190391630355,-0.5715196403383341,-1.2445152521168994,-1.5147185655848179,-69.139,LR
0.6471843190461148,-1.6914498293264397,1.4555729981798335,-1.6990429576742132,-0.23767916075980894,0.9974148158997213,-1.8788319131061746,-0.714526924229103,1.3644085621736952,-1.9001191430025708,-0.6863768730571785,-113.588,1.5240827882442438,-1.269754768684662,-0.5259985658381541,1.0422659307554336,0.16378101441398818,1.8359972178807187,-1.2704806389067602,-1.4843105052476862,-0.570613830617288,-1.264078694725817,-1.459965808675521,-69.49785,LR
0.6666618056663353,-1.6535594913449922,1.4260023094606056,-1.475099065805571,0.3940358818817288,1.4730710769556536,-1.8793852539285922,-0.7139222267039903,1.365239296904748,-1.8812997474735984,-0.7007646811140981,-113.9819,1.5200484247414436,-1.3192859160541526,-0.5490356202757101,0.3960398589528784,0.985631655602066,0.1316234003007088,-1.270727206838128,-1.4827574279244653,-0.5709371073343197,-1.2965421713002054,-1.4571562271660405,-70.01419,LR
0.6648911316578601,-1.575073946316132,1.3816455193624422,-1.2791477249535268,0.9396077658254506,1.5999126496424636,-1.878896037237939,-0.7129390874678716,1.364984412384993,-1.8325629140188073,-0.6937708587516012,-114.6386,1.50929006698466,-1.269754768684662,-0.5236155008150517,0.8660223866641531,0.7022348699768777,2.1404219389279713,-1.2700008139092138,-1.4811815976221474,-0.5698344744729535,-1.2608708337786136,-1.4463330797339589,-69.46246,LR
0.6507256670630653,-1.6400273861448895,1.3631636496580946,-2.7907713328369765,-0.9555368730943747,1.0925463588952242,-1.879402545829292,-0.7126715618164278,1.364625686023857,-1.8408250876656733,-0.6876274910402348,-114.4684,1.5577025942662108,-1.2027411974758413,-0.5212321104144205,1.3066311506928017,0.2488001614764491,2.5666191804598437,-1.268831993175429,-1.4808814261479084,-0.5683651791485699,-1.2472645750312612,-1.4896469534603727,-69.20289,LR
0.6365602749952636,-1.5723668601443737,1.3705551863089198,-2.4828494212095014,-1.012965595405248,1.5999126496424636,-1.8791100245091084,-0.7120275365639702,1.3641159169843469,-1.8150619042426341,-0.6691167636004156,-114.694,1.5455994486751605,-1.183802800048963,-0.5442691648519765,0.7779007108180652,0.5321967614767967,2.688390105753119,-1.2683394911634163,-1.4801757107962341,-0.567266249948446,-1.2658201230998485,-1.4774962283679292,-69.50729,LR
0.6666618056663353,-1.6048441343352007,1.5590711657164533,-2.00696743626495,-0.43867931269033683,1.7584646674267468,-1.8808990157357512,-0.7116640922579052,1.366570360507911,-1.9282222620395844,-0.6928030981559908,-113.2279,1.5133244304874598,-1.2872365958135061,-0.5490356202757101,0.6310313152076202,0.36215883860155634,2.3839637895145214,-1.2683800576097084,-1.4790247271036185,-0.5666736641496308,-1.2897784177686844,-1.4500688433275588,-69.91532,LR
0.6755151757087112,-1.6968628931170602,1.1487727498567453,-1.6710504066576148,-0.036678820750516455,1.8535955873130003,-1.8793074403754397,-0.7116783883453486,1.3642763998301184,-1.7698994093169855,-0.7197162874291587,-115.7474,1.4756703160453435,-1.2945206407246503,-0.5387084628797185,1.336004914375428,0.10710158303901424,2.0186526088260406,-1.2678552292108072,-1.4774022718441335,-0.5660937766179334,-1.2785899627485147,-1.4157414111367073,-69.78163,LR
0.6578084356239592,-1.6589725551356127,1.4038231573922026,-2.00696743626495,-1.0416797684819201,-0.17479138897177515,-1.879996954915873,-0.7116398698305006,1.3637760709580082,-1.869186671125394,-0.694199313200811,-114.1064,1.4756703160453435,-1.3003475186272742,-0.5196432919398427,1.336004914375428,-1.1681833953998109,2.0186526088260406,-1.2669462872735795,-1.4768107876375176,-0.5651810886688653,-1.2610296073356924,-1.4163643665696786,-69.50259,LR
0.6861392922865556,-1.6616796413073711,1.3188068595599312,-2.202918410407957,-1.0991084907927935,1.5999126496424636,-1.8800553150807375,-0.7120960498886998,1.3632191010815078,-1.840867803074468,-0.7212437388355245,-114.7305,1.4689463217913599,-1.2639272940715518,-0.5387084628797185,1.2772571946110707,-1.4799198967124862,2.29263509704727,-1.2663872309356194,-1.4762007466979492,-0.5644789803161626,-1.2719379858011761,-1.4084922876651915,-69.68626,LR
0.6595791096324344,-1.6670915965450956,1.3114138088704634,-2.1189383737494185,-1.529823155809286,0.9022838960134677,-1.8799220233461704,-0.7123169109528279,1.362284524509074,-1.8293455025495935,-0.699062212035409,-114.7274,1.4366713586863098,-1.2406185890400843,-0.529970449335834,1.2478832385293401,-0.9414660411495965,2.8406012698832366,-1.265495402967921,-1.474657087616076,-0.5633038615133338,-1.256077142543316,-1.3779318418492736,-69.48028,LR
0.6330189269783131,-1.6156702619164414,1.3372887292642788,-2.6788003953525084,-1.3001088308020863,0.807152560721048,-1.8797944955785046,-0.7118728151345811,1.3612933069322497,-1.8132403454540331,-0.6709624631835293,-114.736,1.5039109156475936,-1.2770388135958068,-0.5474468018011323,0.1316747736948834,-0.8281073640244894,3.0537008876437635,-1.2657514786601387,-1.4743170051785026,-0.5624700086392869,-1.2855867958618261,-1.4410968411563367,-69.85968,LR
0.6507256670630653,-1.6156702619164414,1.3594663672940397,-2.6228149266102743,-1.3862517261896317,0.26807582487633524,-1.8799839859903476,-0.7117679951424949,1.3602076876814433,-1.8306646122923722,-0.6856196822793758,-114.6009,1.4998765521447937,-1.2784953838938409,-0.5426803463773987,-0.39705560846012156,-1.1681833953998109,2.7492745714051656,-1.2661641154810144,-1.4741633293196812,-0.5616980598174377,-1.2809061513991677,-1.4375033146777003,-69.79001,LR
0.6578084356239592,-1.6427344723166475,1.3631636496580946,-2.4548548532931975,-0.8406798046301571,-0.08073853116785444,-1.880348556896784,-0.7116028618456468,1.3591787094350258,-1.8445304683811186,-0.6939782552311584,-114.4654,1.5173588490729104,-1.2377048517335292,-0.5418860998288743,0.5722834030441586,-0.7430884025868691,2.627503646111891,-1.2659410000264084,-1.473998183721397,-0.5608366940313025,-1.2729338135511692,-1.4525544767604412,-69.64606,LR
0.64895499305459,-1.6400273861448895,1.3520733166045718,-2.258903879150191,-1.0991084907927935,0.5217593856561211,-1.880401873590611,-0.7113985626639534,1.3584140558757622,-1.8349332572119235,-0.6864251723410588,-114.5449,1.4931526129734602,-1.1852593703469971,-0.545063411400501,0.19042255117897186,-1.224862826774785,2.505734714807797,-1.2657248569297603,-1.4737097617363641,-0.5599187151376028,-1.2638386291075157,-1.4283023454433663,-69.53142,LR
0.6383309490037389,-1.6562665775167509,1.433393846111431,-2.3988693845509634,-0.8981083388622659,0.14123466759569145,-1.8820763059751124,-0.7111625423523852,1.3587727822368996,-1.8742908004813703,-0.676286302845359,-113.8835,1.5039109156475936,-1.2275070695158299,-0.49740080942834003,0.24917027094332897,-1.2532025424622717,2.627503646111891,-1.2646568184609814,-1.4740820153943825,-0.557801808190229,-1.2259241387715263,-1.4406537214428776,-68.91636,LR
0.6347896009867884,-1.612963175744683,1.2818431201512352,-1.922987399606412,-0.43867931269033683,0.01439288720579849,-1.8809501709419902,-0.7104384050627439,1.3565543428982934,-1.787150642550207,-0.6739582558481712,-115.1426,1.50525570348186,-1.234791114426974,-0.5116995249444825,0.5429094469624278,-0.9698057568370836,2.2317506313952227,-1.263853729594547,-1.4738723895869614,-0.5566626678108997,-1.241656057901039,-1.44181993451863,-69.16383,LR
0.6082294183326672,-1.5994310705445802,1.40012738906679,-1.475099065805571,-0.15153607729349874,0.0778135696976619,-1.880373774251972,-0.7090476924657342,1.3559596123521995,-1.826639951995936,-0.646042668185608,-114.3264,1.4783598917138767,-1.2362476847250081,-0.5236155008150517,0.48416153479896623,-0.5163710483366549,2.3839637895145214,-1.2633016456145436,-1.4728312542934303,-0.5556938958487291,-1.252013174576349,-1.416636089153175,-69.35942,LR
0.6365602749952636,-1.6535594913449922,1.40012738906679,-0.9152377776205556,-0.09410754306138994,0.6803114034404043,-1.8800913398738637,-0.7082514813163776,1.3561484157001655,-1.8570938664966168,-0.6754991536030559,-114.1299,1.4514640799458933,-1.2260499025073088,-0.5053445764237001,0.8953963427458839,-0.8847867953994633,1.71422669138528,-1.2621201478662922,-1.4715880464355389,-0.5546722144402368,-1.2299188814676079,-1.39175687687046,-69.0442,LR
0.6595791096324344,-1.5994310705445802,1.1931295399549087,-1.447105598016379,-0.46739348576700884,0.49004894055864784,-1.8779975788973744,-0.7080574321596437,1.3529481989521366,-1.7503654356781764,-0.6968757281954293,-115.8591,1.50525570348186,-1.2551866788623733,-0.5005784463774957,1.189135518764983,-0.4880313326491678,0.1316234003007088,-1.2609190007456181,-1.4710890661439415,-0.5543007901270511,-1.2349170730444219,-1.4426456973871096,-69.05627,LR
0.6560376890884909,-1.64544044993551,1.3151095771958763,-1.447105598016379,-1.012965595405248,0.49004894055864784,-1.877376511463881,-0.7080411939622078,1.3518248190317355,-1.8222518487297554,-0.6940810391192378,-114.7916,1.498531764310527,-1.2770388135958068,-0.5315592678104119,0.5429094469624278,-0.43135206833655054,2.0490952404499003,-1.260746593348878,-1.4704347314950648,-0.5537764575139922,-1.2695354243354724,-1.4364437091165911,-69.61137,LR
0.624165484408944,-1.5940180067539598,1.1302908801523976,-1.3631262947759153,-0.8406798046301571,0.5217593856561211,-1.8744095095020141,-0.7074286201021261,1.3479449102310264,-1.706202770914316,-0.6679541923074618,-116.2748,1.447429661360443,-1.231877377120419,-0.5085222133728559,0.6310313152076202,-0.8847867953994633,0.1316234003007088,-1.2598249743971843,-1.4691677449090186,-0.5534838682758269,-1.2339625264192695,-1.38814778588221,-69.11368,LR
0.6578084356239592,-1.5804859015538564,1.3409844975896914,-1.5870709200626327,-1.0991084907927935,0.7120216408347945,-1.8737452123167688,-0.7073646923148785,1.3468687311476186,-1.8124186168272198,-0.6892666009247025,-114.8968,1.5200484247414436,-1.220223024604685,-0.5410915279028209,1.1597615626832523,-0.5163710483366549,0.1316234003007088,-1.2593590941155508,-1.4689755568355778,-0.5536875696441695,-1.2687301248539729,-1.4545888331766332,-69.57731,LR
0.6188534623835183,-1.637321408526027,1.4814479185736493,-1.6150643878518247,-1.1852513861803393,0.9657045785053312,-1.8744988509889675,-0.7066766459025948,1.3484452391031378,-1.882146815749697,-0.656276415116458,-113.5951,1.5254275760785103,-1.215852717000096,-0.5331477609074607,1.3066311506928017,-0.4030123526490636,1.5924563642887588,-1.2586618583199094,-1.4688039769932044,-0.5531690570702065,-1.2602160516292247,-1.4596374537799361,-69.43715,LR
0.6347896009867884,-1.5940180067539598,1.4112162080816701,-1.6150643878518247,-0.2663935219152456,1.1242565962896143,-1.8744188759482268,-0.7058557807458355,1.3487473244598847,-1.8410545924891977,-0.6682835740607834,-114.3051,1.494497400807727,-1.2537295118538523,-0.5077276414468025,0.9541442549093454,-0.09127594414880867,1.470686037192238,-1.2577655933971474,-1.4678658828550115,-0.5524203884047392,-1.240998735374736,-1.4325050443253766,-69.16464,LR
0.6949926623289318,-1.6048441343352007,1.2005225906443764,-0.6633004179627213,0.10689274052427314,0.7437318782291846,-1.8723445683600257,-0.7060850576199303,1.3459247144077862,-1.7683920621795184,-0.7276596371386742,-115.8269,1.4702911096256261,-1.2872365958135061,-0.5124940968705359,0.45478777111634006,-0.8564470797119763,1.0140473604300144,-1.2573288702487864,-1.467086779820757,-0.5520611332642078,-1.2509754306072876,-1.4111421923079726,-69.35042,LR
0.6932219883204565,-1.6346154309071645,1.2263975110381915,-0.9152377776205556,-0.18025043844893548,1.2828086140738975,-1.8708963716763565,-0.7064326413610581,1.3441216424347078,-1.7904846164061323,-0.7277526858704257,-115.5085,1.4689463217913599,-1.2493592042492632,-0.5212321104144205,1.4828745023849774,-1.338221503899892,1.257588014623056,-1.256416759057943,-1.4666244467454925,-0.5516304503711406,-1.2517019784044758,-1.4084032136643905,-69.36572,LR
0.6330189269783131,-1.6616796413073711,1.2633612504468874,-0.8872443098313638,-1.3862517261896317,1.6316230947399368,-1.8695504854051659,-0.7062692343842033,1.3434325102146305,-1.7949784222093303,-0.6772748783884768,-115.0551,1.4716359525425435,-1.21730928729813,-0.5069333948982779,-0.026797576990716908,-1.5082596123999732,1.988209777803263,-1.2558431241533465,-1.4663315487645718,-0.5505754360114642,-1.231112858616834,-1.410142219446347,-69.03712,LR
0.6347896009867884,-1.6346154309071645,1.3631636496580946,-1.7550297098980785,-1.4723946215771773,1.2828086140738975,-1.8694827587940888,-0.7060674707349998,1.343630753729995,-1.8326135933173775,-0.6733934554249786,-114.472,1.4702911096256261,-1.2624707237735178,-0.5180547988427938,0.7485267547363343,-1.0831644339621906,1.8968822817295201,-1.2553094218443188,-1.4657312058160938,-0.549916184310283,-1.251361567898101,-1.4101718482718768,-69.35786,LR
0.5604210750498503,-1.5696608825255116,1.233789047689017,-1.447105598016379,-0.2951076949919178,0.4583382877580916,-1.8669811971594117,-0.7040512908254594,1.341204630708627,-1.7192512423161264,-0.6074844570264286,-115.5704,1.5039109156475936,-1.284322858506951,-0.5474468018011323,0.30791818310679053,-0.03459662414873918,1.470686037192238,-1.255713184755068,-1.4649879107489434,-0.5499918448185245,-1.287046242398487,-1.4413122127140634,-69.88251,LR
0.6879099662950309,-1.558834754944271,1.3225026278853438,-0.5233347292074301,-0.6971079988529734,1.5364915517444342,-1.865752031217949,-0.7043872219066332,1.3403078148057865,-1.8074238099581585,-0.714279283298193,-115.1635,1.4595328069514932,-1.2653838643695865,-0.5148771618936381,1.7472397223223455,-0.09127594414880867,0.8009493378608324,-1.2546324692718227,-1.4634877061271494,-0.5497310012481531,-1.2480635235704776,-1.4004086814493284,-69.31931,LR
0.7587370716880253,-1.6508535137261304,1.3890370560132677,-0.41136269159584965,-1.4436804485005053,-0.17479138897177515,-1.8662506143548148,-0.7063799346537661,1.339816926101075,-1.896274756211048,-0.7815123705281073,-114.3584,1.4743255282110768,-1.2406185890400843,-0.5410915279028209,-0.026797576990716908,-0.17629505408630147,1.1358176875265351,-1.2548701632930648,-1.4623234809466985,-0.5496939646357267,-1.269944425018505,-1.4126312283150495,-69.64892,LR
0.6454136450376395,-1.6535594913449922,1.4703575855201265,-1.531085084611361,0.22407583549444884,1.2828086140738975,-1.867333519636185,-0.7056152288442852,1.3416577587437466,-1.8936372607154706,-0.6810957389982452,-113.6392,1.5106348548189268,-1.2449888966446734,-0.5402972813542964,1.189135518764983,-0.7997678339618431,1.4402434055683784,-1.2545633795429822,-1.4623173264523524,-0.5495347072022958,-1.272433994393488,-1.446538418746332,-69.64511,LR
0.6082294183326672,-1.6508535137261304,1.4112162080816701,-1.6990429576742132,-1.6159662392755962,0.8388634212246874,-1.8676152335184317,-0.7050280103091034,1.3424412926378075,-1.849567266668995,-0.6505079316018016,-114.0266,1.5160140612386437,-1.2901497364095749,-0.5172602269167403,1.1303876066015215,-1.2815422581497589,1.775111954632999,-1.254026507980338,-1.4628002677586844,-0.5490183110061855,-1.259155444267944,-1.4532347208402439,-69.42743,LR
0.6294775789613627,-1.6048441343352007,1.3705551863089198,-1.3071402759701252,-1.0991084907927935,1.8535955873130003,-1.867146911207792,-0.7045434538660164,1.3429038608403245,-1.8235724064524932,-0.665898406975087,-114.5421,1.4635671704542932,-1.2537295118538523,-0.4966065628798156,1.7766134860049718,-1.1965231110872978,1.8968822817295201,-1.2525654820631071,-1.4622349867779962,-0.5480072114869567,-1.227994545955823,-1.404173886344246,-68.99595,LR
0.6595791096324344,-1.5804859015538564,1.2781458377871804,-1.2791477249535268,-1.1278228519482303,1.5364915517444342,-1.8658211988207516,-0.7045802460608711,1.3415539169023656,-1.783451777744578,-0.6926993461308182,-115.3461,1.5119796426531935,-1.2420751593381183,-0.5093164599213803,1.8059876344858072,-0.5163710483366549,1.3793583417195772,-1.2514422985814007,-1.462044383953099,-0.5474135674992155,-1.2412102217527643,-1.4483153981812618,-69.14925,LR
0.64895499305459,-1.5858989653444768,1.25596819975742,-1.2511542571643348,-0.43867931269033683,1.0925463588952242,-1.864308157509455,-0.7042017504023653,1.339788605598879,-1.7709339909977928,-0.6846278796126134,-115.4649,1.48911819438801,-1.22313676191124,-0.5212321104144205,1.1597615626832523,-0.6864089712118953,1.1662603191503949,-1.2507235118611661,-1.4615568734009645,-0.5470183339351845,-1.2476634142066405,-1.4262635822081873,-69.27797,LR
0.6277068324258944,-1.648147536107268,1.3372887292642788,-0.9992170808610192,-0.6683938257763014,0.6486005429367648,-1.8637043819766614,-0.7036199805646621,1.3394204390703446,-1.8224067825853834,-0.6692838748198099,-114.5876,1.48911819438801,-1.228963639813864,-0.5085222133728559,0.6604050788902465,-0.7714281182743562,0.8618344017096338,-1.2500345161249276,-1.4611511430237003,-0.5465585508466395,-1.2362933222371737,-1.4267303299723852,-69.09738,LR
0.6277068324258944,-1.6156702619164414,1.3890370560132677,-0.9992170808610192,-0.9268227000177025,1.1876772787814778,-1.863369351400589,-0.7030684213268396,1.3398452466032695,-1.8352554327528325,-0.6647771966501776,-114.3608,1.4138099104211264,-1.21730928729813,-0.5188490453913183,1.4828745023849774,-0.2329743555238869,0.9227194655584352,-1.2490026071473772,-1.4589502585456062,-0.5462294540905119,-1.2383637294214704,-1.3560584551641197,-69.23467,LR
0.6418722970206892,-1.6346154309071645,1.241182098378485,-0.5793211147222578,-0.8981083388622659,0.933994341110941,-1.8616711426526238,-0.7028849998275637,1.338249858312953,-1.7786256605407567,-0.6831847099187649,-115.3413,1.47298074037681,-1.215852717000096,-0.5418860998288743,1.0128919746737026,-0.5447107640241419,0.831391770085774,-1.2487623777232428,-1.458106626570633,-0.5463109346378493,-1.2655724363508067,-1.4105139861970593,-69.58257,LR
0.6330189269783131,-1.6075501119540625,1.3631636496580946,-0.6633004179627213,-0.9555368730943747,1.1242565962896143,-1.8609283114183643,-0.7024537435142663,1.3382215378107585,-1.8224965573428504,-0.6694404441019652,-114.5875,1.4366713586863098,-1.2056549347823966,-0.5005784463774957,1.4828745023849774,-0.17629505408630147,1.3184732778707757,-1.2473843862507659,-1.4563485859357077,-0.5454839599918243,-1.2197910338087188,-1.3773673939705124,-68.90524,LR
0.6100000923411424,-1.6237893033259236,1.2818431201512352,-0.9712236130718274,-1.3862517261896317,0.8388634212246874,-1.8595543258085347,-0.701895009258972,1.3371170382251547,-1.7811292178901137,-0.6536022053229967,-115.0618,1.4447400856919097,-1.1881731076535522,-0.5553905687964923,1.2478832385293401,-0.4880313326491678,0.7096214429892533,-1.2471739478106265,-1.4549627989588008,-0.5457659673407247,-1.2711968308367365,-1.382743150562021,-69.71273,LR
0.6365602749952636,-1.5967250929257177,1.170951901925148,-1.2231609727296615,-1.3862517261896317,0.7437318782291846,-1.857347446981629,-0.7018273051467394,1.3342094666664726,-1.7305729976166606,-0.6775236358360784,-115.9962,1.4581880191172265,-1.2027411974758413,-0.5029615114005979,1.0128919746737026,-0.6864089712118953,1.1358176875265351,-1.2461236571621006,-1.4540391585573296,-0.5450463988707345,-1.2231627490668262,-1.3972173006437825,-68.92918,LR
0.6064587443241919,-1.6264952809447863,1.3668594179835072,-0.8592517588147653,-1.529823155809286,1.1242565962896143,-1.8567530378950485,-0.7012312931690923,1.3345398725254138,-1.8198865734664962,-0.6481031866326614,-114.4441,1.46491195828856,-1.2362476847250081,-0.5061391483497535,1.7178659586397194,-0.629729725461762,0.831391770085774,-1.2449649780398884,-1.4532384215429495,-0.5446278851503216,-1.2338151845583012,-1.4045744380615328,-69.08762,LR
0.6135414403580928,-1.5886060515162348,1.2227002286741366,-1.3351337437593171,0.22407583549444884,1.1242565962896143,-1.8549085684869921,-0.700053025826244,1.3326046382087586,-1.7427201014939053,-0.655346465652883,-115.6394,1.4622223826200265,-1.2537295118538523,-0.529970449335834,1.3653788704571588,-0.5730502940867881,1.0140473604300144,-1.244537128801654,-1.4523629913471885,-0.5446019595216235,-1.2607393692733537,-1.4021153393046784,-69.5178,LR
0.6684324796748105,-1.5669537963537532,1.333591446900224,-0.8312582910255734,-1.156537213103667,0.7120216408347945,-1.8540799982450913,-0.700289100085312,1.3315567796275454,-1.808241194645094,-0.697593332923192,-115.0235,1.4797046795481434,-1.332397435578407,-0.5204378638658961,1.6003703267119007,-0.5163710483366549,0.4965234204200713,-1.244213231082042,-1.451828389588316,-0.5448903160040823,-1.2685510282815888,-1.4210919457216729,-69.61541,LR
0.5940639537378725,-1.5831929877256143,1.40012738906679,-0.9152377776205556,0.22407583549444884,0.8388634212246874,-1.8534834276709231,-0.6986652803417225,1.3318777453190882,-1.8148816307377207,-0.632197769896492,-114.3777,1.4554984434486933,-1.2260499025073088,-0.5069333948982779,1.7178659586397194,-0.4880313326491678,0.009442092094096135,-1.2430520165569368,-1.4507860420458984,-0.5447749734110989,-1.2317854234046168,-1.3954601987753474,-69.06839,LR
0.640101623012214,-1.6346154309071645,1.1339866484778103,-0.7192864367685116,-1.7021083823480834,0.9657045785053312,-1.8510647230604367,-0.6989444586531204,1.3290456950995924,-1.7284596708662923,-0.6849584984299989,-116.0852,1.4743255282110768,-1.2522729415558183,-0.4910458609075576,-0.026797576990716908,-0.7997678339618431,0.7096214429892533,-1.2425842347231335,-1.4503672566806276,-0.5442136041856144,-1.2229779366463875,-1.414192367381722,-68.90284,LR
0.6100000923411424,-1.6183762395353034,1.333591446900224,-0.6073140324478937,-2.046681844685912,0.9974148158997213,-1.8501165505053576,-0.6986913369841197,1.3288757720864224,-1.8031254814494444,-0.6514567059533032,-114.7201,1.435326570852043,-1.182345633040442,-0.5116995249444825,1.5416224145484392,-0.8281073640244894,0.6487363791404519,-1.2414204847951351,-1.4491959445066873,-0.5437940322762747,-1.225745677293371,-1.374887104977678,-69.00359,LR
0.6170827883750432,-1.5642478187348912,1.3003249898555829,-0.7472789877851099,-1.4436804485005053,0.01439288720579849,-1.848636652003737,-0.698233052973429,1.3271293411177345,-1.771379244835229,-0.6536516878855467,-115.2054,1.4837390430509434,-1.234791114426974,-0.5093164599213803,1.5416224145484392,-0.6864089712118953,0.4356381571723518,-1.2405235860216504,-1.4488787082981254,-0.5435987964193433,-1.2379401215711865,-1.4219073009963745,-69.12962,LR
0.5781278876615955,-1.6183762395353034,1.4223050270965507,-0.3833694071611764,-0.8406798046301571,0.5217593856561211,-1.848151037792397,-0.6968767049337836,1.3279506356813873,-1.8304495872684392,-0.6211029188064844,-114.0457,1.4581880191172265,-1.2100252423869857,-0.5021672648520735,1.0716398868371644,-0.7147486868993822,0.2834253380312139,-1.239592459309107,-1.4481033352604442,-0.5432675832853628,-1.223914700633148,-1.3975005559663303,-68.9407,LR
0.631248252969838,-1.6427344723166475,1.2448793807425398,-0.2993904706297504,-1.2713944696466495,0.6168903055423748,-1.8466055741672878,-0.6968037679140715,1.3265157302368435,-1.7791266616066201,-0.6746723107399247,-115.2657,1.48508383088521,-1.2595569864669627,-0.5061391483497535,0.7485267547363343,-0.17629505408630147,0.2225401744829535,-1.2391589054143626,-1.4474732455892942,-0.5431988010051433,-1.2400372027130717,-1.4240200425332716,-69.1601,LR
0.5976053017548228,-1.6075501119540625,1.3446817799537463,0.34444993744120944,-0.9842512342498113,-0.14415913057848465,-1.8451206321946294,-0.6959035999326252,1.325722756175384,-1.7992948504675337,-0.6394007098711566,-114.672,1.4487744491947092,-1.2508157745472972,-0.4989896279029179,0.6310313152076202,-0.204634658398884,-0.08188558343867317,-1.2385630857344505,-1.4462069117526481,-0.5431083258519319,-1.2286474228225273,-1.390345007076709,-69.02612,LR
0.6064587443241919,-1.5994310705445802,1.3261999102493987,0.400435772892481,0.04946403702127615,-0.4929736112445241,-1.843465653198416,-0.6947405997322167,1.3243633720700263,-1.7915749453153664,-0.6468790310634905,-114.8508,1.4689463217913599,-1.2493592042492632,-0.4862794054838241,-0.07394272647812766,-0.14795535696129858,-0.2645411737829135,-1.2380953039006475,-1.4452940883412397,-0.5428834607050594,-1.217327503297097,-1.4092419157035128,-68.81999,LR
0.5887519317124467,-1.5831929877256143,1.0970229090691144,0.2884639186354192,0.02074971348159234,-0.08073853116785444,-1.8395728140532095,-0.693426114952406,1.320190818079969,-1.673552270815616,-0.6378161921616762,-116.5048,1.4797046795481434,-1.2522729415558183,-0.5093164599213803,0.1316747736948834,0.3338191229140693,-0.11232821506253289,-1.2380148048587867,-1.444238499310987,-0.5429813431807569,-1.2413004051331842,-1.4187394544794616,-69.18696,LR
0.6347896009867884,-1.575073946316132,1.25596819975742,0.9882901621576505,-0.12282190421682664,0.20465514238447177,-1.837105836219934,-0.6928724517620918,1.318208382926322,-1.7616090000609166,-0.6714101728038183,-115.4951,1.491807770056543,-1.2712113389826967,-0.49501774440523777,0.30791818310679053,0.4755173301018227,-0.5994095234486163,-1.2376642854087962,-1.443339849886557,-0.5430945693958874,-1.2319594392231734,-1.4308341098324533,-69.02367,LR
0.6436429710291645,-1.629202367116544,1.2633612504468874,0.4564221584073087,-0.007964459595079734,0.4583382877580916,-1.8355149813554852,-0.6925251917059627,1.316962280829744,-1.7876972549847836,-0.6835651340110649,-115.2121,1.4622223826200265,-1.2566432491604074,-0.4966065628798156,0.36666590287114764,0.5038572314141504,-0.4167541325032941,-1.2372231253053716,-1.4418854309727007,-0.5431152040799538,-1.2285070669980709,-1.4030339266582035,-69.00566,LR
0.6648911316578601,-1.5696608825255116,1.296627707491528,0.7923388213056065,-0.007964459595079734,0.7120216408347945,-1.833814611119933,-0.692431161213834,1.3158011402397514,-1.7903333025004018,-0.6958385306560668,-115.2705,1.4326369951835098,-1.23333454412894,-0.5426803463773987,0.6016573591258895,-0.06293633983622615,-0.8429503770405761,-1.2374424376556374,-1.4402922561863167,-0.5439919136055222,-1.2668178561325263,-1.3735529639698894,-69.6578,LR
0.6294775789613627,-1.6237893033259236,1.3372887292642788,0.7083595180651431,-0.3238220561473545,-0.46126316614705093,-1.832680550632323,-0.6919263744583268,1.3149704055086984,-1.814655021874115,-0.668630543637968,-114.6959,1.4864286187194766,-1.183802800048963,-0.50137269292602,0.7191529910537081,-0.7714281182743562,-0.08188558343867317,-1.2366558289080087,-1.4402363994876308,-0.5436855679113132,-1.2195350908347091,-1.4229412157404107,-68.83694,LR
0.599375975763298,-1.5534216911536505,1.3261999102493987,-0.41136269159584965,0.22407583549444884,0.20465514238447177,-1.8313721301459833,-0.6905540040112447,1.3139319870948838,-1.772235000991082,-0.6363967956120092,-115.0449,1.5039109156475936,-1.2071115050804306,-0.5005784463774957,1.0128919746737026,0.3338191229140693,-0.02100049964997999,-1.2358483030865113,-1.439704501976274,-0.5434268407187947,-1.224776523500967,-1.4399825722873676,-68.89899,LR
0.6436429710291645,-1.629202367116544,1.3520733166045718,0.2884639186354192,-0.40996495153490004,-0.3978420682490214,-1.8308173483318413,-0.6903691259294745,1.313384457385782,-1.8290928300467226,-0.6808939361996719,-114.5854,1.4998765521447937,-1.2668410313781069,-0.5164659803682159,-0.2501862128496766,0.6172157229144168,-0.11232821506253289,-1.2362235427147106,-1.438928382939278,-0.5436786896832912,-1.2526495389931174,-1.437691588986762,-69.34265,LR
0.6347896009867884,-1.6319083447354066,1.3446817799537463,0.400435772892481,0.42275020542141256,0.10952380709205206,-1.8301011754444945,-0.6896982887696229,1.3131201326986282,-1.8230540296271203,-0.6737121338848792,-114.6149,1.46491195828856,-1.2449888966446734,-0.4831020939121975,0.3960398589528784,0.6172157229144168,-0.3863115008794343,-1.23550158674086,-1.437570011437185,-0.5433993278067071,-1.2130152134868597,-1.405444737930413,-68.75684,LR
0.6507256670630653,-1.6264952809447863,1.2744500694617675,0.7923388213056065,-0.46739348576700884,1.346229296565761,-1.828593898100098,-0.6897192203995403,1.3126764448309074,-1.7946171512095244,-0.6890931968142012,-115.1551,1.4595328069514932,-1.2551866788623733,-0.49740080942834003,1.1597615626832523,0.3338191229140693,-0.7516224821689969,-1.2347251196048041,-1.43630563584874,-0.5435527652010429,-1.2287903190238978,-1.4004799406499695,-69.01374,LR
0.6064587443241919,-1.621082217154166,1.3594663672940397,0.6803664169849886,-1.012965595405248,1.1559668336840045,-1.8275794399256668,-0.689142036099319,1.3133183762139928,-1.8145797269162394,-0.6478331839543997,-114.5201,1.4837390430509434,-1.2275070695158299,-0.5116995249444825,0.9247702988276147,-0.4030123526490636,-0.7516224821689969,-1.234277620994147,-1.4360312013508572,-0.5438405925890384,-1.2387778108583294,-1.4216171072779753,-69.14326,LR
0.6135414403580928,-1.6697986827168534,1.167254619561093,0.7363529858543351,-0.7545369092426114,0.20465514238447177,-1.825193157628994,-0.6887994694756713,1.3111471377123798,-1.7462785122434974,-0.664385638981304,-115.6618,1.42860263168071,-1.2216795949027197,-0.50137269292602,0.6310313152076202,-0.374672748336481,-0.7516224821689969,-1.2336729274041085,-1.4347242105515619,-0.543941120537052,-1.2233094558335669,-1.3704831926159633,-68.97188,LR
0.5834399096870211,-1.5831929877256143,1.4223050270965507,0.9043112256262246,-0.2663935219152456,0.10952380709205206,-1.8242348981318395,-0.6874125332036468,1.311713547756279,-1.820514996768764,-0.6222399420372521,-114.2039,1.498531764310527,-1.2275070695158299,-0.4759525734653617,0.36666590287114764,-0.17629505408630147,-0.29498380540677316,-1.2328324413449985,-1.434602519413357,-0.5434495917807131,-1.2044763715872069,-1.436125761814784,-68.58247,LR
0.5940639537378725,-1.629202367116544,1.3779482369983873,0.008533256207459787,-0.8119654434747203,-0.8100776468130904,-1.8238170105315767,-0.6865860035594098,1.3114114623995334,-1.8207140940131459,-0.6373267450755841,-114.3371,1.48911819438801,-1.2449888966446734,-0.49501774440523777,0.014178987847781124,-0.03459662414873918,0.07032727558224836,-1.2326150305469032,-1.434207792525984,-0.5432019755719228,-1.226324883229591,-1.4275355589396277,-68.93861,LR
0.5763572136531202,-1.5642478187348912,1.4075204397562575,-0.10343911144225446,-0.20896479960437223,-1.158891919776047,-1.823144067395981,-0.6850800051553553,1.310741210514252,-1.8038559873388316,-0.6147003054956715,-114.3823,1.4998765521447937,-1.2479026339512285,-0.5140829153451139,-0.9551600044165887,0.19212073010147518,-0.17321347831025238,-1.2333021247309721,-1.4338225771298734,-0.5433861004451259,-1.2463989415980719,-1.437172709491569,-69.24439,LR
0.5976053017548228,-1.612963175744683,1.204218358969789,0.5683945627279267,0.42275020542141256,-0.17479138897177515,-1.8207520211324075,-0.6839236404974205,1.3084189293342663,-1.7366805770843226,-0.6445087087465591,-115.6371,1.5160140612386437,-1.269754768684662,-0.49740080942834003,-0.6907947844792206,0.4755173301018227,-0.934277873114319,-1.2335994007202045,-1.4335742526080038,-0.5436522349601297,-1.2354378503116377,-1.4530532911649277,-69.05267,LR
0.640101623012214,-1.575073946316132,1.3151095771958763,0.7923388213056065,0.4801787396535214,-0.8100776468130904,-1.819143153871396,-0.6833034600398687,1.3065403360220003,-1.7913700561511476,-0.6741663515378514,-115.0826,1.47701510387961,-1.231877377120419,-0.5196432919398427,-0.2501862128496766,1.3257076869773876,-0.6602947866963358,-1.2339676679904479,-1.4313254376739424,-0.5442146623745404,-1.247087383741562,-1.4153330771646135,-69.28315,LR
0.5958346277463475,-1.6319083447354066,1.2670570187723,0.7363529858543351,0.2504642641833098,-0.3978420682490214,-1.8174528705779192,-0.6822193310841488,1.3051620715818455,-1.771463951662839,-0.6426859217413218,-115.1107,1.5146692734043772,-1.2216795949027197,-0.5005784463774957,-0.39705560846012156,0.985631655602066,-0.47763919635209534,-1.2339568925281517,-1.4307594106939392,-0.544156991078049,-1.2284708666270565,-1.450408074627452,-68.94547,LR
0.640101623012214,-1.5886060515162348,1.462966048869301,0.5683945627279267,0.16432133118001133,-0.30271116913307605,-1.8177259385098148,-0.6817592668059651,1.306021126815093,-1.8658056379207966,-0.6708567210987758,-113.9626,1.4460848735261762,-1.2056549347823966,-0.5124940968705359,-0.10331654788048532,1.4107266484150076,-0.17321347831025238,-1.2338960428587145,-1.4284615463049384,-0.5441591074559019,-1.2322909584103527,-1.3858057022337764,-69.09068,LR
0.6188534623835183,-1.672504660335716,1.2153071779846691,1.2122347874443677,0.36532153953416857,-0.4295523056434115,-1.8157575438134046,-0.6811572127083418,1.3042180548420146,-1.7712018672902343,-0.6676268006137209,-115.3241,1.47298074037681,-1.2362476847250081,-0.5252039939121005,-0.19143826220639412,0.985631655602066,-0.3863115008794343,-1.2342934672622303,-1.4271194002879395,-0.5445485209808377,-1.253211597385173,-1.4116033143458042,-69.38521,LR
0.6383309490037389,-1.6508535137261304,1.2929319391661154,0.8203319223857611,0.19303567352757162,-0.46126316614705093,-1.8147668620024366,-0.6808877988944055,1.3032268372651903,-1.8069597323812532,-0.6799872220263378,-114.9019,1.48104946738241,-1.2639272940715518,-0.5109052783959581,0.1316747736948834,1.0989901471023324,0.039884683838172244,-1.2343695293490273,-1.425893816663857,-0.5446188905444468,-1.2453618327232387,-1.420326846935844,-69.24919,LR
0.6471843190461148,-1.6264952809447863,1.3446817799537463,0.5404010949387348,0.10689274052427314,0.01439288720579849,-1.8143388874600983,-0.6807393893224915,1.3030380339172243,-1.8260897196114616,-0.6839383508605585,-114.6542,1.4756703160453435,-1.279952550902362,-0.5093164599213803,-0.2501862128496766,0.8155933614771441,0.1920976026787692,-1.2346566637266874,-1.4248144489054495,-0.5446585726291887,-1.246734906444849,-1.415926216247843,-69.27678,LR
0.631248252969838,-1.6562665775167509,1.3114138088704634,0.03652622893945119,-0.3238220561473545,0.17294490499008164,-1.8139829625040127,-0.6805880665855888,1.3028114698996638,-1.8146318541947686,-0.6738291709023887,-114.7393,1.5025661278133269,-1.2901497364095749,-0.4997838744514422,0.1316747736948834,0.13544129872650118,-0.2645411737829135,-1.234638282055711,-1.4247419937220123,-0.544759629671665,-1.241206411187394,-1.441203636195192,-69.15742,LR
0.624165484408944,-1.64544044993551,1.3151095771958763,0.42842924068167293,-0.8406798046301571,-0.5246838486389143,-1.8133100193684168,-0.6804988913684409,1.3020845770099934,-1.8097702614819484,-0.6666790481847068,-114.7513,1.5025661278133269,-1.2770388135958068,-0.49263467938213545,0.1316747736948834,0.05042233728888099,0.009442092094096135,-1.2344310128691882,-1.4247488009657587,-0.5445786793652415,-1.231491374776908,-1.4409667931151673,-69.00404,LR
0.6418722970206892,-1.840302986527574,1.304020758180996,-0.07544568032396626,-0.9842512342498113,-0.4929736112445241,-1.8142848502704094,-0.681113892866013,1.3027737092300706,-1.8772251318685724,-0.6986749034126672,-114.0248,1.4904629822222766,-1.2580998194584414,-0.5204378638658961,0.6016573591258895,0.5038572314141504,0.6487363791404519,-1.234453197644504,-1.424175313992609,-0.5445479918863744,-1.2541769406122074,-1.4286337944884528,-69.37806,LR
0.5675037710837512,-1.6400273861448895,1.3372887292642788,-0.5233347292074301,-1.6446804123522683,0.01439288720579849,-1.8138511117611713,-0.6803549054915092,1.3028020297322667,-1.7944716292236307,-0.6169098094843156,-114.542,1.498531764310527,-1.246445466942708,-0.4695976249445794,0.16104859509724107,0.5038572314141504,0.740064074613113,-1.2336526441809625,-1.4237763908590912,-0.5436025000805863,-1.2022649734842252,-1.4368304778042802,-68.54667,LR
0.6277068324258944,-1.6156702619164414,1.4112162080816701,0.34444993744120944,-0.49610784692244553,-0.4295523056434115,-1.8139433352315741,-0.6800733534901208,1.3031796364281985,-1.8456294851701076,-0.6640978871229971,-114.2023,1.4783598917138767,-1.2566432491604074,-0.5204378638658961,-0.13269036928284295,0.30547940722658234,0.4051957249474102,-1.2340240807048233,-1.4231451821889691,-0.5436834515334603,-1.2530718766549442,-1.4173847795704353,-69.3752,LR
0.6507256670630653,-1.6156702619164414,1.3520733166045718,0.12050560552172215,-0.12282190421682664,0.01439288720579849,-1.813795633579757,-0.6800762127076095,1.3030002732476311,-1.8271901843804097,-0.6858396107557528,-114.6535,1.5119796426531935,-1.2712113389826967,-0.5490356202757101,-0.6907947844792206,-0.658069441149249,0.13121241340804835,-1.2353253762397798,-1.4238543477874739,-0.5443882053584793,-1.2864898998544851,-1.4483693113922729,-69.8653,LR
0.640101623012214,-1.6616796413073711,1.2374863300530718,0.2044845420531482,-0.6683938257763014,0.26807582487633524,-1.812772529454976,-0.6802993395667286,1.3018863334946287,-1.7857410340599822,-0.6841065377878344,-115.2449,1.4998765521447937,-1.2508157745472972,-0.5371196444051407,0.42541381503460923,0.078762052976368,0.13121241340804835,-1.2357120251809994,-1.4237577408762245,-0.5448141264013774,-1.269798353345994,-1.436781815271211,-69.61512,LR
0.599375975763298,-1.637321408526027,1.3631636496580946,-0.07544568032396626,-1.0703943177161215,0.6803114034404043,-1.8125981694562454,-0.67984051608104,1.302622666551698,-1.8189714501323184,-0.6431361054897382,-114.4142,1.373466165227826,-1.2420751593381183,-0.5395030348057721,0.8660223866641531,0.05042233728888099,0.9227194655584352,-1.2356987143158094,-1.4213595395794012,-0.5449564528119858,-1.2600699799567128,-1.3190624596713718,-69.64742,LR
0.6383309490037389,-1.6264952809447863,1.25596819975742,-0.8872443098313638,-1.357537365034195,0.6168903055423748,-1.8121456980545814,-0.6802312038744976,1.3016880899792642,-1.78127039593613,-0.6789895029662272,-115.2692,1.46491195828856,-1.2712113389826967,-0.5315592678104119,0.8953963427458839,0.5038572314141504,1.4402434055683784,-1.2357912565214133,-1.4203873159725622,-0.5448426975023918,-1.2660678098488902,-1.405180516315405,-69.5979,LR
0.6436429710291645,-1.612963175744683,1.0933271407437017,-1.139182402907273,-1.4149660873450685,0.6486005429367648,-1.8102479119526982,-0.6807612380599052,1.298487873231234,-1.703237307957992,-0.6874142857381174,-116.47,1.4756703160453435,-1.2610135567649967,-0.5124940968705359,1.0422659307554336,0.5605364771642837,1.4402434055683784,-1.2354426386235926,-1.4196332971652632,-0.544412543703788,-1.2459607265805366,-1.4152245944078483,-69.26544,LR
0.6100000923411424,-1.5886060515162348,1.4370911284754857,-0.9992170808610192,-1.3862517261896317,0.5534696230505113,-1.811093774095299,-0.6804714860385491,1.2997811761648035,-1.84086490711455,-0.6453837971081764,-114.1102,1.494497400807727,-1.2493592042492632,-0.5363253978566165,1.2185094748467138,0.36215883860155634,1.5924563642887588,-1.2354293277584023,-1.4193290226947939,-0.5442511698925034,-1.2683687562380632,-1.4317604794407852,-69.59875,LR
0.6507256670630653,-1.621082217154166,1.3151095771958763,-0.9712236130718274,-1.357537365034195,0.17294490499008164,-1.8113264942588938,-0.6810185136863894,1.2993186079622867,-1.8117337223065453,-0.6874113813268372,-114.892,1.4662567461228264,-1.2406185890400843,-0.5045503298751757,0.6604050788902465,-0.14795535696129858,1.5011286688160976,-1.2349856322520854,-1.4188953173432297,-0.5435755162629614,-1.2332575718258434,-1.4060112485755083,-69.07677,LR
0.6347896009867884,-1.6508535137261304,1.4112162080816701,-1.0272096318776176,-1.2713944696466495,0.5534696230505113,-1.8125599831755315,-0.6812372168505261,1.3006874322350428,-1.8606276615869037,-0.67340152323409,-114.0603,1.4877734065537433,-1.1648638059115979,-0.5077276414468025,0.3960398589528784,-0.14795535696129858,1.0749324242788159,-1.234453197644504,-1.4188169874151897,-0.54286547149331,-1.2219173292851067,-1.4234395613343667,-68.87402,LR
0.6223948104004688,-1.602138156716338,1.4038231573922026,-1.2511542571643348,-1.2713944696466495,0.5534696230505113,-1.8133935968884698,-0.6811520876958621,1.3015748079704845,-1.8352691885624441,-0.6584740863184053,-114.3069,1.4514640799458933,-1.2362476847250081,-0.5379142163311943,0.6604050788902465,-0.3179933540864753,1.3489157100957172,-1.2346465221151137,-1.418226435707717,-0.5428189111805463,-1.2642050784772514,-1.3912987552200238,-69.58866,LR
0.6418722970206892,-1.6643856189262332,1.2227002286741366,-0.9432303286371541,-1.529823155809286,0.7437318782291846,-1.8129425664785308,-0.6817356917485582,1.3006119108958563,-1.7805290301970496,-0.6862933981255724,-115.3383,1.4756703160453435,-1.2653838643695865,-0.5148771618936381,1.2772571946110707,-0.43135206833655054,1.8055543868579407,-1.2342376883985784,-1.4182090912236511,-0.5423067477401416,-1.2492060580872104,-1.415314981078135,-69.31673,LR
0.6666618056663353,-1.6968628931170602,1.5442865783761603,-1.0272096318776176,0.22407583549444884,0.6168903055423748,-1.8159974689356244,-0.6818671078580393,1.304123653168031,-1.951624514139242,-0.7011994822398089,-112.9531,1.48508383088521,-1.2275070695158299,-0.5164659803682159,1.0716398868371644,-0.006256908461252185,0.1316234003007088,-1.2337895559371979,-1.4180134529033799,-0.5423538371473688,-1.2435822986955092,-1.4227587546819276,-69.21786,LR
0.6454136450376395,-1.612963175744683,1.3668594179835072,-1.475099065805571,-1.529823155809286,0.4583382877580916,-1.816808026780962,-0.6823212918587462,1.3044068581899804,-1.831093214360278,-0.6805558412125098,-114.5534,1.45684323128296,-1.2449888966446734,-0.5116995249444825,0.6310313152076202,-0.11961565983629567,2.1404219389279713,-1.2335379172000438,-1.4174112449566154,-0.5416014648206593,-1.2405255901746441,-1.3972713076168999,-69.20435,LR
0.6595791096324344,-1.5913120291350973,1.529500476997225,-1.8390073629478734,0.22407583549444884,0.29978668537997455,-1.819314631886676,-0.68214051378696,1.3065780966915934,-1.9065315222516328,-0.6862191742817475,-113.4923,1.4635671704542932,-1.2653838643695865,-0.4997838744514422,0.7485267547363343,-0.5730502940867881,2.6579458789379142,-1.2330948555444494,-1.4172998113089874,-0.5405353394772554,-1.2335376483805285,-1.404501584905088,-69.08331,LR
0.6206241363919937,-1.6643856189262332,1.3594663672940397,-2.1189383737494185,-2.3625394412381864,0.8388634212246874,-1.8205171394812256,-0.6826079688726145,1.3074465920922393,-1.8354132625683792,-0.6639843999414967,-114.3518,1.4877734065537433,-1.246445466942708,-0.48389634046072194,0.6604050788902465,-0.2329743555238869,3.266798511415109,-1.2323456439894962,-1.4173787007365133,-0.5389210722699472,-1.2156190998229381,-1.4265866864258303,-68.77037,LR
0.5869812577039716,-1.5913120291350973,1.2892361708407027,-2.7907713328369765,-2.8793968135634596,0.5217593856561211,-1.820653313199242,-0.6826128241475954,1.3066252975285853,-1.7635536371460447,-0.63052719555649,-115.1215,1.4581880191172265,-1.2508157745472972,-0.5069333948982779,1.189135518764983,-0.45969180258652165,2.9623721951765116,-1.2317846860993666,-1.417071722018528,-0.5378586505877864,-1.2371449835973403,-1.3988441669468359,-69.14848,LR
0.5958346277463475,-1.5804859015538564,1.3520733166045718,-2.7067931297236254,-2.4199674112340017,1.1876772787814778,-1.82131256691345,-0.682514639697983,1.3070029042245184,-1.7924053618219347,-0.6350526986140487,-114.7355,1.3896036743216762,-1.2479026339512285,-0.5140829153451139,1.1303876066015215,-0.3179933540864753,3.145027586121834,-1.2312788732221644,-1.4153981658059887,-0.5368676566581606,-1.2378829630906383,-1.3350959673397902,-69.26383,LR
0.6383309490037389,-1.5615418411160287,1.3631636496580946,-2.7067931297236254,-2.707111022788369,0.9657045785053312,-1.8222787518650923,-0.6832388309351239,1.3071067460658994,-1.8084706994686184,-0.6699129487889233,-114.7972,1.4326369951835098,-1.231877377120419,-0.5093164599213803,1.2185094748467138,-0.43135206833655054,3.4494539023604314,-1.2306545302597034,-1.4146237252674507,-0.5356353956533031,-1.2335865506361086,-1.3744085431881108,-69.12879,LR
0.6117707663496176,-1.6346154309071645,1.3114138088704634,-2.7347858640947424,-2.620967187007,1.79017511252422,-1.8230590488842036,-0.6836165173811328,1.3077392372815864,-1.7992883345577175,-0.6551738145378989,-114.8083,1.443395297857643,-1.2085686720889517,-0.5212321104144205,1.453500738702351,-0.4880313326491678,3.205914045763062,-1.2300834307580002,-1.4140811040159453,-0.5346385816845821,-1.2413372405984262,-1.383178394258567,-69.23819,LR
0.6454136450376395,-1.5858989653444768,1.3705551863089198,-2.59482035869397,-2.506109366227724,-0.17479138897177515,-1.824221929206314,-0.6843970837555513,1.3073427502508572,-1.8233870650177226,-0.6780486350676548,-114.6457,1.4447400856919097,-1.230420806822385,-0.5077276414468025,1.189135518764983,-0.7997678339618431,3.388569436708384,-1.2294787371679619,-1.413828116998359,-0.5334401827253714,-1.2326701096646544,-1.3856194906910488,-69.09696,LR
0.6471843190461148,-1.6075501119540625,1.2781458377871804,-2.4548548532931975,-2.821966962779998,-0.17479138897177515,-1.8245828976334375,-0.6854205757215107,1.3058984046389146,-1.7883184383872552,-0.6842946790963124,-115.2088,1.4702911096256261,-1.2668410313781069,-0.5307646958843585,1.6297440903945268,-0.658069441149249,3.2363562785890854,-1.229313935979901,-1.4139609048763697,-0.5328269622424906,-1.2647823791307868,-1.4100227665231675,-69.57073,LR
0.6347896009867884,-1.5940180067539598,1.1931295399549087,-2.8187659007532804,-3.5972539616617314,1.6316230947399368,-1.8241693330083497,-0.6865652877194915,1.304482379529167,-1.7392000622132304,-0.6750655357560148,-115.8512,1.491807770056543,-1.243531729636153,-0.5077276414468025,-0.026797576990716908,-0.34633305121147817,3.4494539023604314,-1.2294343676173303,-1.4142523108586613,-0.5316788272572867,-1.2387130312470418,-1.4296997758727772,-69.13197,LR
0.6383309490037389,-1.5831929877256143,1.2781458377871804,-2.6508076609813913,-3.453682155884548,2.96345888099065,-1.8244042146595323,-0.6876152139603466,1.3050110289034729,-1.7762488014378248,-0.6745017572553096,-115.3063,1.4205338495924595,-1.231877377120419,-0.4807190288890952,1.7766134860049718,-0.629729725461762,4.08874876766365,-1.2279967941768613,-1.41344057035439,-0.5298301712027687,-1.2045608391195721,-1.364016138871482,-68.68457,LR
0.5976053017548228,-1.5642478187348912,1.4370911284754857,-2.8187659007532804,-3.42496817088664,2.1072797712020357,-1.8258516908473388,-0.6878868396217742,1.3071445067354925,-1.8269628515268248,-0.6322338061105229,-114.1989,1.4514640799458933,-1.2143955499915748,-0.4870739774098776,-0.026797576990716908,-0.9698057568370836,3.479896135186455,-1.2275600710285002,-1.4134835585648975,-0.5282069093895858,-1.2094751982582495,-1.3918048830687866,-68.72001,LR
0.5763572136531202,-1.6264952809447863,1.2892361708407027,-2.7347858640947424,-3.3675402008908257,2.0121476050972835,-1.8259021255577155,-0.687775707772213,1.3075504339336204,-1.7716116456186715,-0.624778074783701,-114.9516,1.4514640799458933,-1.2056549347823966,-0.4775413919399395,-0.026797576990716908,-0.7997678339618431,3.6321092933057537,-1.2269072047834901,-1.413337902198709,-0.5265466109639774,-1.1982410164536412,-1.3917353115860556,-68.54204,LR
0.615312114366568,-1.5940180067539598,1.348377548279159,-2.874751369495515,-2.9081107985613674,1.8535955873130003,-1.8267760870389547,-0.6881466507807485,1.3083622883298758,-1.8036163466555937,-0.6533241348356236,-114.7289,1.4366713586863098,-1.2027411974758413,-0.47913021041451737,-0.026797576990716908,-0.9981454725245706,3.5103383680124782,-1.2262644801500537,-1.4130918156747836,-0.5248942489553174,-1.1980663655408552,-1.3778510189138096,-68.55984,LR
0.5763572136531202,-1.5913120291350973,1.462966048869301,-2.538834889951736,-2.8793968135634596,1.6950435695287174,-1.8281428676901592,-0.6877402642648529,1.3106845695098617,-1.8389926690273788,-0.6155474254523692,-113.8668,1.4554984434486933,-1.1969137228627311,-0.4759525734653617,1.3653788704571588,-0.658069441149249,3.2972407442411327,-1.2249004333934894,-1.4129445740600513,-0.5232815690313996,-1.1950966649292694,-1.3952044157498888,-68.48724,LR
0.5834399096870211,-1.5344765221629266,1.2781458377871804,-2.9587314061540533,-2.190251769675449,0.9974148158997213,-1.8276839118257324,-0.687188057657033,1.309504548585073,-1.7364373164511866,-0.6223566563423971,-115.4493,1.3869140986531427,-1.2275070695158299,-0.478335638488464,0.8660223866641531,-0.629729725461762,3.479896135186455,-1.2238729613710027,-1.4115387383515627,-0.5217921681174129,-1.1984220183087098,-1.3328305810941519,-68.64002,LR
0.5745865396446451,-1.5858989653444768,1.241182098378485,-2.17492567603684,-2.2476816204589105,0.807152560721048,-1.8267415032375538,-0.686643457646683,1.3081829251493073,-1.7344477919873251,-0.620980288107991,-115.4665,1.42860263168071,-1.2245933322092748,-0.48469091238677536,0.5135354908806972,-0.006256908461252185,2.505734714807797,-1.2232188274245457,-1.4104612355914414,-0.5207969414320816,-1.2075502276522363,-1.3710723936907363,-68.72079,LR
0.6064587443241919,-1.5723668601443737,1.2596639680828325,-1.6710504066576148,-2.190251769675449,1.0291256764033607,-1.8258596163018264,-0.6865981417468618,1.307087865731102,-1.751124177176767,-0.6465315774177592,-115.4424,1.4245682130952595,-1.22313676191124,-0.46403692297232146,0.42541381503460923,-0.03459662414873918,2.688390105753119,-1.2222040324165255,-1.409362658350681,-0.519406481182719,-1.1867248528116625,-1.3678777312114767,-68.39532,LR
0.6223948104004688,-1.558834754944271,1.3446817799537463,0.06327376610311998,-1.4149660873450685,1.4413606318581806,-1.824812735813582,-0.6864235676375511,1.3072766690790694,-1.792335134793916,-0.6563420332972307,-114.9204,1.4003619769958093,-1.215852717000096,-0.48945704243297977,0.6310313152076202,0.19212073010147518,2.475290487992592,-1.2215346860527097,-1.4076518021724083,-0.5185250098069824,-1.2080017796485658,-1.3444026064677062,-68.772,LR
0.5976053017548228,-1.629202367116544,1.2116114096592565,0.06327376610311998,-1.4149660873450685,0.363207367871838,-1.822862353513735,-0.6860402167040646,1.3056151996169651,-1.7458680099250803,-0.6457592191588272,-115.513,1.401706764830076,-1.246445466942708,-0.49422317247918435,0.10230070217368993,-0.4880313326491678,2.7188323385791424,-1.2213597432530752,-1.4065256229570053,-0.517751473701743,-1.2192461229608276,-1.3468319826369248,-68.94656,LR
0.5869812577039716,-1.6264952809447863,1.25596819975742,-0.9712236130718274,-1.5585375169647226,0.7437318782291846,-1.821847174843441,-0.6855086180411631,1.3048316657229042,-1.7608567744721422,-0.6349720205229347,-115.2001,1.3882588864874095,-1.228963639813864,-0.4600650394746415,0.6310313152076202,0.19212073010147518,2.7797168042311897,-1.220170005445421,-1.4046790881533775,-0.516349902468653,-1.1810775949335135,-1.3347341393723253,-68.3608,LR
0.6347896009867884,-1.602138156716338,1.204218358969789,-0.6073140324478937,-0.9842512342498113,1.0291256764033607,-1.820371599316996,-0.6855571168434718,1.3032457175999876,-1.7472551747259386,-0.6754257903255363,-115.7367,1.3909484621559427,-1.2143955499915748,-0.4680088064700016,1.9234828816154168,-0.26131405821763504,3.175469818947857,-1.2184744547605653,-1.4032356727294124,-0.514900183639409,-1.18590558125714,-1.33630559227067,-68.43481,LR
0.6082294183326672,-1.5317705445440641,1.3151095771958763,-0.04745270759197487,-1.6733943973501757,1.0925463588952242,-1.8189133156912511,-0.6852330002647513,1.3026887477234856,-1.762949829503082,-0.6424196840406452,-115.2336,1.3936380378244762,-1.1357276262670202,-0.4703918714931039,2.30534315628329,-1.1681833953998109,3.388569436708384,-1.2163377439722851,-1.4024683191843639,-0.513153642816294,-1.1713473162615475,-1.3351799781868618,-68.20531,LR
0.5391729144211547,-1.5209444169628235,1.2929319391661154,-1.475099065805571,-2.99425275355509,0.807152560721048,-1.8174370196689438,-0.6842615136885866,1.3017447309836547,-1.7191078923001717,-0.5820584876848576,-115.3382,1.4541536556144266,-1.170691280524708,-0.4735695084422596,2.4228393654084224,-1.1681833953998109,3.7538802185990288,-1.2144989430239608,-1.4028677085674535,-0.5114647732896712,-1.1869915923875531,-1.3930594200484911,-68.36185,LR
0.5551090530244247,-1.5967250929257177,1.1635588512356805,-1.7550297098980785,-3.137824559332273,-0.08073853116785444,-1.8157445748878793,-0.6839867590721712,1.299120364446922,-1.6951329641266728,-0.608092231979488,-115.9317,1.4487744491947092,-1.2100252423869857,-0.5196432919398427,1.2772571946110707,-0.4880313326491678,3.0841431204697867,-1.2142777291215254,-1.402672629746668,-0.510899171308481,-1.2404868494267167,-1.3882873038960963,-69.21694,LR
0.581669235678546,-1.5696608825255116,1.2596639680828325,-1.3071402759701252,-1.587252066198924,0.7120216408347945,-1.8146501416727079,-0.6833058337298594,1.2980347451961156,-1.7399790754312487,-0.6248732749312155,-115.4193,1.4245682130952595,-1.2479026339512285,-0.46880305301852604,1.0128919746737026,0.2488001614764491,2.505734714807797,-1.2133561101698318,-1.4015375917894035,-0.509943097613428,-1.1966672529558842,-1.3687296537075602,-68.55177,LR
0.5852105836954964,-1.5913120291350973,1.333591446900224,-0.7752722722197832,-1.5011089827326138,0.9657045785053312,-1.81413066415583,-0.6826551729349282,1.298299069883268,-1.7832020012016259,-0.6275168270500534,-114.8047,1.4151546982553929,-1.2508157745472972,-0.4958119909537622,0.8366486229815268,0.8155933614771441,1.71422669138528,-1.2130613695834918,-1.3998207676166132,-0.5097716710073427,-1.2228661600622044,-1.3593846658782467,-68.98286,LR
0.5887519317124467,-1.610257198125821,1.219004460348724,-0.04745270759197487,-1.1852513861803393,1.5682024122480736,-1.8123186170615866,-0.6820583517447844,1.2975910573283933,-1.7389111902113814,-0.6361918732605795,-115.5335,1.3855693108188762,-1.243531729636153,-0.4910458609075576,0.5135354908806972,-0.17629505408630147,0.9227194655584352,-1.2127539519826867,-1.3983241064915641,-0.5098150567533268,-1.2140891578269348,-1.331904305247926,-68.89096,LR
0.6029173963072415,-1.621082217154166,1.1450769815313326,-0.2993904706297504,0.22407583549444884,1.79017511252422,-1.810207564184397,-0.6811910377907083,1.2961183912142562,-1.7146951733746856,-0.6517337007327948,-116.0193,1.397672401327276,-1.220223024604685,-0.4966065628798156,0.9247702988276147,-0.14795535696129858,1.2880306462469158,-1.2122849024474365,-1.3970348331759923,-0.5097235234111888,-1.2156953111303355,-1.3418778742365773,-68.89873,LR
0.5692744450922264,-1.602138156716338,1.2929319391661154,-0.7192864367685116,-2.1041098146817268,1.3779401570694,-1.8093155903065947,-0.6806104008505006,1.2962883142274262,-1.7616423035999766,-0.6162224321480237,-115.0224,1.3828796800676926,-1.2406185890400843,-0.4966065628798156,1.189135518764983,-0.28965365696147233,1.9577673455783215,-1.2117562709441951,-1.3956220037239286,-0.509445748817994,-1.2186529449515837,-1.3291070065743456,-68.9687,LR
0.5940639537378725,-1.6264952809447863,1.2263975110381915,-1.531085084611361,-2.8793968135634596,0.807152560721048,-1.8086829949393002,-0.6808853712569151,1.2953348573201953,-1.750235841471833,-0.6420006958207928,-115.4169,1.4164994860896596,-1.2377048517335292,-0.4719806899676817,1.0716398868371644,-0.26131405821763504,0.1316234003007088,-1.210862541424327,-1.394846537436333,-0.5094626798408174,-1.1969422487567438,-1.3607862218403262,-68.56882,LR
0.5586504010413751,-1.5371836083346846,1.2596639680828325,0.06327376610311998,-2.4486813962319087,0.6486005429367648,-1.8065085384262085,-0.6808429145745827,1.2944002807477615,-1.7184143098997424,-0.6017971894568271,-115.5313,1.3882588864874095,-1.2027411974758413,-0.4886627958844555,0.30791818310679053,-0.006256908461252185,0.1316234003007088,-1.210386519531121,-1.3932222171785615,-0.5096383392026091,-1.2033484442377254,-1.332613146770091,-68.71878,LR
0.6117707663496176,-1.5777799239349939,1.3446817799537463,-1.5870709200626327,-1.529823155809286,-0.23929005046473825,-1.8068493329691815,-0.6806818273402186,1.2938999518756515,-1.7946909981874404,-0.648861022835193,-114.822,1.3990171891615426,-1.2071115050804306,-0.459270792926117,0.07292688077133228,0.30547940722658234,2.07953787207376,-1.209596107679153,-1.3917369325430609,-0.5085790920872271,-1.17651571309155,-1.3437292070216496,-68.27271,LR
0.5781278876615955,-1.5561287773254082,1.233789047689017,0.06327376610311998,-1.529823155809286,0.20465514238447177,-1.8047779073644303,-0.6799731729830163,1.2921346405721663,-1.7217287360262192,-0.6214051927211918,-115.6577,1.4447400856919097,-1.177975325435853,-0.4727752618937351,-0.044568662652898355,0.2204602601641214,1.7446693230091392,-1.2090883932497802,-1.3911568248259936,-0.5077806885422164,-1.1870951127467684,-1.3845801377448588,-68.37576,LR
0.5798985616700707,-1.4668159961624112,1.3631636496580946,-1.3631262947759153,-1.156537213103667,0.6168903055423748,-1.8041258586088482,-0.6788832176973193,1.2916531920348508,-1.7495755626104645,-0.6095363698104299,-115.1405,1.377500528730626,-1.1473825754932405,-0.5101110318474337,-0.015194833554576523,0.8155933614771441,1.6837842591603382,-1.2090662084744646,-1.3888494489457308,-0.5075494742617862,-1.2116065744884637,-1.319260766525787,-68.8748,LR
0.5763572136531202,-1.5074123117627207,1.40012738906679,-0.8032657400089751,-0.18025043844893548,0.23636558748194503,-1.8037706541486247,-0.6773973417106853,1.2917853543784277,-1.7800721925199396,-0.6092351716036041,-114.6854,1.3869140986531427,-1.1867165373555182,-0.5045503298751757,0.19042255117897186,0.8155933614771441,1.1967027513753365,-1.2090212050731097,-1.3868040120748302,-0.5075558233953447,-1.2154139643871933,-1.3301064168633345,-68.91531,LR
0.599375975763298,-1.558834754944271,1.2263975110381915,-0.32738338835538616,-0.5822509303887557,0.7120216408347945,-1.8021113521772365,-0.6767330321983079,1.2902654874272987,-1.728002833189183,-0.640259662614551,-115.7284,1.3882588864874095,-1.169234710226674,-0.4958119909537622,-0.10331654788048532,0.8155933614771441,0.9227194655584352,-1.2088754194067488,-1.3848140589029578,-0.5074621736753537,-1.2031934812460168,-1.3308410429646786,-68.71951,LR
0.5745865396446451,-1.5561287773254082,1.25596819975742,0.008533256207459787,-0.9268227000177025,0.23636558748194503,-1.8003389323554322,-0.6757722811746008,1.288887222987144,-1.7304122718411956,-0.6175756726629771,-115.4959,1.3869140986531427,-1.2027411974758413,-0.5029615114005979,0.16104859509724107,0.41883808435168945,0.7096214429892533,-1.2088849271675979,-1.383158033674313,-0.5076896842945416,-1.2172531972723852,-1.3308973939904487,-68.94315,LR
0.6365602749952636,-1.6264952809447863,1.2670570187723,-0.04745270759197487,-1.0416797684819201,0.363207367871838,-1.7997351568226385,-0.6760737937509105,1.2882169711018627,-1.7857366901201044,-0.6771274526233143,-115.189,1.3922932499902094,-1.21730928729813,-0.5132883434190603,0.014178987847781124,0.078762052976368,0.6791790107643116,-1.2092392497219284,-1.3818923525870674,-0.5081452346273803,-1.2309686922270076,-1.3362301137752541,-69.15174,LR
0.5480263569905238,-1.5534216911536505,1.2227002286741366,0.03652622893945119,-1.2139659354145405,0.49004894055864784,-1.7974497439467185,-0.6748470815532533,1.2866971041507338,-1.7030114230843663,-0.5956097177223183,-115.7027,1.3896036743216762,-1.2624707237735178,-0.48469091238677536,0.04355305936897461,-0.06293633983622615,0.740064074613113,-1.2091967817234666,-1.380755449631516,-0.5082362388750558,-1.2122562758840272,-1.336679140501398,-68.85322,LR
0.5480263569905238,-1.6427344723166475,1.219004460348724,-0.18741806630913238,-0.9268227000177025,0.04610312460018868,-1.7959496715609475,-0.6736643365679227,1.2855831643977327,-1.7336962903885305,-0.6046268390391681,-115.3309,1.2900890991726919,-1.23333454412894,-0.4632426764237972,-0.6614208283974898,0.2204602601641214,0.5574086836677908,-1.208759424724382,-1.3776071460237955,-0.5079849190050225,-1.1751883661543783,-1.244425760444288,-68.44949,LR
0.6064587443241919,-1.621082217154166,1.2448793807425398,-0.18741806630913238,-0.9268227000177025,-0.3978420682490214,-1.7950274368569195,-0.6734132649039138,1.2842048999575781,-1.7617422142171573,-0.6515040371000901,-115.3287,1.3855693108188762,-1.2216795949027197,-0.5085222133728559,-0.4264295645418524,-0.26131405821763504,0.6487363791404519,-1.2092291081103559,-1.3765867122112465,-0.5083976126863403,-1.2265820963920577,-1.3303396032212214,-69.09264,LR
0.5852105836954964,-1.5777799239349939,1.3298956785748113,-0.4393557926760041,-0.5535365692333191,-0.6832358664231974,-1.794577126942843,-0.6725371575073726,1.2834874472353048,-1.7766824714355878,-0.6263313969646173,-114.8905,1.3721213773935592,-1.2479026339512285,-0.4815132754376197,-0.39705560846012156,0.16378101441398818,0.8009493378608324,-1.2092468559306087,-1.3750672048571857,-0.5083769780022747,-1.2044884383775452,-1.3200191144399762,-68.76003,LR
0.5869812577039716,-1.5371836083346846,1.4075204397562575,0.06327376610311998,-0.72582236000841,-0.08073853116785444,-1.7942874876061092,-0.6716497750833759,1.2838933744334327,-1.7989205476480954,-0.6212739563596462,-114.5157,1.377500528730626,-1.2245933322092748,-0.4759525734653617,-0.3383078886957645,0.2488001614764491,1.1662603191503949,-1.2090389528933625,-1.3735960942086638,-0.5080404739236617,-1.1946184389753505,-1.3240766695817336,-68.59538,LR
0.5763572136531202,-1.5831929877256143,1.3668594179835072,-0.6912929689793197,-0.9268227000177025,-0.20757975075942314,-1.794298295044047,-0.6707983216942374,1.2840632974466026,-1.7918189299384817,-0.6179553975451539,-114.5909,1.4339817830177763,-1.2479026339512285,-0.5196432919398427,-0.07394272647812766,0.19212073010147518,0.8618344017096338,-1.20975647191215,-1.3732289692959336,-0.5086193032664323,-1.2471832829700369,-1.3760021239434963,-69.34212,LR
0.6064587443241919,-1.5913120291350973,1.3003249898555829,-0.2154109840347682,-0.8406798046301571,0.4266278426606184,-1.793743513229905,-0.6705393197477598,1.2837706522572543,-1.7767179469445866,-0.6469607848624861,-115.0701,1.401706764830076,-1.234791114426974,-0.4759525734653617,-0.2208120643688413,-0.06293633983622615,0.1316234003007088,-1.2095739229038363,-1.3724685162445456,-0.5087113657030339,-1.1989535921778067,-1.3468914278121964,-68.62391,LR
0.6046880703157167,-1.5696608825255116,1.1931295399549087,0.17649156932115684,-0.9268227000177025,0.9022838960134677,-1.7918140253100707,-0.6702596559088639,1.2821280631299474,-1.7187408293805289,-0.646965625547953,-115.9205,1.3761557408963592,-1.1910868449601073,-0.4886627958844555,0.8660223866641531,0.078762052976368,0.6487363791404519,-1.2089071119429136,-1.3711272094767757,-0.5086759163739977,-1.199732217701718,-1.320824812217749,-68.68279,LR
0.5976053017548228,-1.5804859015538564,1.2818431201512352,-0.24340445182396012,-1.1278228519482303,0.01439288720579849,-1.790995542010246,-0.6699410959226215,1.2812595677293026,-1.7606779489471878,-0.6389085735153608,-115.2368,1.369431801725026,-1.2245933322092748,-0.48389634046072194,0.48416153479896623,-0.09127594414880867,1.1053750559026754,-1.2084475701685133,-1.3698322479164293,-0.5084896751229417,-1.2016006649214106,-1.3163487030343324,-68.72093,LR
0.590522605720922,-1.5480097359159253,1.1413796991672778,-0.6353069501735294,0.22407583549444884,0.49004894055864784,-1.7888700792158059,-0.6689709040864517,1.2786352011925701,-1.6814546214426351,-0.6345250638981627,-116.3616,1.3882588864874095,-1.220223024604685,-0.4767471453914153,1.0422659307554336,-0.43135206833655054,1.5011286688160976,-1.207569053066005,-1.3691695207752625,-0.50797962806039,-1.1954377105298728,-1.333795768214412,-68.59083,LR
0.6578084356239592,-1.5804859015538564,1.2485751490679524,-0.4673487104016399,0.22407583549444884,0.33149692277436477,-1.7884031978968913,-0.6691742861606488,1.27745518026778,-1.768880755415729,-0.6920590847997369,-115.5531,1.4084307590840597,-1.2275070695158299,-0.4703918714931039,-0.026797576990716908,0.10710158303901424,0.1316234003007088,-1.207203321198655,-1.3684954171445474,-0.5079664006988096,-1.1925480317910537,-1.3529602738920437,-68.51189,LR
0.5692744450922264,-1.5669537963537532,1.3742524686729747,-0.2154109840347682,-0.8981083388622659,0.20465514238447177,-1.788147421865696,-0.668199778524496,1.2780121501442805,-1.7863397737730873,-0.6099548201763416,-114.5989,1.3761557408963592,-1.230420806822385,-0.5077276414468025,1.0716398868371644,-0.4030123526490636,1.4098009733434365,-1.2069954181614089,-1.3675965812202888,-0.5080886215198149,-1.2267491261741035,-1.3220462511739979,-69.11073,LR
0.5869812577039716,-1.5561287773254082,1.252270917393365,0.06451920992239592,-0.8406798046301571,0.10952380709205206,-1.7866912997275386,-0.6675607703895187,1.2767094070433123,-1.7338780118734025,-0.6284118160074789,-115.5401,1.3586734439682424,-1.215852717000096,-0.47913021041451737,0.21979650726070266,0.2771396915390954,0.6791790107643116,-1.2065593288637715,-1.3659238642569784,-0.5079880935718021,-1.1940512998294686,-1.306139228586717,-68.62025,LR
0.5958346277463475,-1.5480097359159253,1.233789047689017,-0.10343911144225446,-0.7832510823192835,0.23636558748194503,-1.7852114012259186,-0.667119425893761,1.275198980259582,-1.7260321324647898,-0.6359272491217253,-115.7203,1.3882588864874095,-1.2114818126850198,-0.4759525734653617,0.33729213918852136,0.787253831414498,0.8922770333334936,-1.2060300635098065,-1.364371999182644,-0.5076970916170269,-1.1927887325035844,-1.3334259704679279,-68.54936,LR
0.5639624230668008,-1.5642478187348912,1.233789047689017,0.3724428551668452,-0.8406798046301571,0.0778135696976619,-1.7833352299999108,-0.6661625051425388,1.2738301559868246,-1.7187719609496506,-0.6099951592218986,-115.6,1.365397438222226,-1.230420806822385,-0.5109052783959581,-0.13269036928284295,0.2771396915390954,0.9531620971822948,-1.2064693220610607,-1.362853051328069,-0.5080579340409478,-1.22881191222766,-1.3119732005907678,-69.16292,LR
0.6082294183326672,-1.602138156716338,1.2818431201512352,0.12050560552172215,-1.0416797684819201,-0.1758694452384217,-1.7827163240540045,-0.6661138444977309,1.2731599041015444,-1.7727454139266798,-0.6500910947977122,-115.1552,1.3882588864874095,-1.2624707237735178,-0.4759525734653617,-0.39705560846012156,0.2771396915390954,1.0444899920538744,-1.2065263686261587,-1.3618368137616648,-0.5079044966466119,-1.2036507490904012,-1.3357208917769898,-68.71805,LR
0.5356315664042043,-1.550715713534788,1.2781458377871804,0.06451920992239592,-1.1278228519482303,-0.20757975075942314,-1.7811269101812806,-0.6647494043331176,1.2721970070269162,-1.7217432158258106,-0.5826377563790567,-115.3044,1.369431801725026,-1.243531729636153,-0.5077276414468025,-0.2208120643688413,0.5321967614767967,0.5878511158927324,-1.206999221265749,-1.3602692827017222,-0.508394967214024,-1.2288443020333042,-1.316447997104699,-69.15477,LR
0.5852105836954964,-1.575073946316132,1.2670570187723,-0.2154109840347682,-1.012965595405248,-0.6198151839313341,-1.7802298928324412,-0.66427763344748,1.270894263925948,-1.7468005090187682,-0.6281950608693524,-115.348,1.373466165227826,-1.2653838643695865,-0.4600650394746415,-0.3089337402149292,-0.26131405821763504,0.6487363791404519,-1.206681028202647,-1.359445233208759,-0.5081431182495274,-1.1875568262507514,-1.3227946603049399,-68.48534,LR
0.5728158656361698,-1.5480097359159253,1.1302908801523976,-0.41136269159584965,-0.6396794646208646,-0.5246838486389143,-1.7779408774772083,-0.6635118486880033,1.2676562865083243,-1.6693509569641647,-0.6197007335829219,-116.4125,1.3680870138907593,-1.220223024604685,-0.5021672648520735,-0.7201685481618469,-0.17629505408630147,0.831391770085774,-1.2072071243029943,-1.3584008341682263,-0.5083431159566278,-1.2183830299045513,-1.3142686844724663,-68.99226,LR
0.5639624230668008,-1.575073946316132,1.0970229090691144,-0.04745270759197487,-1.357537365034195,-1.1271810592724074,-1.7752988191493397,-0.6629637960376669,1.2639274203859894,-1.6608006353054294,-0.6159147796939087,-116.5051,1.3909484621559427,-1.234791114426974,-0.4997838744514422,-0.3676816523783908,-0.17629505408630147,1.0749324242788159,-1.2075861670355346,-1.3578180222036433,-0.5084685113444127,-1.221273343737599,-1.3362002036634062,-68.99752,LR
0.5568797270328999,-1.5696608825255116,1.170951901925148,-0.6633004179627213,-0.8693939777068291,-0.3661317893140146,-1.773632312219326,-0.6620358450938303,1.2617184212147818,-1.6892845730716974,-0.6066900467559253,-116.0054,1.3546390804654425,-1.2041977677738753,-0.5093164599213803,0.04355305936897461,-0.7147486868993822,0.740064074613113,-1.2077465312685318,-1.3569392350109664,-0.5087827934555698,-1.2206579374303645,-1.3007426568076534,-69.05511,LR
0.581669235678546,-1.5777799239349939,1.126595111826985,-0.35537630608102194,-0.9555368730943747,0.17294490499008164,-1.7716804889277538,-0.6616351770129121,1.259330058863007,-1.6822082950113688,-0.6302405194060645,-116.3143,1.373466165227826,-1.2041977677738753,-0.4989896279029179,0.45478777111634006,-0.06293633983622615,1.3793583417195772,-1.2075398959327326,-1.3559518116680913,-0.5086653344847335,-1.212397266802712,-1.318598431008251,-68.88866,LR
0.5958346277463475,-1.6075501119540625,1.167254619561093,-0.3833694071611764,-1.3001088308020863,0.5534696230505113,-1.7704794223249296,-0.6616583204903207,1.257998995259844,-1.7171538433453093,-0.6437245177009302,-115.9166,1.377500528730626,-1.2129389796935408,-0.49422317247918435,0.5135354908806972,0.10710158303901424,1.1967027513753365,-1.207260367763753,-1.3549446193433774,-0.5085722138592051,-1.2099699366621044,-1.3229183325228944,-68.8419,LR
0.5798985616700707,-1.5453026497441675,1.2929319391661154,-0.5793211147222578,0.22407583549444884,0.39491760526622816,-1.7699837211715141,-0.6605589783396608,1.2577629910748864,-1.745701492229779,-0.6198287428208229,-115.2903,1.4003619769958093,-1.2508157745472972,-0.4751583269168374,0.5135354908806972,-0.374672748336481,1.2880306462469158,-1.2068173061081588,-1.354779660244922,-0.5082574026535848,-1.2014711056988354,-1.3463684227843344,-68.66481,LR
0.5462556829820486,-1.5804859015538564,1.219004460348724,-0.5793211147222578,-1.5585375169647226,0.8388634212246874,-1.7687963439900782,-0.659774204060259,1.257243781867979,-1.710488791593377,-0.5969446712032859,-115.6043,1.3680870138907593,-1.1867165373555182,-0.4568874025254858,0.45478777111634006,-0.45969180258652165,1.0749324242788159,-1.2057226459090014,-1.3540414939230596,-0.5075129667438232,-1.1669829487245886,-1.314226866573143,-68.17373,LR
0.5834399096870211,-1.5940180067539598,1.1968253082803215,-0.13143204750334211,-1.0991084907927935,0.9974148158997213,-1.7675801469741408,-0.659492004688873,1.2565546496479016,-1.7207926169826335,-0.6308671192470505,-115.7538,1.3452255656255758,-1.1969137228627311,-0.46403692297232146,0.10230070217368993,0.3338191229140693,0.9227194655584352,-1.2049594896381346,-1.3523157177584935,-0.5070023905868087,-1.1739505675033983,-1.2932896007553563,-68.32513,LR
0.5834399096870211,-1.5913120291350973,1.511018607292877,-0.07544568032396626,-0.5535365692333191,0.0778135696976619,-1.7692149520862033,-0.6587700252992233,1.2594716613739825,-1.8644727723684058,-0.6201331681512933,-113.5292,1.3667422260564925,-1.2129389796935408,-0.4767471453914153,-0.27955997653230286,0.2204602601641214,0.8009493378608324,-1.2047541220037825,-1.3511110221152218,-0.506810329296657,-1.1918837232282398,-1.3135473725901892,-68.5715,LR
0.5781278876615955,-1.6048441343352007,1.2670570187723,-0.10343911144225446,-0.0653931819059532,-0.14415913057848465,-1.768645760354811,-0.657953475942447,1.2590090931714641,-1.7545392379104041,-0.6249614829775002,-115.2054,1.373466165227826,-1.2522729415558183,-0.4918401074560821,0.1316747736948834,0.3338191229140693,0.1920976026787692,-1.2048270148369629,-1.3499973383883395,-0.5072441867565038,-1.2155771836038698,-1.3211184751340743,-68.93456,LR
0.5604210750498503,-1.5913120291350973,1.1931295399549087,0.03652622893945119,-0.6396794646208646,-0.0490277122048317,-1.767094532762801,-0.6571162646932521,1.2575836278943178,-1.7087005363438366,-0.6110482772379077,-115.758,1.3949828256587427,-1.2260499025073088,-0.4997838744514422,-0.16206444080403645,0.05042233728888099,0.3747530933235505,-1.205124924676919,-1.3494816663620763,-0.5076330711869764,-1.2197980198452298,-1.3395440416534812,-68.96809,LR
0.5728158656361698,-1.6183762395353034,1.3668594179835072,0.42842924068167293,-0.8119654434747203,-0.4295523056434115,-1.7672040481339042,-0.6565442593530103,1.2584143626253705,-1.8026816755919675,-0.618359863708606,-114.4333,1.4084307590840597,-1.2187658575961646,-0.4656257414468993,-0.07394272647812766,-0.26131405821763504,0.1316234003007088,-1.2047015123937472,-1.349468704623984,-0.5075171994995296,-1.1860237087836065,-1.3527365575068737,-68.40863,LR
0.5480263569905238,-1.621082217154166,1.296627707491528,0.008533256207459787,-0.6396794646208646,-0.33442146883839113,-1.7667364463191275,-0.6555091147270969,1.2584615634623624,-1.7609067297807324,-0.5997759343474491,-114.8826,1.4003619769958093,-1.2522729415558183,-0.49422317247918435,-0.07394272647812766,-0.06293633983622615,0.8618344017096338,-1.2049702651004315,-1.349172636145976,-0.5077087316952179,-1.2203518220123184,-1.3458436362764565,-68.96584,LR
0.6011467222987663,-1.5831929877256143,1.182040720940028,-0.2154109840347682,-0.6971079988529734,-0.46126316614705093,-1.7655375412038905,-0.6554369329723818,1.2564319274717235,-1.7171748390547168,-0.6455381611891746,-115.9315,1.3909484621559427,-1.2449888966446734,-0.4918401074560821,-0.2501862128496766,0.16378101441398818,0.7096214429892533,-1.2052250730912022,-1.3485374177295375,-0.507892856568421,-1.2156591107593218,-1.3369100765687383,-68.90694,LR
0.5834399096870211,-1.5940180067539598,1.2227002286741366,-0.32738338835538616,-0.5535365692333191,0.10952380709205206,-1.7647341883171783,-0.6549937003141317,1.255516231234087,-1.7325951016296026,-0.6299866523460256,-115.5727,1.373466165227826,-1.2071115050804306,-0.4751583269168374,0.10230070217368993,0.36215883860155634,0.1316234003007088,-1.2047870822413942,-1.3474229880033404,-0.5078960311352005,-1.1897186870039245,-1.3195493662883828,-68.52574,LR
0.5745865396446451,-1.5696608825255116,1.2633612504468874,-0.35537630608102194,-1.0416797684819201,0.6486005429367648,-1.7640850215450463,-0.6545375202559326,1.2553274278861197,-1.7387099209970605,-0.6186390099038606,-115.3829,1.373466165227826,-1.2406185890400843,-0.46403692297232146,0.48416153479896623,0.13544129872650118,1.0749324242788159,-1.2041006219080488,-1.346537300317003,-0.5074664064310594,-1.186102460467917,-1.321506275204931,-68.46457,LR
0.5887519317124467,-1.5236515031345819,1.2153071779846691,-0.9432303286371541,-1.0991084907927935,0.7754423233266579,-1.7631310850230668,-0.6543045749518522,1.254156847128728,-1.7056793261590861,-0.6281084663848899,-115.952,1.3909484621559427,-1.183802800048963,-0.45529890942843687,0.8366486229815268,0.022082621601394053,1.1967027513753365,-1.2028728530569963,-1.3460283422845718,-0.5066473682019831,-1.1668660913865792,-1.3353495938368083,-68.13378,LR
0.5515677050074743,-1.5831929877256143,1.3779482369983873,-1.3631262947759153,-0.5535365692333191,0.49004894055864784,-1.7640360278263945,-0.6532051788536926,1.255601192740672,-1.7859184116049769,-0.5961486473709604,-114.4761,1.3613630196367754,-1.2027411974758413,-0.4441775054839211,0.45478777111634006,-0.3179933540864753,1.4402434055683784,-1.2016679028319823,-1.345261268489266,-0.5056431469107769,-1.1575168692516014,-1.3092337531366551,-68.03239,LR
0.5798985616700707,-1.5886060515162348,1.119202061137517,-1.447105598016379,-0.20896479960437223,-0.20757975075942314,-1.7629048493222348,-0.6526615498983387,1.2530806680453204,-1.6821358960134118,-0.6300006365484854,-116.3134,1.3438807777913093,-1.2245933322092748,-0.46880305301852604,-0.3383078886957645,-0.5163710483366549,0.8922770333334936,-1.2014080240354252,-1.3443387470867671,-0.5053590231840237,-1.1844296222705433,-1.2932847251258386,-68.49226,LR
0.5250075223533531,-1.374798345933447,1.2744500694617675,-0.9432303286371541,-0.20896479960437223,0.6168903055423748,-1.7608463926430096,-0.6506179646589065,1.2515324805919956,-1.6490162504079497,-0.5546897899092597,-116.1199,1.3667422260564925,-1.1765187551378182,-0.4775413919399395,0.48416153479896623,0.19212073010147518,0.618293747516592,-1.2007633978498182,-1.3432788685604549,-0.5051547927212175,-1.1847998822056491,-1.3117530471656298,-68.46207,LR
