xa_S1,ya_S1,za_S1,xgb_S1,ybg_S1,zbg_S1,tilt_x_S1,tilt_y_S1,tilt_z_S1,tilt_accx_S1,tilt_accy_S1,tilt_accz_S1,xa_S2,ya_S2,za_S2,xgb_S2,ybg_S2,zbg_S2,tilt_x_S2,tilt_y_S2,tilt_z_S2,tilt_accx_S2,tilt_accy_S2,tilt_accz_S2,Posture
-0.7517816607641847,-1.0570681598588763,-1.6767145285577274,0.2553765946203766,-1.1640428147181527,-0.010098052365233588,-1.2417831661647303,0.8422260170858574,-1.4579270495954357,-1.239371115479377,31.67789,-1.5966911875285912,1.98818124575317,-0.6505626542667471,-1.496617820677244,0.5104261257097106,-0.0632423250852411,1.2895845402473856,-0.5304442725369336,-1.6351304424174757,-1.5893212059179262,-0.6279364858813947,11.40282,-1.5935000997002076,LB
-0.7957651967695502,-1.0099461584688219,-1.67953150576734,0.866083210405811,-1.3376295216075702,0.15877549786249992,-1.240129542998549,0.8421939739218564,-1.460390169211967,-1.1972633641531554,32.0654,-1.5963722726670326,1.9361315171773676,-0.5588939810004666,-1.4797883723998126,-0.16236345104732178,-0.7726813099165123,1.4033124345935248,-0.5307897439262701,-1.6390564238331833,-1.5891460060205385,-0.5486858532205495,11.94401,-1.6310678803482528,LB
-0.8460328304019272,-1.0078037308954297,-1.5935998525634139,1.1035804029699816,-1.3723466810666376,-0.4745004606700102,-1.23701504307646,0.8424238487940394,-1.461815801292577,-1.131827371570599,32.17086,-1.5313704590739943,2.007699977248662,-0.4547254219937929,-1.6256290397454178,0.28616287050344985,-1.6523855470184037,1.1758573908161358,-0.5282798419385899,-1.6448380272058192,-1.592174461389633,-0.42580114558838816,11.22431,-1.781926976863336,LB
-0.7685372526758819,-1.0142301362906392,-1.5992343839955867,1.239292989194064,-1.8236720280197152,-0.010098052365233588,-1.234723241246998,0.8410543518282437,-1.4629254380497472,-1.1751089890094524,31.74455,-1.5282555406416984,1.975168846921046,-0.5797276928018011,-1.3563854377337163,-0.034213346261692236,-1.9361612153001158,0.7588567669133797,-0.5297153802495831,-1.6498458507194624,-1.5916864045326318,-0.607397450410221,11.69974,-1.5942131744577652,LB
-0.7371201961299677,-0.982101618614462,-1.5781035928458067,1.4767899595288665,-1.7889548685606478,0.07433870892210846,-1.2321011848974959,0.8394187572831329,-1.4634524013492423,-1.1655149812709111,31.62724,-1.50216683869095,1.9263722180532745,-0.5005589052759134,-1.390042036752979,0.02986222025477464,-2.7307335697587325,0.8346747009975705,-0.5293960809351963,-1.6544885298734173,-1.5920743471625556,-0.5232735283339786,12.16041,-1.6399500396090294,LB
-0.814615773856013,-0.928553211829198,-1.6006434496133404,1.612502545752949,-2.0666935086243075,-0.4745004606700102,-1.2283849400847995,0.8393170550669552,-1.464604962326648,-1.1135807967158478,32.25652,-1.5207051396520879,1.893840554736438,-0.5088927313368552,-1.4293069201743194,-0.29051410143356177,-3.0145077510563736,0.8346747009975705,-0.5292168022217909,-1.6587923405645348,-1.5922870898950952,-0.5152335899642183,12.40855,-1.6314056526018321,LB
-0.72455285877323,-1.0099461584688219,-1.6034604268229533,1.8499995160877514,-1.545933387956055,-0.8966845436372146,-1.2262224193841782,0.8376535969009732,-1.4660452069077647,-1.196632998050672,31.5267,-1.5260652920235207,1.9296253177613056,-0.5463940952600739,-1.496617820677244,0.19004986697529072,-2.7023544787718885,1.1000387118170551,-0.5289393782273234,-1.6635374051096674,-1.5925123469060198,-0.5323606634008498,11.99368,-1.6423019353006187,LB
-0.7224587314957508,-1.0292236200045164,-1.5752860386232466,1.2732209690780585,-1.89310680173489,-1.36108653714625,-1.2244782994278083,0.8353618140843572,-1.4672827030443607,-1.192977578975936,31.40123,-1.5059938170296572,1.9101067195131192,-0.48805901953552067,-1.4629612216579813,1.1511786431785502,-1.8794060072945697,0.7209470549563943,-0.5270078790960329,-1.6670755905304706,-1.5935009748984106,-0.48955089313443856,12.2409,-1.664282151950172,LB
-0.764348140223636,-1.0313651702529405,-1.6147306437131939,1.7821433340903943,-1.6153681616712303,-1.3188683500739249,-1.2224403587240718,0.8342820987756169,-1.4691777617037252,-1.192348386739565,31.70148,-1.543211547942395,1.9101067195131192,-0.5463940952600739,-1.4349152045763967,1.5997051535910716,-0.8861915400545954,0.7209470549563943,-0.5257908776108701,-1.6699233541098772,-1.593413374949715,-0.5478707807283395,12.23138,-1.6140916970850516,LB
-0.7727263651281278,-1.0142301362906392,-1.57387755001844,1.2732209690780585,-1.3376295216075702,-1.0655581215179974,-1.220132102932757,0.8334350447011476,-1.4702508672096304,-1.1610425513817835,31.71595,-1.5080704293178546,1.9166129189291816,-0.49639284559646246,-1.3676043040734704,1.8239684087973322,-1.4537426907450104,1.2137663578582314,-0.523939203308176,-1.6730411251810635,-1.5933132607226377,-0.5249999521079312,12.27479,-1.6313180820175717,LB
-0.7434034358596929,-1.0592097101073004,-1.6288178378130471,2.324993456757356,-0.4349788049615634,-1.445523740882383,-1.2182728052434195,0.8329056359046038,-1.472459181348589,-1.2219978970124235,31.5323,-1.5568882301087918,1.9654095477969529,-0.6630625400071398,-1.6144101734056635,1.279328894856652,-0.9145689581843596,1.9719491749696267,-0.5242192445101383,-1.6771093588659303,-1.5923746898437874,-0.601454543209739,11.4873,-1.6119774929793182,LB
-0.7517816607641847,-1.0313651702529405,-1.5865562555134871,1.4767899595288665,-1.1640428147181527,-1.994362938127551,-1.2164358379308813,0.8319081182774324,-1.4740702095293685,-1.185113849887415,31.57688,-1.51882922378539,1.9003472871417209,-0.383890460528847,-1.5751452899843235,1.02302818165406,-1.1699670224632985,1.9719491749696267,-0.5199976888207454,-1.6798719522969234,-1.5944645743340313,-0.36696689185862685,12.27965,-1.7679156833815477,LB
-0.7308369564002426,-1.0185132367874885,-1.59219078694566,2.087496708651922,-1.1640428147181527,-2.1210180524055144,-1.2142368834575874,0.8306974439505997,-1.4757743924008744,-1.1921053964542505,31.5127,-1.5189630213997218,1.9101067195131192,-0.5713938667408593,-1.5134449714190756,1.5997051535910716,-1.8510284032917967,-0.2634018548682355,-0.5188945358616138,-1.6833285918309469,-1.595240459593879,-0.546594097601383,12.1355,-1.621147384159809,LB
-0.7434034358596929,-1.0292236200045164,-1.5414771189913672,2.4946340228654322,-2.3097145344318597,-1.487742204485202,-1.2112540152303188,0.8282955998315445,-1.4763789846093074,-1.1665667653078295,31.44662,-1.48089485085616,1.8613095576561272,-0.5922275785421939,-1.9509646759202888,2.4967583842625025,-1.6523855470184037,-0.2634018548682355,-0.5148156179806972,-1.6866067364794652,-1.5979185151682014,-0.43690749746039464,12.11778,-1.7177252285164235,LB
-0.735025210955201,-1.0035206303985804,-1.5851471898957334,3.410694591008752,-1.5806507748136427,-1.8254888071857793,-1.2078833036165255,0.8269302824088793,-1.4777397737189226,-1.1797950625310794,31.56607,-1.5112192553647408,1.854804424218506,-0.675562425747533,-1.52466383775883,2.176381705835306,-2.106426653443745,1.5549485510668704,-0.5148430986593944,-1.6893666117142325,-1.5953906309344967,-0.6249004067922892,12.54668,-1.5271841472475618,LB
-0.739214323407447,-1.0142301362906392,-1.5766951042410002,3.3428390756994997,-1.962541348051545,-0.8966845436372146,-1.204610140490858,0.825176267475068,-1.4785288487462431,-1.1786364566779117,31.53981,-1.5065629151015767,1.9361315171773676,-0.6338950021448634,-1.6200207553433406,1.215253769017601,-0.31634169786408656,-0.2634018548682355,-0.5147737426607778,-1.6922152813590479,-1.5961540019159628,-0.5719655369745907,11.75936,-1.6218104185835014,LB
-0.6931358022273159,-1.0227972146093058,-1.5696515071910737,1.883927718201114,-1.6848027079878853,-0.13675327725539493,-1.2030787467555815,0.8229820073314993,-1.478741643284861,-1.201542106133699,31.24904,-1.497019296227223,1.854804424218506,-0.6255611760839216,-1.6312373241474938,-0.0021758158683570835,-2.106426653443745,1.7444943794972005,-0.5153573799321568,-1.69499871429444,-1.5948900597991105,-0.5522125584700145,12.47143,-1.595276531552365,LB
-0.7119863793137787,-0.9885271466847043,-1.6119130894906337,1.8499995160877514,-1.9972587349091326,-0.3478452357798489,-1.2014298247213586,0.8212739673721249,-1.4796741034733962,-1.1969828101522366,31.53928,-1.5280695069724564,1.8125130620356609,-0.7297314417926348,-1.390042036752979,-0.3545896469653898,-2.617222782001623,0.9863115623858055,-0.5192779567596274,-1.6970917253884361,-1.590847947880855,-0.7047564088284166,13.02411,-1.4272911307724885,LB
-0.7266478439479966,-0.9628241570787686,-1.57387755001844,1.2053647870807014,-1.2681947478923952,0.623177933820326,-1.1995670011830524,0.8204798541773095,-1.4794421300278646,-1.1596468245738638,31.61922,-1.4943094363259886,1.9263722180532745,-0.6255611760839216,-1.4293069201743194,-0.22643897559451096,-9.22919410575923,0.1523100662753297,-0.5213062925682326,-1.705666728415959,-1.5902222339616214,-0.6192621626107397,12.03851,-1.5634508792151585,LB
-0.7098922520362995,-1.0163716865390644,-1.5203457508286395,1.171436584967339,-1.1987602015757404,-0.09396491195718258,-1.1979039757529555,0.8187606687695862,-1.478834797975586,-1.1664798992154948,31.25926,-1.4577570277968481,1.854804424218506,-0.5547262146189758,-1.4741800879977356,0.19004986697529072,-1.3969874827394646,0.4934922594839685,-0.521278811889535,-1.707293115824497,-1.5899969769506967,-0.5369530297728157,12.68127,-1.5952014710515672,LB
-0.7161754917660247,-0.9949526747549458,-1.5851471898957334,1.239292989194064,-1.4070640679242252,0.07433870892210846,-1.19659235993671,0.8175277035460573,-1.4791526198615899,-1.1850293315273053,31.4889,-1.5076672036308256,1.8808289553881445,-0.5922275785421939,-1.491007238739567,0.06189974120502231,-1.7658957771564865,0.11440109923323417,-0.5219762976869455,-1.709580930981354,-1.5898968627236194,-0.5673059073387042,12.40607,-1.5862442512899964,LB
-0.7371201961299677,-1.024939642182699,-1.6908017226575804,1.4767899595288665,-0.9904561078287352,0.3698674287339045,-1.1962597548506904,0.8173897786227471,-1.4812084160265198,-1.2385928422467019,31.7228,-1.6016362007267875,1.9133598192211503,-0.6005614046031357,-1.5302721221609072,0.06189974120502231,-0.8010589139192853,0.1523100662753297,-0.5226476114094065,-1.7118080397558313,-1.5901721768480845,-0.5669577210313526,12.07071,-1.6073362520134746,LB
-0.6826634500453448,-1.0356491480747578,-1.6119130894906337,1.0017960188592618,-1.2681947478923952,0.4965228195423624,-1.19612812315587,0.815610686430152,-1.4817700840147159,-1.2330052395505733,31.23801,-1.5325224015480734,1.978421946629077,-0.5922275785421939,-1.491007238739567,-0.16236345104732178,-0.9713241661899054,0.07649138727624895,-0.5237481471610428,-1.7150889026005758,-1.5909355478295506,-0.5788197954568157,11.53206,-1.6293039585795652,LB
-0.7413093085822137,-1.0784871716429938,-1.5583812903008332,1.2053647870807014,-0.9557387209711479,0.4965228195423624,-1.1951432360106966,0.8143888666549715,-1.4817207668255084,-1.1982353252944145,31.32411,-1.5025077476808926,1.9556502486728595,-0.6047274642825866,-1.446134070916151,-0.09828840914682645,-1.2550996485986086,-0.07514480368858523,-0.5251876112832787,-1.718072575991281,-1.591135776283705,-0.6000090424792182,11.77227,-1.5963899289808263,LB
-0.6994198998543284,-1.0399331258965752,-1.5978258953907802,1.5785743436395865,-1.4070640679242252,0.7920515117011089,-1.1943228884840476,0.812686399419771,-1.4819490871459133,-1.2199600654408949,31.28893,-1.5235634599199117,1.9133598192211503,-0.6463948878852561,-1.491007238739567,0.09393726215526998,-1.9361612153001158,0.41767407709481424,-0.5267631701952528,-1.720927588093957,-1.5902973196319319,-0.6172653668935784,12.07985,-1.562687764123739,LB
-0.7182696190435048,-1.0227972146093058,-1.6119130894906337,1.612502545752949,-0.9557387209711479,0.7076145844954704,-1.1932874641703268,0.8119312952941746,-1.4824303863813286,-1.2096535209719859,31.4709,-1.534381821818485,1.887335421298817,-0.6588964803276889,-1.5695370055822462,-0.034213346261692236,-0.31634169786408656,0.2660372157065794,-0.5281201922813965,-1.7223020893188883,-1.5896716057126947,-0.6018357017052871,12.22461,-1.567354025256512,LB
-0.76015902777139,-0.9906686969331284,-1.5935998525634139,1.6803589499796745,-1.3029121347499826,0.5387410066146874,-1.1913376696908,0.8116805227063383,-1.482674232483521,-1.1656605406688778,31.75843,-1.51886313139998,1.7962475634955055,-0.8297322344178175,-1.6480667724249265,0.06189974120502231,-0.31634169786408656,0.7588567669133797,-0.5315055501761453,-1.7225575997641294,-1.5861175506514475,-0.7096837726324559,12.82693,-1.4354727253591772,LB
-0.7664431253984026,-0.9949526747549458,-1.6288178378130471,1.5107181616422294,-1.3029121347499826,0.7076145844954704,-1.189937907650344,0.8117543613016454,-1.4834596543857153,-1.1812224837240393,31.8508,-1.5490958937069645,1.8743224894774722,-0.5797276928018011,-1.7602508407512674,0.1580123250404042,-1.8226509851620327,0.03858242023415347,-0.5301720829574564,-1.7250230037410836,-1.5879070924604561,-0.47990059309317623,12.20003,-1.6752284749828203,LB
-0.7098922520362995,-1.0999061834271124,-1.5766951042410002,2.0196403044251965,-1.7889548685606478,0.623177933820326,-1.1891187354066848,0.8093093285702403,-1.4836112590784645,-1.2319604987103312,31.12714,-1.5173656978258787,1.8678160235667995,-0.7380635611515366,-1.418088053834565,-0.5468152343289308,-2.191558721960028,1.4033124345935248,-0.5340560188799974,-1.7270761479570986,-1.5843405231208203,-0.7106346905400341,12.49699,-1.4552011269848717,LB
-0.7140805065912589,-1.0035206303985804,-1.5513376932509064,2.1214249107652847,-1.7195200948454725,0.7920515117011089,-1.1871677656441688,0.8077782226033946,-1.4829874879631177,-1.173644004100887,31.3833,-1.4812605032405337,1.9621564480889218,-0.6172290567250198,-1.4124797694324878,-0.5147773566398225,-2.645600014258378,1.1758573908161358,-0.5360961321223295,-1.7308770923464116,-1.583414466520355,-0.6214027170684367,11.73848,-1.5795763768026798,LB
-0.7329310836777219,-0.9970942250033699,-1.5724684844006864,1.883927718201114,-1.6848027079878853,0.9609250895818919,-1.1853049421058626,0.806679002760045,-1.4826313082632854,-1.171764644454564,31.54813,-1.499570615119696,1.9003472871417209,-0.5588939810004666,-1.3283394206521317,-0.38662710496172087,-1.7658957771564865,1.4412214016356204,-0.5373262196449671,-1.7327354324995656,-1.582050410176422,-0.5886349564390589,12.42102,-1.5667035009162857,LB
-0.6847584352201105,-1.1298931508548655,-1.5457031618187338,1.6803589499796745,-1.3029121347499826,0.9187066259790725,-1.1850569573950847,0.8039804110787167,-1.4821993262170778,-1.2426180291469167,30.84229,-1.4944423175183053,1.949143916009492,-0.5880615188627429,-1.451742355318227,-0.0036012069061159813,-1.5956305248858664,0.9104928833867247,-0.5380760495922771,-1.7354944016689242,-1.5819127531141928,-0.5833448985648612,11.83602,-1.6072111511788152,LB
-0.774820492405607,-1.0485002042152416,-1.5668339529685136,1.5785743436395865,-2.3097145344318597,-0.09396491195718258,-1.183485604038167,0.8025705118626585,-1.4825427199789674,-1.1724149662809618,31.61095,-1.5082033105101713,1.8515505250266444,-0.5213926170772479,-1.3563854377337163,0.02986222025477464,-1.7942733811592597,1.1379476788591507,-0.5379608924624985,-1.736416776254936,-1.5811368678543416,-0.5418685235891043,12.85887,-1.5795138263853519,LB
-0.764348140223636,-0.9863847191113111,-1.5471116504235398,1.9517841224278394,-2.4138666950046224,0.5387410066146874,-1.1810856761736739,0.8014698988382654,-1.4820449816804842,-1.139451631972144,31.69889,-1.4807445576455407,1.8092604953168505,-0.5088927313368552,-1.4741800879977356,-0.29051410143356177,-2.134804071573509,1.36540272263654,-0.5371482495353092,-1.7371624680862603,-1.5806488109973404,-0.4920040239362353,13.11966,-1.6054722495770566,LB
-0.6156402245012705,-0.9499722236133165,-1.5541552474734666,2.2232092948760043,-2.3444321486879676,-0.09396491195718258,-1.1796059948899338,0.7983951482751823,-1.4814942730676672,-1.198000552071888,31.00707,-1.4631575027369836,1.9231191183452434,-0.5588939810004666,-1.339558286991886,-0.29051410143356177,-0.31634169786408656,1.479130368677716,-0.5382605627206727,-1.7382515587074654,-1.5795976116130241,-0.5881377358410599,12.20288,-1.5806772641476785,LB
-0.7287419712254759,-0.9542562014351338,-1.496397982469247,0.2419749192288994,-0.2688737595211357,1.2142353181378192,-1.1780746011546575,0.7986124845179735,-1.479656751129045,-1.117014355095296,31.49524,-1.429970195850499,1.8970941874336895,-0.5547262146189758,-1.345168868929563,-0.29051410143356177,-0.31634169786408656,0.9863115623858055,-0.5391648079101864,-1.7388966772784284,-1.5788467549099432,-0.5796704779122772,12.43582,-1.5735965569059884,LB
-0.7329310836777219,-0.9713921127224032,-1.5302069021011264,2.087496708651922,-2.101410668083375,0.41208589233672377,-1.1756840755540805,0.7974045965532284,-1.478877722195823,-1.1394551535704813,31.53784,-1.4608417043026165,1.8190195279463333,-0.5213926170772479,-1.3002934035705458,-0.3545896469653898,-0.31634169786408656,1.2895845402473856,-0.5396175848068169,-1.7381174610269843,-1.577269955833474,-0.5539956944076647,13.2144,-1.545811661528261,LB
-0.8669775347658703,-1.012087708717247,-1.5400680533736135,1.4767899595288665,-1.6848027079878853,-0.3478452357798489,-1.172905706566979,0.7982196074636965,-1.4790713378275258,-1.0987877359644593,32.16037,-1.4911184548663672,1.838538925678351,-0.5338925028176407,-1.446134070916151,-0.5468152343289308,-2.078048863567963,1.36540272263654,-0.5396646945417265,-1.739240076068309,-1.5766192133574701,-0.5251199708729655,12.87083,-1.5932248778639595,LB
-0.7203646042182705,-1.0013782028251872,-1.5499292046461,1.7821433340903943,-0.2688737595211357,-0.5589371113451546,-1.1713508071719132,0.7982335392741319,-1.4791498800177454,-1.1689391487214587,31.42102,-1.480476045994861,1.8710699227586616,-0.5005589052759134,-1.4741800879977356,-0.0021758158683570835,-1.992916237432653,1.6686761971080466,-0.5385641587900898,-1.7407396143196354,-1.576794413254858,-0.4924656345709824,12.57205,-1.6407506849508475,LB
-0.7015140271318077,-1.0227972146093058,-1.5203457508286395,1.8499995160877514,-1.4070640679242252,-0.4745004606700102,-1.1699475192824884,0.7966606378759802,-1.4787242909405098,-1.173446794593965,31.19478,-1.4578779955029562,1.8027540294061781,-0.5588939810004666,-1.5751452899843235,0.6706142550769205,-1.5672527350100847,0.7209470549563943,-0.5371246946678543,-1.7411473437535308,-1.5767568704197026,-0.5053946890064739,13.03379,-1.5996050204315584,LB
-0.7329310836777219,-0.9799591910410697,-1.5611988445233933,1.7821433340903943,-1.3723466810666376,-1.1499947721931418,-1.1682421836647716,0.7961451608898718,-1.4792375550207815,-1.1584213083522765,31.57624,-1.4875279134077808,1.8352850264864886,-0.5630600406799176,-1.5358804065629832,0.3182005383461695,-0.8861915400545954,0.6830380879142989,-0.5362688678169978,-1.7417018557836283,-1.5764189849033157,-0.5240463964252972,12.78453,-1.599742631349684,LB
-0.7057031395840536,-1.0099461584688219,-1.4456837375020066,1.2732209690780585,-1.0251734946863227,-0.9389027307095397,-1.1659962178718983,0.7943103414555355,-1.47800279872803,-1.1287260173010252,31.10077,-1.3958765475902173,1.8482979583078336,-0.6297289424654126,-1.48539895433749,0.7667274684514682,-0.7726813099165123,0.8346747009975705,-0.5366012531688594,-1.742169385534495,-1.5751800713432336,-0.5967777680359907,12.67631,-1.543534826337473,LB
-0.7161754917660247,-1.0292236200045164,-1.5161197080012734,1.171436584967339,-0.5391307608756579,-0.8122476164315761,-1.1650219082736302,0.7936736577186395,-1.4777626057509625,-1.1673156918876888,31.24708,-1.4572291687156476,1.7962475634955055,-0.675562425747533,-1.446134070916151,0.9909905138113403,-0.8010589139192853,0.7588567669133797,-0.5376455189593539,-1.7417698106892776,-1.5727147585014507,-0.6403168831053017,13.14781,-1.4754424420326702,LB
-0.6910416749498366,-1.0206556643608817,-1.5133021537787132,1.341077373304784,-0.7821520140817302,-0.6011555749479739,-1.1641263426356556,0.7925354288060709,-1.4772767401091405,-1.1740184673908172,31.12958,-1.4505961061640267,1.8580569909373168,-0.6588964803276889,-1.6088018890035862,1.055065639650391,-0.0632423250852411,0.7588567669133797,-0.5374911037171507,-1.7421494520955048,-1.572076530303832,-0.5869968981294716,12.4435,-1.5667285210832183,LB
-0.6575296332291557,-0.9906686969331284,-1.50203251390142,1.2732209690780585,0.155215839283492,-0.4745004606700102,-1.1631767139801659,0.7919029246123059,-1.4763935971098128,-1.170658862576464,31.01093,-1.43242620685331,1.8125130620356609,-0.6338950021448634,-1.418088053834565,0.7026517130732516,-0.09161974321500524,0.9104928833867247,-0.5382697229469052,-1.7414291300956228,-1.5700992743190503,-0.6153437477655043,13.06328,-1.5026018332371038,LB
-0.7517816607641847,-1.0185132367874885,-1.493580428246687,0.8321550082924483,0.12049845242590447,0.03212032827843743,-1.1618944802386562,0.7923821788912824,-1.4754629634838414,-1.1344486146001058,31.42525,-1.441335661692609,1.8190195279463333,-0.5755616331223502,-1.2946851191684685,0.5104261257097106,0.07864569492862371,0.9104928833867247,-0.5389410366693662,-1.7403953094643463,-1.5682471611181161,-0.6024845943689885,13.18129,-1.506067126357151,LB
-0.7224587314957508,-1.0292236200045164,-1.53161596771888,0.391089069729775,0.294085159315322,-0.0945348769780588,-1.1617076102433308,0.7926844991777295,-1.475188979099355,-1.171853858279124,31.31284,-1.4705035416170307,1.806006596124988,-0.5755616331223502,-1.4797883723998126,0.5104261257097106,0.6461966597460301,0.6072199055251447,-0.5384673221127757,-1.7391114147802802,-1.5676589900340379,-0.547010866060183,13.09601,-1.5596227936745957,LB
-0.7371201961299677,-1.0078037308954297,-1.5457031618187338,0.2893046411731815,0.39823709248956446,0.5809594702175067,-1.1613926344021537,0.7935872804939406,-1.4747834822103152,-1.1617773915682907,31.48451,-1.4800343305831607,1.8450440591159718,-0.6047274642825866,-1.6592833412290797,0.22208795451078767,0.277288365329008,0.4555830441369098,-0.537841809521477,-1.7391213814997755,-1.5682847039532715,-0.5256105970333245,12.54235,-1.6139165559165305,LB
-0.7308369564002426,-1.0142301362906392,-1.5217548164463937,0.6285862400710087,0.39823709248956446,0.4965228195423624,-1.1607086197022836,0.7941877415237045,-1.4740464642160467,-1.1561510512904456,31.38234,-1.4609571734766296,1.8352850264864886,-0.5797276928018011,-1.390042036752979,0.09393726215526998,-0.3186403466133881,1.024220529427901,-0.5384372242265838,-1.7388586225312648,-1.567095847506726,-0.5802310051116129,12.9282,-1.5417959247357145,LB
-0.739214323407447,-1.037790698323182,-1.5302069021011264,0.6285862400710087,0.05106390610924955,1.1297986674626748,-1.160277290845149,0.7944245823011055,-1.4732902673148645,-1.1670668322718103,31.37571,-1.4727167007856086,1.8515505250266444,-0.8797334840814289,-1.5022261050793213,0.02986222025477464,-0.2335075587685604,0.7209470549563943,-0.5434583368056907,-1.7393941071877805,-1.5628159642991644,-0.8012343503780095,12.45673,-1.3778888111657162,LB
-0.7475925483119388,-1.0056621806470045,-1.5161197080012734,0.594658037957646,-0.7127174677650754,1.4253276361519154,-1.1593476420004798,0.7942991960071871,-1.4720518578969866,-1.1414542475602933,31.48694,-1.4568900925697363,1.9003472871417209,-0.6505626542667471,-1.5358804065629832,-0.0036012069061159813,-1.0848343963279885,0.3418558947056601,-0.5445379348973673,-1.741088449501968,-1.5627158500720872,-0.6061313183834872,12.1483,-1.5682797714329895,LB
-0.7057031395840536,-1.0185132367874885,-1.5245723706689538,0.9678678167458992,-1.1987602015757404,1.8052929789858065,-1.1587494229588413,0.7930467262490485,-1.4707367328514527,-1.1715380882948259,31.2388,-1.4610634784304823,1.8580569909373168,-0.6130612903435289,-1.4236963382366423,-0.7390410315388604,-1.2550996485986086,-0.037235762155000754,-0.5461854670154533,-1.7419338085282443,-1.5623279074421632,-0.6018066861796746,12.66518,-1.5398693718819687,LB
-0.764348140223636,-1.0699192159993591,-1.5217548164463937,0.9000114125191737,-0.4696961918191509,1.2986722453434576,-1.158098316182676,0.792925519498261,-1.4699531375118209,-1.1656758009283419,31.40011,-1.474116993626016,1.841791492397161,-0.6380627685263544,-1.3339500025898088,-0.9633040768987324,-0.8294363320490494,0.19021903331742512,-0.5488524014528321,-1.7420280393307448,-1.5607135655305389,-0.6475272412200457,12.88836,-1.4858508314762853,LB
-0.7203646042182705,-0.9949526747549458,-1.583738701290927,0.7303706241817285,-0.5391307608756579,1.7630745153829872,-1.1579502305260028,0.7930634444215713,-1.4696755000022081,-1.1823106576104492,31.50891,-1.506990884183037,1.884081522106955,-0.6463948878852561,-1.52466383775883,-1.7962819718847243,-1.3402324606069274,0.9484025953437101,-0.5514238078166437,-1.7435656323292343,-1.5600377944977648,-0.6039050362364802,12.30676,-1.560473479350279,LB
-0.7371201961299677,-1.0613521376806936,-1.5654248873507597,1.239292989194064,-0.8515867877969053,1.8475114425886259,-1.1576540592126572,0.7925019924610264,-1.4692617835816337,-1.1958300736296315,31.366,-1.5049252689590322,1.8222720946651438,-0.5922275785421939,-1.4236963382366423,-1.027379202737783,-1.0280791883224425,1.36540272263654,-0.5526905362442109,-1.743558383805965,-1.558711280988987,-0.5794700070080444,12.99974,-1.5378177181935633,LB
-0.7140805065912589,-1.0056621806470045,-1.5442940962009797,1.2732209690780585,-1.0598908815439103,2.5230057541117574,-1.156899527533419,0.7918026155771711,-1.468033420257854,-1.171209405783289,31.3626,-1.4758866045388621,1.8905879880176273,-0.5380602691991315,-1.48539895433749,-1.091454328576834,-1.1132120003307615,0.5314017231359904,-0.5529496397862133,-1.744805129808276,-1.5597124232597628,-0.5238208666580353,12.3605,-1.6269645729714457,LB
-0.6826634500453448,-1.0142301362906392,-1.5766951042410002,1.069652200856619,-1.3376295216075702,2.0586034840722283,-1.1569629928148504,0.7904540163270287,-1.4674543999253056,-1.2061272271696395,31.23132,-1.5001598744759668,1.9003472871417209,-0.5713938667408593,-1.519053255821153,-1.091454328576834,-0.31634169786408656,0.5314017231359904,-0.5535345856613401,-1.7457157255439757,-1.5605759084683062,-0.5438231149053747,12.21703,-1.618507756548509,LB
-0.7434034358596929,-0.9799591910410697,-1.5499292046461,1.0017960188592618,-1.4764988416394,2.26969552555583,-1.155952249443908,0.7901349778680593,-1.4664507037968046,-1.1479269453053462,31.61009,-1.4795467940706626,1.9231191183452434,-0.6088952306640775,-1.4741800879977356,-0.8031159475315225,-1.5956305248858664,0.5314017231359904,-0.5548549668425542,-1.747855852039222,-1.5607761369224609,-0.5914916668243768,12.03393,-1.588095743642948,LB
-0.6973249146795617,-0.9970942250033699,-1.5231633050511997,1.3071491711914214,-2.17084544179855,1.8475114425886259,-1.1550261264482076,0.7881301903464112,-1.4651136600005115,-1.165002001779691,31.25322,-1.4553266766104846,1.8222720946651438,-0.5672278070614084,-1.4293069201743194,-1.6040568042139607,-1.1983446264660715,0.9104928833867247,-0.5560915973839294,-1.747855852039222,-1.560125394446457,-0.5564738840724905,13.0113,-1.5569831660632956,LB
-0.7308369564002426,-0.9885271466847043,-1.50203251390142,1.5446463637555918,-2.2055628286561375,1.2564537817406385,-1.1533948336588264,0.7867091456820051,-1.4638396326126493,-1.1346786923581822,31.41731,-1.4406309331623253,1.838538925678351,-0.5922275785421939,-1.5470992729027375,-0.6749654860070322,-2.106426653443745,1.782403346539296,-0.5563415406996998,-1.7490699796868214,-1.559324480629839,-0.5460256570768806,12.72412,-1.5845929202724982,LB
-0.7475925483119388,-1.052784182037059,-1.5161197080012734,2.1214249107652847,-3.8025603501199625,0.8342699753039282,-1.1518493365276763,0.7835675224288319,-1.4632341271229357,-1.1631155989366913,31.34837,-1.4648006474116244,1.7962475634955055,-0.5588939810004666,-1.5863641563240778,0.28616287050344985,-3.213152094313837,1.6307672300659508,-0.5548196345413724,-1.7504082382954067,-1.558974080835067,-0.5014393453104586,13.0792,-1.6000303632693982,LB
-0.6240184494057623,-1.037790698323182,-1.44145769467464,3.3089090957511913,-4.427471949165417,0.8342699753039282,-1.1497056203548874,0.7777482052099834,-1.4611043551741942,-1.1778018378718298,30.56642,-1.387699313941681,1.8970941874336895,-0.6255611760839216,-1.6368479060851722,0.2541254125071188,-3.4685490433547237,1.479130368677716,-0.5544492996808332,-1.7535396003477226,-1.559136766454066,-0.5556271582796125,12.09319,-1.6158556188537392,LB
-0.6973249146795617,-1.0099461584688219,-1.4794932341468336,3.682118874539444,-3.871994214241057,1.2986722453434576,-1.1469260760847968,0.7743195866618423,-1.4595225519944266,-1.1494259723311777,31.12553,-1.422138453301985,1.8287785605758162,-0.6255611760839216,-1.4741800879977356,-0.29051410143356177,-3.979344800166584,1.934040207927531,-0.5553326072103869,-1.7557268422442192,-1.5572471104179801,-0.5940344819780676,12.86453,-1.5339145721522063,LB
-0.7287419712254759,-0.9606826068303445,-1.4992149596788595,3.478550106318005,-3.871994214241057,1.3831088960186022,-1.1436200050354237,0.771738022188171,-1.4581097058517594,-1.1213811370342868,31.48216,-1.433355458777507,1.7929949967766947,-0.6088952306640775,-1.4293069201743194,-1.7962819718847243,-4.660407667979153,2.009858142011722,-0.5574643227150433,-1.7576721646766043,-1.554931968916815,-0.5882577546060942,13.24297,-1.5143362915281002,LB
-0.6889466897750699,-0.9007086719748381,-1.468223017256593,2.562491760468368,-3.8372772821805095,1.8475114425886259,-1.1406030536014606,0.7689433010148383,-1.4556968167057165,-1.096979982151006,31.37621,-1.393043887138841,1.9523970157175232,-0.47972519347457887,-1.3563854377337163,-0.0036012069061159813,-4.830672920249773,1.782403346539296,-0.5565155849981154,-1.7617893258935384,-1.5557829398469734,-0.5180388637359508,11.97163,-1.6561756178642812,LB
-0.6889466897750699,-0.9157021556887152,-1.4978064710740535,2.257137496989367,-3.871994214241057,1.7630745153829872,-1.1384229036559983,0.7664411478606484,-1.453966148677044,-1.1186965052346978,31.39484,-1.4197456754182765,1.7669704656070566,-0.5005589052759134,-1.345168868929563,-1.8603568878773864,-4.319875304707825,0.5314017231359904,-0.5572497117004552,-1.7626346849198147,-1.5552948829899687,-0.5160908668573193,13.64873,-1.5492894647317783,LB
-0.6910416749498366,-0.9264116615807739,-1.5034415795191738,1.9178559203144767,-3.2817995472561496,1.50976428682706,-1.1365824104944915,0.7642817172431677,-1.4524656275313408,-1.1254896684284992,31.38651,-1.426441054666984,1.7929949967766947,-0.5338925028176407,-1.3732148860111488,-1.5720187166784636,-3.128018538813483,0.30394692766356457,-0.5581840547761613,-1.7631348330253926,-1.5549569974735817,-0.5402410163797403,13.35891,-1.5480759866355864,LB
-0.739214323407447,-0.9071342000450804,-1.447092226106813,1.5107181616422294,-2.761041018377538,1.2142353181378192,-1.133899239429537,0.7631908564860795,-1.450276492299296,-1.065785664073924,31.58637,-1.383136448724146,1.9556502486728595,-0.4380577698719093,-1.48539895433749,-0.5147773566398225,-2.503711994244513,-0.037235762155000754,-0.5562119889286983,-1.7658267533545107,-1.5584985382564474,-0.44515450117202665,11.83881,-1.7279084364576525,LB
-0.7224587314957508,-0.9478306733648924,-1.489353808406373,1.137508382853976,-2.4485840818622098,0.7076145844954704,-1.1325629426705124,0.7621961252209951,-1.449184207886477,-1.1135584932597073,31.46517,-1.422407881374682,1.5750370498440018,-0.4297239438109675,-1.519053255821153,-0.32255155942989283,-1.3686100646097004,-0.49214555174382313,-0.5528567289201419,-1.7616679131287782,-1.5587863666592976,-0.3807545420747475,15.19877,-1.5524795360155776,LB
-0.7454975631371731,-0.9071342000450804,-1.4541358231567396,0.6285862400710087,-2.379149308147035,0.9187066259790725,-1.1306566336615962,0.7616277073552323,-1.4473320734473494,-1.0662974696990322,31.63574,-1.3896008896248278,1.7441985011562284,-0.5463940952600739,-1.5302721221609072,-0.1303259300970741,-1.964538819302889,-0.37841840231257345,-0.5517575017722527,-1.7608995696622378,-1.5592493949595285,-0.4999424079663514,13.60901,-1.5658152849902105,LB
-0.6805693227678645,-0.9735336629708273,-1.4766756799242735,0.35716102317697,-1.6500855485288175,0.4965228195423624,-1.1304580108363758,0.7603320489847443,-1.4461603335630289,-1.1391429051845214,31.13447,-1.4115968508522365,1.7669704656070566,-0.40055640594869063,-1.4349152045763967,-0.29051410143356177,-0.7726813099165123,-0.5679635354890068,-0.5489243746589438,-1.7592759004499259,-1.5614644222336198,-0.4040671980169846,13.61827,-1.6468931359325973,LB
-0.7182696190435048,-0.9157021556887152,-1.5006240252966137,-0.049976691049403776,-0.5391307608756579,0.45430435593954305,-1.129917380661221,0.7612515484734781,-1.4453100686898397,-1.1060774445239039,31.56128,-1.4255438775133444,1.8352850264864886,-0.5797276928018011,-1.48539895433749,-0.09828840914682645,-1.4253650867422376,0.19021903331742512,-0.5489152144327114,-1.7595341290913926,-1.5615895650174638,-0.5526504291292598,12.8265,-1.5722704880586036,LB
-0.7161754917660247,-0.943546695543075,-1.468223017256593,-0.219617479386849,-0.4696961918191509,1.1297986674626748,-1.1294566697293495,0.761773991364804,-1.4437556639485203,-1.1041346961074985,31.3989,-1.403790768120169,1.783235964147212,-0.5463940952600739,-1.519053255821153,-0.3545896469653898,-0.2902627481868054,-0.7954190758763224,-0.5482622211627155,-1.7582121796601633,-1.56261573584501,-0.5081076406512567,13.27598,-1.5812402179036442,LB
-0.7266478439479966,-0.9306956394025913,-1.5344329449284932,-0.219617479386849,0.12049845242590447,0.9609250895818919,-1.1294590202953285,0.7634611336085256,-1.4433282483087224,-1.125594142512523,31.63359,-1.4566683184418707,1.8255259938570059,-0.5005589052759134,-1.552709854840416,-0.29051410143356177,-0.20513008487689358,-0.5679635354890068,-0.5467036740994585,-1.757545315519392,-1.5646931060568652,-0.4647980120117914,12.89562,-1.6436530243149328,LB
-0.7329310836777219,-0.9906686969331284,-1.5668339529685136,-0.5928272581751022,0.6065411862365695,1.1297986674626748,-1.1305626110224383,0.7653335689310374,-1.4435693545670703,-1.1660878279338756,31.55582,-1.4939071270609758,1.8125130620356609,-0.5755616331223502,-1.4629612216579813,-0.09828840914682645,0.021890486923077802,-0.49214555174382313,-0.5467390064006408,-1.75645441276737,-1.56494339162456,-0.5526636180045382,13.05626,-1.5573459584838076,LB
-0.7852928445875791,-0.9735336629708273,-1.4851277655790065,-0.4231864698376569,0.5718237993789819,0.9609250895818919,-1.1300266819792413,0.767548726790259,-1.4426652060982652,-1.0936497239894698,31.72125,-1.4308325489675306,1.8352850264864886,-0.5713938667408593,-1.4405257865140737,0.19004986697529072,-0.1767524994614215,-0.45423648537974237,-0.5466303922895992,-1.755830133700806,-1.5652937914193323,-0.5584548531393179,12.87998,-1.5637886514687378,LB
-0.7831987173100988,-0.9756752132192523,-1.5161197080012734,-0.15176107516012363,-0.053088118024400936,1.2986722453434576,-1.1296635195354956,0.7693389644312023,-1.4420825326405917,-1.1105721778691722,31.76858,-1.4560002467922257,1.806006596124988,-0.517226557397797,-1.390042036752979,-0.16236345104732178,-0.8578139360518224,-0.37841840231257345,-0.5461370486767968,-1.7550626962996738,-1.5657443054411815,-0.5227301466725053,13.23533,-1.571369762049062,LB
-0.7098922520362995,-0.9563986290085271,-1.514711219396467,-0.219617479386849,0.294085159315322,1.6786378647078428,-1.1298703693416416,0.7704479365418568,-1.4410678771367105,-1.1359852053415416,31.42446,-1.4429925526974898,1.8125130620356609,-0.6130612903435289,-1.3563854377337163,-0.8992291609060702,-0.6875484979081934,-0.15096350751816223,-0.548173236107886,-1.754353247084696,-1.564517906159481,-0.6156615996597153,13.14505,-1.4970098259278535,LB
-0.7454975631371731,-0.928553211829198,-1.5203457508286395,-0.4231864698376569,0.05106390610924955,1.2142353181378192,-1.1296834993463172,0.7721197537940997,-1.4403801763316495,-1.1086928182228482,31.71321,-1.4470394723200317,1.8222720946651438,-0.46305924805473475,-1.597583022663832,-0.8671910733705733,-0.20513008487689358,0.07649138727624895,-0.5462548230140702,-1.753752525718757,-1.5668455619390311,-0.41987538392576845,12.90158,-1.6818713293032042,LB
-0.6763802103156187,-0.9563986290085271,-1.5118936651739068,-0.5588988338323712,-0.2961094621898814,1.2142353181378192,-1.1304474332894705,0.7721141810699252,-1.4395006864574482,-1.1506585317494413,31.23526,-1.4367608829888665,1.8125130620356609,-0.542226328878583,-1.5639264236445691,-0.6429278181643125,-0.00648711707969518,-0.11305384522216969,-0.5456319276302664,-1.7529107909541153,-1.5678842470449625,-0.495596673562093,12.97086,-1.6121901643982381,LB
-0.8125207886812473,-0.9671081349005859,-1.5513376932509064,-0.5588988338323712,-0.5738481477332453,0.623177933820326,-1.1303263791415554,0.7740799595223543,-1.4399408880351892,-1.1093407923170207,32.02603,-1.4865601717589125,1.815766961227523,-0.5505601549395248,-1.3676043040734704,-0.3545896469653898,-0.03486472108246816,-0.9091462253075722,-0.5460585324519472,-1.7517691485392084,-1.5681470468910388,-0.5591841979422177,13.14855,-1.5456615405266727,LB
-0.7266478439479966,-0.9306956394025913,-1.4865368311967602,-0.3892582677242943,-0.22667484765367044,0.5387410066146874,-1.1299749695277048,0.7749256204157802,-1.4390175606594706,-1.102184904494417,31.53269,-1.417671812396128,1.8255259938570059,-0.5255603834587388,-1.3227311362500545,0.02986222025477464,-0.5456606637673375,-0.07514480368858523,-0.5459800162270982,-1.7510542629317787,-1.5679468184368843,-0.5519158087762488,13.12775,-1.553305201524325,LB
-0.76015902777139,-0.9606826068303445,-1.514711219396467,-0.016048711165409377,-0.8515867877969053,0.6653963974231453,-1.129574198028296,0.7756180313944174,-1.4386878661168059,-1.113927087219074,31.68538,-1.4496292809371745,1.7897410975848331,-0.5755616331223502,-1.597583022663832,-0.5147773566398225,-0.6024158717728834,-0.45423648537974237,-0.5455704232541345,-1.750407332229998,-1.5687352179751208,-0.5115908226123029,13.11304,-1.5890465099863547,LB
-0.76015902777139,-0.9885271466847043,-1.5118936651739068,0.05180773750718965,-0.6780000809074878,0.5809594702175067,-1.1293520695432873,0.7762296378725296,-1.43847598485947,-1.1254873206962739,31.59693,-1.452045885793298,1.8125130620356609,-0.5005589052759134,-1.496617820677244,-0.25847664343723065,-0.9713241661899054,0.07649138727624895,-0.5443167808640421,-1.7501264519533146,-1.5697363602458931,-0.4789285729851527,13.07196,-1.6198713556462894,LB
-0.7182696190435048,-1.0035206303985804,-1.5133021537787132,-0.3553300656109315,-0.7474348546226628,0.5809594702175067,-1.1300125785833672,0.7759941902761721,-1.4382230059444612,-1.1531083903265036,31.32817,-1.4508417072643076,1.783235964147212,-0.5963953449236847,-1.4741800879977356,-0.09828840914682645,-1.1132120003307615,-0.22678159058533115,-0.5446190683297117,-1.7495574428766785,-1.5692107605537366,-0.5634165080190813,13.28967,-1.5327136041394842,LB
-0.7308369564002426,-0.9885271466847043,-1.5161197080012734,-0.25354545927084343,-0.2961094621898814,-0.09396491195718258,-1.1303498848013447,0.7764999149949757,-1.4383262067292832,-1.1415469829831915,31.44653,-1.4520495514813618,1.8222720946651438,-0.5130587910163061,-1.266639102086884,-0.25847664343723065,-0.8010589139192853,-0.45423648537974237,-0.5449344418328562,-1.7488878605396814,-1.5690480749347375,-0.5570251790591312,13.22837,-1.5422713079074162,LB
-0.7308369564002426,-0.9799591910410697,-1.4766756799242735,-0.016048711165409377,-0.4002615545430879,0.15877549786249992,-1.1300302078282098,0.7767423284965507,-1.4376394192055042,-1.11829621689029,31.38957,-1.4186569660633002,1.854804424218506,-0.6255611760839216,-1.2890768347663926,0.1580123250404042,-0.48890567880940206,0.1523100662753297,-0.5467455494193779,-1.7487329233548012,-1.5673085902392656,-0.651908585587556,12.82796,-1.4858758516432178,LB
-0.7434034358596929,-1.0013782028251872,-1.4710405714791532,0.18752021261658802,-0.4349788049615634,-0.22119003854273697,-1.1295824250092226,0.7769318011184718,-1.4371617730952166,-1.1195135160490897,31.38322,-1.419268219547955,1.7864885308660223,-0.4838929598560697,-1.4236963382366423,0.6706142550769205,-0.432150489391157,-0.3405087400165809,-0.5446753382908539,-1.7475106411185237,-1.568172075447809,-0.4818749677223646,13.39674,-1.5956518340563397,LB
-0.7015140271318077,-0.9885271466847043,-1.4710405714791532,-0.5588988338323712,-0.26139221859336154,-0.5589371113451546,-1.130000825753473,0.7767437216775946,-1.4367170051110676,-1.1333674839103722,31.19321,-1.412110963603197,1.7572101005045222,-0.5922275785421939,-1.446134070916151,0.2541254125071188,-0.40377301549949024,-0.037235762155000754,-0.5446687952721162,-1.7460056664747456,-1.567158418898648,-0.5645019524545002,13.55467,-1.514111110025714,LB
-0.735025210955201,-0.8750056823689032,-1.489353808406373,-0.18568927727348628,-0.5391307608756579,-0.13675327725539493,-1.1289219159691417,0.7778596596934665,-1.4360594425883006,-1.073422837002708,31.74996,-1.4113549154400182,1.7669704656070566,-0.5963953449236847,-1.52466383775883,-0.0021758158683570835,-0.40377301549949024,0.7209470549563943,-0.5445484037273474,-1.744850433078709,-1.5661322480711055,-0.5469040361704272,13.37836,-1.5410453197277616,LB
-0.7119863793137787,-0.9863847191113111,-1.4189178379071063,-0.219617479386849,-0.2961094621898814,-0.39006353346437167,-1.1284541533393337,0.7774932530790166,-1.43473518472995,-1.1015756679819602,31.14676,-1.3710121854528095,1.7767294982365396,-0.6880623114879257,-1.491007238739567,-0.0021758158683570835,-0.6307934757756564,-0.3405087400165809,-0.546181541204211,-1.7440893381354377,-1.5645554489946363,-0.6351916861720852,13.26304,-1.4723899816669965,LB
-0.8062375489515212,-1.0056621806470045,-1.4921713626289332,-0.32140186349756883,-0.5044136014165903,-0.22119003854273697,-1.1280839391976516,0.7786370547157592,-1.434817380045295,-1.1020252587030983,31.75401,-1.444400176914026,1.77998206495535,-0.5755616331223502,-1.2610308176848066,-0.5147773566398225,-0.6307934757756564,0.4934922594839685,-0.5476955957400532,-1.742785510012381,-1.5624530502260072,-0.6071494995549856,13.57138,-1.4762555974579545,LB
-0.764348140223636,-0.9585401792569511,-1.4696320828743468,-0.219617479386849,-0.8515867877969053,0.07433870892210846,-1.12738111996995,0.7790717272013427,-1.4341342456466424,-1.0890516904262897,31.61948,-1.4132794016735637,1.8125130620356609,-0.5963953449236847,-1.2890768347663926,-0.32255155942989283,-1.0280791883224425,0.4934922594839685,-0.5492633030295427,-1.7423750623822598,-1.5606509941386133,-0.6212220294771215,13.23095,-1.486588926400772,LB
-0.76015902777139,-0.9992366525767632,-1.5245723706689538,-0.1178330952761292,-0.4696961918191509,0.03212032827843743,-1.1275468348714648,0.7797752836283278,-1.4345022980031357,-1.1365639213350687,31.59149,-1.4641142473216593,1.806006596124988,-0.46305924805473475,-1.552709854840416,-0.16236345104732178,-1.3969874827394646,0.6830380879142989,-0.5468829528128639,-1.7425182207168277,-1.5621777361015456,-0.43029327650823773,13.09453,-1.6601162941560335,LB
-0.7434034358596929,-0.9328371896510154,-1.4499097803293732,0.2893046411731815,-0.22667484765367044,0.3698674287339045,-1.1262234662253243,0.7805262082107938,-1.4332264440527123,-1.077259031458789,31.53952,-1.390400926044773,1.8027540294061781,-0.5922275785421939,-1.199328201583958,-0.22643897559451096,-0.8578139360518224,0.0006732048870947534,-0.5489400779039136,-1.7418857870615856,-1.5599627088274577,-0.6430417047378351,13.42228,-1.4551385765675438,LB
-0.7538757880416649,-1.0035206303985804,-1.50485006812398,-0.15176107516012363,-0.6085655345908328,-0.09396491195718258,-1.126529039802586,0.7806571672288861,-1.4333524768695758,-1.132005799219719,31.504,-1.4481437608492806,1.838538925678351,-0.5338925028176407,-1.4685718035956594,-0.29051410143356177,-0.3186403466133881,-0.07514480368858523,-0.5484388826686261,-1.7417145406993493,-1.5608637368711529,-0.5187035830499857,12.84684,-1.6003306052725788,LB
-0.779009604857853,-0.9499722236133165,-1.5104851765691003,0.08573578405999456,-0.018370867605925476,0.15877549786249992,-1.1257980137831363,0.7823331640242595,-1.4333223385872818,-1.0979002931833097,31.81059,-1.4466142525046202,1.8710699227586616,-0.5630600406799176,-1.5022261050793213,-0.16236345104732178,-0.2902627481868054,-0.3025996984829964,-0.5482138028240584,-1.7421539824225478,-1.562027564760928,-0.5380239664454278,12.50111,-1.605747471413308,LB
-0.7434034358596929,-0.943546695543075,-1.4823102113564464,0.22144853917839696,-0.3308268263076169,-0.09396491195718258,-1.1249811921054567,0.7830436863564625,-1.4328538252898106,-1.0981608914603143,31.57695,-1.418456269641802,1.8287785605758162,-0.5505601549395248,-1.4797883723998126,-0.32255155942989283,-0.2335075587685604,0.03858242023415347,-0.5479507734708133,-1.7418015229785806,-1.5625531644530843,-0.5285503973328974,12.91056,-1.5876829108885708,LB
-0.739214323407447,-0.9799591910410697,-1.5006240252966137,-0.049976691049403776,-0.6432826940499003,0.03212032827843743,-1.1249494594647411,0.783202508995426,-1.4327433182547344,-1.1260308207064225,31.48516,-1.4390161975701796,1.7995014626873673,-0.5047266716574043,-1.446134070916151,0.02986222025477464,-0.40377301549949024,-0.3025996984829964,-0.5467075999107008,-1.7409797216529292,-1.5634667067751682,-0.4951311062647626,13.24057,-1.5947511080467947,LB
-0.7475925483119388,-1.0185132367874885,-1.4794932341468336,0.01787971317732159,-0.6780000809074878,0.32764896513108527,-1.124937706634846,0.7830158227355918,-1.4323022033957116,-1.129574722500458,31.37339,-1.4294936564021934,1.783235964147212,-0.5255603834587388,-1.3507771533316402,-0.25847664343723065,-0.6307934757756564,-0.3405087400165809,-0.5466094546296393,-1.7399069402090803,-1.5633165354345506,-0.5382402639999951,13.47777,-1.5418459650695762,LB
-0.7559699153191441,-1.0035206303985804,-1.489353808406373,-0.15176107516012363,-0.3308268263076169,0.7076145844954704,-1.124935356068867,0.7834518884022188,-1.4318117713474812,-1.123488226706461,31.48317,-1.435875619321436,1.7214265367054007,-0.5255603834587388,-1.48539895433749,-0.32255155942989283,-0.1483749140459494,-0.22678159058533115,-0.545648939478984,-1.737788559283642,-1.563354078269706,-0.4917864074941407,13.87637,-1.5544436191197224,LB
-0.7119863793137787,-0.9221276837589566,-1.50485006812398,-0.28747388361357434,-0.5738481477332453,0.7498330480982897,-1.1248519109766153,0.783754208688666,-1.4311816072631625,-1.114163034307713,31.5168,-1.4293415303475416,1.7279330026160733,-0.48805901953552067,-1.6031913070659092,-0.6749654860070322,-0.5740382677701104,-0.6437824627930507,-0.5437671672900979,-1.7363152969291666,-1.5650059630164856,-0.42804325438572977,13.71187,-1.6200590068982768,LB
-0.7496866755894189,-0.9671081349005859,-1.496397982469247,-0.694611642285822,-0.19195748353593492,0.7498330480982897,-1.1250646371977087,0.7845455355213939,-1.4306692564641728,-1.1130220364462344,31.57113,-1.4346402824439028,1.8450440591159718,-0.5213926170772479,-1.5583181392424919,-0.3545896469653898,-0.3470178260812452,-0.1888725490517467,-0.5427058896508857,-1.7365372829542876,-1.566682876320032,-0.4833916883793893,12.7022,-1.6402252614452808,LB
-0.7119863793137787,-1.012087708717247,-1.4611794202066664,-0.4231864698376569,-0.5391307608756579,0.5387410066146874,-1.1254548311502122,0.7838809881636274,-1.4297888533086895,-1.1344321804745297,31.16101,-1.4094615875550165,1.7767294982365396,-0.49639284559646246,-1.446134070916151,0.12597480409015652,-0.0632423250852411,-0.49214555174382313,-0.5412782029623777,-1.7351972122148849,-1.5675463615285754,-0.48504821111436613,13.45003,-1.5893342419060688,LB
-0.7434034358596929,-0.9713921127224032,-1.4823102113564464,-0.15176107516012363,-0.4349788049615634,0.24321231445594083,-1.12519509360954,0.7842376425107729,-1.429322166573781,-1.1111262426743342,31.49481,-1.4232308283450263,1.8092604953168505,-0.5213926170772479,-1.3002934035705458,-0.034213346261692236,-0.46052809339392997,-0.264690649996873,-0.5413698052247016,-1.7344361172716136,-1.5672460188473436,-0.5527110979555409,13.30271,-1.541070339894694,LB
-0.7538757880416649,-0.943546695543075,-1.4823102113564464,-0.18568927727348628,-0.053088118024400936,-0.010098052365233588,-1.124607452114806,0.7853201441816001,-1.428918496247305,-1.0931942639377683,31.63384,-1.41970626927159,1.7897410975848331,-0.5213926170772479,-1.6536750568270024,-0.32255155942989283,0.47593140747541,0.11440109923323417,-0.5396895580129287,-1.733404108771154,-1.5687227036967357,-0.4501768248780711,13.08969,-1.6433903125621476,LB
-0.6868525624975906,-0.9563986290085271,-1.4611794202066664,-0.219617479386849,-0.15724023311745947,-0.09396491195718258,-1.1246039262658374,0.7850387216108058,-1.428107502469225,-1.1204960419853625,31.18633,-1.3968149637345744,1.750704967066901,-0.5130587910163061,-1.2778579684266382,0.09393726215526998,-0.03486472108246816,-0.37841840231257345,-0.5395246739407451,-1.7313573070129997,-1.5678842470449625,-0.5441290968118355,13.86354,-1.5106333068222004,LB
-0.7811037321353331,-0.9863847191113111,-1.472449637096907,-0.1178330952761292,-0.08780550488198846,0.41208589233672377,-1.1240209859030617,0.7860724619451092,-1.427574146200759,-1.0954621732673733,31.63402,-1.4223024928428443,1.5685305839333294,-0.4713913674136366,-1.6144101734056635,0.3182005383461695,0.731329471754349,-0.037235762155000754,-0.5360961321223295,-1.7265533482163038,-1.5676339614772676,-0.3898469526917298,15.10466,-1.5519666225934772,LB
-0.7811037321353331,-1.012087708717247,-1.5358420105462467,-0.7624676020538108,0.6412583456956369,-0.4322819970671909,-1.1248001985250788,0.7878989222931846,-1.4285687095164445,-1.1378798252473297,31.68993,-1.477807425084344,1.8775750561962825,-0.5380602691991315,-1.3115122699103001,0.4143135418743286,-0.11999734721777823,-0.45423648537974237,-0.5363015829106851,-1.7268958409407758,-1.5679593327152694,-0.5727067517652412,12.65966,-1.565540063153959,LB
-0.799954309221796,-0.9863847191113111,-1.59500834116822,-0.15176107516012363,0.2246503856001469,-0.22119003854273697,-1.125210372288403,0.7901196528765805,-1.4303532611407315,-1.144968802701514,31.98997,-1.5238319715705915,1.7995014626873673,-0.5838937524812521,-1.5022261050793213,0.12597480409015652,0.44755380347263696,0.4934922594839685,-0.5362296097045732,-1.7259743724201726,-1.5674337330231132,-0.5468618317695357,13.12371,-1.5579339324067023,LB
-0.6994198998543284,-0.96924968514901,-1.50485006812398,-0.28747388361357434,-0.19195748353593492,-1.0655581215179974,-1.1256816607671798,0.7900527801864903,-1.4307651509987422,-1.1421198296461559,31.30878,-1.4359416017065862,1.815766961227523,-0.5588939810004666,-1.4293069201743194,1.0871030976467222,0.532686429607947,-0.15096350751816223,-0.5353109698738373,-1.7250973011045931,-1.567421218744728,-0.548506484516762,13.07535,-1.5596853440919272,LB
-0.8565051825838992,-1.0206556643608817,-1.4132833064749335,0.35716102317697,-1.0946080410029777,-0.8544660800343954,-1.1237494955324945,0.7905780094399036,-1.4301468595710858,-1.0475954347925795,31.81283,-1.3898116666885008,1.8515505250266444,-0.542226328878583,-1.4685718035956594,1.4715544822201927,0.07864569492862371,0.30394692766356457,-0.5336398828882966,-1.7251987804303626,-1.5678967613233474,-0.5274583584598396,12.72477,-1.6006433573592256,LB
-0.7266478439479966,-0.9992366525767632,-1.444274671884253,0.6964424220683658,-1.6848027079878853,-1.0655581215179974,-1.122905642346057,0.7889730648777504,-1.4297541486199885,-1.1132497664720857,31.24257,-1.3953752647474793,1.8352850264864886,-0.5505601549395248,-1.5863641563240778,1.5356300277520207,-0.37539541149671724,0.6830380879142989,-0.5314767608937008,-1.7255938249485367,-1.5686100751912733,-0.4991603076623373,12.73985,-1.6241623142750874,LB
-0.7622540129461567,-0.9756752132192523,-1.548520716041294,1.0357239987432563,-0.9557387209711479,-0.5167189242728295,-1.1223168255683338,0.7894342078031606,-1.4307733705302768,-1.1361753716517875,31.72239,-1.4798647925102062,1.7734755990446776,-0.5755616331223502,-1.4293069201743194,0.7987649264477993,-0.6591710797784293,0.11440109923323417,-0.5310907227881918,-1.724916088022862,-1.5677465899827299,-0.5572731299143665,13.4409,-1.5279472623389811,LB
-0.7517816607641847,-0.9799591910410697,-1.4738581257017134,0.9339396146325364,-0.9557387209711479,0.07433870892210846,-1.1211920797474129,0.7892182647414129,-1.4302829384820464,-1.1070106680834464,31.49729,-1.4188640774389096,1.7669704656070566,-0.6130612903435289,-1.5639264236445691,-0.9953421644342293,-1.7091405691509407,1.0621297447749598,-0.5322108875960411,-1.7252178078039446,-1.5664826478658775,-0.5498530686826947,13.32364,-1.5421462070727603,LB
-0.7685372526758819,-0.9499722236133165,-1.4921713626289332,0.7982270284084539,-1.1293254278605651,-0.1789716302460165,-1.1199368775146614,0.7894564986998573,-1.4301569056651828,-1.0940312304760744,31.71521,-1.4305337953903234,1.8092604953168505,-0.5380602691991315,-1.5134449714190756,-1.1555294544158847,-1.7375183590267225,0.7209470549563943,-0.5325118664579628,-1.7259480965233216,-1.566670362041647,-0.5058668507414433,13.05683,-1.5976909776612787,LB
-0.764348140223636,-0.9735336629708273,-1.4555448887744935,0.5607298358442834,-0.7821520140817302,-0.09396491195718258,-1.1188109564107513,0.789562380459166,-1.4294746845478121,-1.0891573383764268,31.54554,-1.404500995182549,1.7572101005045222,-0.5338925028176407,-1.4236963382366423,-0.8351540350670195,-1.5672527350100847,0.07649138727624895,-0.5328848185259963,-1.7255856703598587,-1.5662448765765677,-0.5210749428250562,13.62247,-1.546812468205533,LB
-0.7454975631371731,-0.9649657073271926,-1.5062585567287865,0.2553765946203766,-0.4696961918191509,-0.09396491195718258,-1.1185206615123526,0.7899984461257925,-1.4295486603316236,-1.118819761176524,31.57537,-1.4417737114162443,1.770223032325867,-0.5130587910163061,-1.3059039855082228,-0.4827396887971028,-1.5672527350100847,-0.49214555174382313,-0.533276091046495,-1.7251706924026944,-1.565919505338566,-0.5386583513463229,13.65509,-1.5295235328556813,LB
-0.7727263651281278,-0.9756752132192523,-1.4949889168514934,0.05180773750718965,-1.0598908815439103,-0.6011555749479739,-1.1181257664278923,0.7901516960405816,-1.4297852001835631,-1.1053707771240995,31.6677,-1.4376745557387935,1.7669704656070566,-0.46722530773418564,-1.3676043040734704,-0.25847664343723065,-0.7159261019109664,0.3797651100527188,-0.5323064156696072,-1.7241685840607206,-1.5659445338953362,-0.4808185388125582,13.64747,-1.5795388465522846,LB
-0.7852928445875791,-0.9114181778668977,-1.517528773619027,0.15359216606378312,-0.5044136014165903,-0.1789716302460165,-1.117156157961581,0.7916577247486435,-1.4299888619093644,-1.0802535639121138,31.97487,-1.4465656821377737,1.8027540294061781,-0.5838937524812521,-1.4405257865140737,-0.034213346261692236,-0.37539541149671724,-0.1888725490517467,-0.5328193883386222,-1.7238188428129793,-1.565606648378949,-0.5649754330769974,13.16166,-1.5397943113811745,LB
-0.7852928445875791,-1.0099461584688219,-1.4654060400469802,-0.18568927727348628,-0.08780550488198846,-1.0233396579151783,-1.1168635124972033,0.7923779993481515,-1.430061924411894,-1.1009887349256446,31.57265,-1.4211432189926376,1.7572101005045222,-0.5255603834587388,-1.5639264236445691,0.4463509998706597,-0.3470178260812452,-0.7954190758763224,-0.5310867969769495,-1.7228982803577841,-1.5668580762174162,-0.47449579200405634,13.47138,-1.5969278625698593,LB
-0.7329310836777219,-0.982101618614462,-1.4541358231567396,-0.4231864698376569,-0.4349788049615634,-1.3188683500739249,-1.116908173250803,0.7921550903811857,-1.4299075798753003,-1.1072207901176077,31.3473,-1.401092821705142,1.8125130620356609,-0.5672278070614084,-1.5863641563240778,0.7987649264477993,-0.5740382677701104,-0.6816914298351463,-0.5297808104369578,-1.7231401998218956,-1.568109504055887,-0.5105132915020514,12.92993,-1.601994446373543,LB
-0.7559699153191441,-0.9606826068303445,-1.4978064710740535,-0.016048711165409377,-0.3308268263076169,-1.36108653714625,-1.1166460851441522,0.7928084922906039,-1.4304610283319632,-1.1077302480104898,31.6272,-1.4354311546436882,1.734439468526746,-0.5797276928018011,-1.5639264236445691,0.4143135418743286,-0.6024158717728834,-0.3025996984829964,-0.5289930309809707,-1.7221217823025659,-1.5679968755504248,-0.5175060331747002,13.63346,-1.5491143235632572,LB
-0.7161754917660247,-0.9778176407926447,-1.4752666143065196,-0.660683217943091,0.6065411862365695,-0.8544660800343954,-1.1172055198471385,0.7934187055876727,-1.4303587408284215,-1.1235516154765433,31.31318,-1.4154146649707837,1.7929949967766947,-0.5963953449236847,-1.491007238739567,0.9269149682795123,0.3907985954670911,-0.45423648537974237,-0.5286475595916338,-1.7212601140989339,-1.5678592184881923,-0.5598555116938921,13.18476,-1.542696650745256,LB
-0.7371201961299677,-0.982101618614462,-1.50485006812398,-0.5588988338323712,0.7106931194108118,-1.3188683500739249,-1.1177649545501256,0.7945067799826739,-1.4309861650688946,-1.130081832661115,31.47626,-1.4425581686619182,1.806006596124988,-0.5838937524812521,-1.4124797694324878,0.8308023844441303,0.561064219483729,-0.6437824627930507,-0.5286109186867041,-1.720297872634941,-1.5676589900340379,-0.5735007220570055,13.16316,-1.5323257915520399,LB
-0.7831987173100988,-0.9970942250033699,-1.4879453198015666,-0.49104265183501405,1.439756879029029,-1.0655581215179974,-1.1178389973784622,0.796760946911115,-1.4314026213333149,-1.1069331929200132,31.6463,-1.4368479430803844,1.838538925678351,-0.5588939810004666,-1.3115122699103001,0.3182005383461695,0.8448395160194233,-0.3025996984829964,-0.5292874668241548,-1.719450701477847,-1.5672209902905736,-0.5857123016773478,12.99855,-1.532488422637098,LB
-0.799954309221796,-0.9778176407926447,-1.45977093160186,-0.9321086126206243,0.8842798263002293,-0.981121194312359,-1.1176439004022103,0.7987155799151953,-1.4312930275795193,-1.0764713672972133,31.73409,-1.412886256628711,1.8450440591159718,-0.5588939810004666,-1.446134070916151,0.4463509998706597,0.5043088256051741,0.4934922594839685,-0.5291003364882643,-1.7192713005269333,-1.567158418898648,-0.5473682845802293,12.79535,-1.5788507919616594,LB
-0.7182696190435048,-0.9799591910410697,-1.5414771189913672,-0.7963960263965417,0.8148450525850544,-0.5167189242728295,-1.118884999239088,0.7997284225338459,-1.4320802760442775,-1.1559538417835242,31.4558,-1.469757574096028,1.8450440591159718,-0.5380602691991315,-1.3956503211550564,-0.5468152343289308,0.16377832106393383,-0.037235762155000754,-0.5297337007020482,-1.7191761636590244,-1.5674337330231132,-0.5440499635601643,12.86367,-1.5773120516953545,LB
-0.7852928445875791,-0.982101618614462,-1.4766756799242735,-0.7285396221698163,1.231453012680544,-0.4322819970671909,-1.1188520913153825,0.80177918502993,-1.431941457289471,-1.0935440760393327,31.67815,-1.4254733130181143,1.7962475634955055,-0.542226328878583,-1.446134070916151,-0.45070223080077165,1.0718601621685984,0.22812824866448386,-0.5298985847742314,-1.7178116291535879,-1.5673211045176507,-0.5269031068106156,13.24315,-1.567253944588785,LB
-0.7496866755894189,-0.9799591910410697,-1.4541358231567396,-1.033892774501976,1.3703225601108942,-0.22119003854273697,-1.1190871479132762,0.803165400168248,-1.4312446236715937,-1.0983463623061096,31.44439,-1.402722220049544,1.7734755990446776,-0.5005589052759134,-1.52466383775883,-0.16236345104732178,1.2137479963094542,0.0006732048870947534,-0.5286174617054418,-1.7160429894758908,-1.5682096182829643,-0.4661683361532254,13.38852,-1.6096506174546614,LB
-0.7538757880416649,-1.0056621806470045,-1.4527273345519334,-0.9999650168473496,0.7106931194108118,-0.2634084468394574,-1.119544332996179,0.803874529319408,-1.43066195021392,-1.107598775005875,31.38903,-1.4065107086635797,1.7897410975848331,-0.5838937524812521,-1.384431454815302,0.12597480409015652,1.3556356445773015,-0.7575096122243005,-0.5293542056152769,-1.7143767351893722,-1.5677340757043448,-0.579501660308713,13.33938,-1.5155372595408259,LB
-0.7706313799533611,-1.0035206303985804,-1.4301874777843995,-0.7285396221698163,0.5718237993789819,-0.3478452357798489,-1.1193316067750854,0.8045307175909132,-1.4297952462776615,-1.087731091049579,31.43824,-1.3900645991649105,1.7897410975848331,-0.6672285996865908,-1.709767090990174,-0.1303259300970741,1.1286151843011352,0.6830380879142989,-0.5298580180580593,-1.7135649005832159,-1.5671459046202665,-0.5569803368831842,12.93172,-1.5617119776133999,LB
-0.7454975631371731,-0.9863847191113111,-1.4499097803293732,-0.49104265183501405,0.8495622120441217,-0.22119003854273697,-1.1192599145127278,0.8053499080445123,-1.4290901931282496,-1.1012223342820584,31.39401,-1.3999289657448541,1.7864885308660223,-0.5547262146189758,-1.5134449714190756,-0.4827396887971028,0.532686429607947,-0.037235762155000754,-0.529884190133009,-1.7126244046890309,-1.5673711616311876,-0.5172040079308229,13.24741,-1.5753229484242808,LB
-0.7098922520362995,-0.9906686969331284,-1.5090761109513466,-0.694611642285822,0.3288023187743894,0.15877549786249992,-1.1203059163733544,0.8054543966227775,-1.429098412659784,-1.1491090284807666,31.31163,-1.444256298657518,1.734439468526746,-0.5755616331223502,-1.5134449714190756,-0.06625086721193992,0.6178190557432571,-0.49214555174382313,-0.529746786739523,-1.7108349255069346,-1.5671459046202665,-0.5281758332749887,13.69299,-1.5359286955902163,LB
-0.7413093085822137,-0.9885271466847043,-1.4851277655790065,-0.32140186349756883,0.4329544793471519,0.1165571172188289,-1.120488085236722,0.8060060963160175,-1.4288061626496662,-1.121443351938257,31.43896,-1.4281895878734614,1.783235964147212,-0.5255603834587388,-1.5302721221609072,-0.7390410315388604,0.6178190557432571,-0.11305384522216969,-0.5294144013876614,-1.7098319110995521,-1.567909275601729,-0.48719008445959094,13.27826,-1.599054576759059,LB
-0.7036081544092869,-0.9328371896510154,-1.468223017256593,-0.4231864698376569,0.18993299874255945,0.623177933820326,-1.1204163929743645,0.8061133712563697,-1.427720271205818,-1.105083179926505,31.36181,-1.4004220007894483,1.8255259938570059,-0.5380602691991315,-1.2834662528287142,-0.8992291609060702,0.561064219483729,-0.49214555174382313,-0.5309088268672916,-1.7091423953235647,-1.5675839043637272,-0.5742261101973215,13.16205,-1.5317753478795404,LB
-0.7664431253984026,-0.9371211674728327,-1.5076676223465402,-1.2713901892955146,0.05106390610924955,-0.052316460661954035,-1.1207572250413096,0.8072251297291111,-1.4277878540206586,-1.0965362607604314,31.7748,-1.4406648407769167,1.8255259938570059,-0.4755591337951275,-1.5078343894813986,-0.6749654860070322,0.30566596933178103,-0.37841840231257345,-0.5298737213030291,-1.708972961092146,-1.5694860746782018,-0.45591398562420865,12.96075,-1.6470057266837903,LB
-0.6784743375930988,-0.9478306733648924,-1.5231633050511997,-0.7963960263965417,0.18993299874255945,-0.010098052365233588,-1.1218960742581037,0.8071220343318894,-1.4279129735562401,-1.1512395954751942,31.2955,-1.4447282559957446,1.7929949967766947,-0.5338925028176407,-1.5695370055822462,-0.5788529021716504,0.7597068898841132,0.03858242023415347,-0.5293398109740546,-1.7081511597664945,-1.570324531329975,-0.48451801832817126,13.14326,-1.6103386720452866,LB
-0.799954309221796,-1.012087708717247,-1.48090172275164,-1.2374617649527835,0.155215839283492,-0.3056268551361779,-1.1223791155667753,0.8080554656310581,-1.4279988219967126,-1.1025523245876705,31.67772,-1.435680421432034,1.7734755990446776,-0.47972519347457887,-1.5863641563240778,-0.194401496613541,-0.31634169786408656,-0.3405087400165809,-0.5274070032390161,-1.7077688001640419,-1.5720640160254469,-0.4312652966162618,13.33475,-1.643127600809366,LB
-0.7224587314957508,-0.9563986290085271,-1.4485012917245668,-1.2374617649527835,0.155215839283492,0.41208589233672377,-1.1227505049914472,0.80806800426045,-1.4268407813316166,-1.0974154864787933,31.35359,-1.390838059346392,1.7929949967766947,-0.5713938667408593,-1.4797883723998126,-0.194401496613541,1.2421254144392184,-0.4163274438461579,-0.5276935874597161,-1.7065700756283897,-1.5720890445822135,-0.5417959847750726,13.21464,-1.5563076215561369,LB
-0.7622540129461567,-1.0056621806470045,-1.4738581257017134,-0.7963960263965417,-0.19195748353593492,-0.3478452357798489,-1.1230478515877826,0.8081097996917564,-1.4267375805467932,-1.113969346399129,31.47856,-1.424491825039007,1.7995014626873673,-0.5797276928018011,-1.4797883723998126,0.5424635837060416,-0.0632423250852411,-0.3025996984829964,-0.5274357925214612,-1.706359868453581,-1.5719889303551362,-0.549729093255077,13.15092,-1.5536679939448368,LB
-0.7413093085822137,-0.9735336629708273,-1.4907628740241268,-0.32140186349756883,-0.5738481477332453,-0.3478452357798489,-1.1231195438501396,0.8078381293882668,-1.4267668055478053,-1.1172432589872594,31.49486,-1.4301855550242535,1.8222720946651438,-0.5380602691991315,-1.5863641563240778,0.06189974120502231,0.44755380347263696,-0.7196003968772418,-0.5264111557871787,-1.7063200015756004,-1.5736533293803012,-0.48695927914221787,12.8634,-1.6266643309682651,LB
-0.7161754917660247,-1.0056621806470045,-1.5964168297730266,-0.6267552380590965,-0.4696961918191509,0.1165571172188289,-1.1249623875776251,0.8076430840421718,-1.4283239501329703,-1.1953828306407193,31.47965,-1.5186551036023546,1.7962475634955055,-0.5213926170772479,-1.4068691874948107,0.12597480409015652,-0.0632423250852411,0.07649138727624895,-0.5260094144367006,-1.7058542839555508,-1.5735532151532239,-0.5202374492448727,13.3013,-1.569117947025203,LB
-0.6868525624975906,-1.0099461584688219,-1.5133021537787132,-0.25354545927084343,-0.8168694009393177,-0.09396491195718258,-1.125991935476399,0.8061872098516772,-1.4285513571720934,-1.1710978885025884,31.13808,-1.4482894719498198,1.8320324597676783,-0.5213926170772479,-1.496617820677244,-0.034213346261692236,0.050267905052841955,-0.5679635354890068,-0.5253420265254819,-1.7060907670272103,-1.5748171572700762,-0.4992104253883955,12.88353,-1.614779751675673,LB
-0.7098922520362995,-0.9306956394025913,-1.4780841685290798,0.32323297662416517,-0.4002615545430879,0.07433870892210846,-1.125252682476024,0.8059378304448839,-1.4279093204311137,-1.1059823613687805,31.42336,-1.408804512969563,1.8125130620356609,-0.5630600406799176,-1.4124797694324878,-0.4186647728044406,0.135400531188152,0.0006732048870947534,-0.5261808415276213,-1.7058162292083872,-1.5743541289698417,-0.5565094940357425,13.1198,-1.5498524184877438,LB
-0.7475925483119388,-1.012087708717247,-1.52879841349632,-0.0839046709333982,-0.08780550488198846,-0.13675327725539493,-1.125733373218716,0.806163525773937,-1.4285623165474726,-1.1505528837993042,31.49406,-1.468239062815559,1.8190195279463333,-0.5338925028176407,-1.2217659342634666,-0.1303259300970741,0.44755380347263696,-0.22678159058533115,-0.5273612021078544,-1.7050098309946833,-1.573302929585529,-0.5879359460492993,13.29282,-1.5113338714962883,LB
-0.7287419712254759,-0.9585401792569511,-1.4992149596788595,-0.15176107516012363,-0.5391307608756579,0.1165571172188289,-1.125653453975432,0.8059643008847116,-1.4283769204473042,-1.120385698570775,31.4885,-1.4329888899711183,1.770223032325867,-0.5755616331223502,-1.4797883723998126,-0.25847664343723065,-0.40377301549949024,0.4934922594839685,-0.5277315369683931,-1.704609350084057,-1.5723643587066787,-0.5424026730378826,13.41388,-1.5425465297436676,LB
-0.779009604857853,-0.9885271466847043,-1.4794932341468336,-0.25354545927084343,-0.5738481477332453,0.20099385085312152,-1.125263260022929,0.8061342689720229,-1.4280563587174548,-1.10085726192103,31.63122,-1.428090614295736,1.8255259938570059,-0.5338925028176407,-1.519053255821153,-0.6749654860070322,0.334043573334554,-0.5300545684469112,-0.5280181211890926,-1.7043556517696334,-1.5736533293803012,-0.5027476817380834,12.90899,-1.6100759602925014,LB
-0.7727263651281278,-0.9478306733648924,-1.5541552474734666,-0.8642524306232672,-0.19195748353593492,0.24321231445594083,-1.1262152392443978,0.8073588751092904,-1.4286901759268997,-1.1208845916686434,31.87434,-1.4810313977365404,1.8613095576561272,-0.6297289424654126,-1.5470992729027375,-0.16236345104732178,0.9867273501602793,-0.264690649996873,-0.5290349063008901,-1.7046963323632882,-1.5737909864425337,-0.5805567703309911,12.49707,-1.5689803361070773,LB
-0.7475925483119388,-0.9606826068303445,-1.472449637096907,-1.1696058051847946,-0.26139221859336154,-0.39006353346437167,-1.1264209137675547,0.8074954068515572,-1.4283577415403894,-1.0993406269035093,31.52829,-1.4139227299287784,1.8222720946651438,-0.517226557397797,-1.5807558719220005,-0.09828840914682645,1.2988806224447642,-0.6816914298351463,-0.5278048187782525,-1.7040439652690555,-1.5756556139218494,-0.4707976313759711,12.88336,-1.6392870051853405,LB
-0.774820492405607,-0.9628241570787686,-1.5823296356731733,-0.49104265183501405,-0.3655441904253524,-0.2634084468394574,-1.1269897507344564,0.8085695494361231,-1.4298308642476445,-1.1402768598493234,31.89887,-1.5067562801469474,1.8027540294061781,-0.5880615188627429,-1.6480667724249265,0.06189974120502231,1.2988806224447642,-0.7954190758763224,-0.5272224901106205,-1.7033091462226355,-1.5768069275332395,-0.509613810208059,12.93639,-1.6023572387940515,LB
-0.7329310836777219,-1.0035206303985804,-1.5062585567287865,-0.5928272581751022,-0.22667484765367044,-0.13675327725539493,-1.1276737654343267,0.8083368882018526,-1.4300190001916584,-1.1426715467190929,31.39332,-1.446841525164581,1.734439468526746,-0.5463940952600739,-1.5639264236445691,-0.32255155942989283,0.9015947240249692,-0.15096350751816223,-0.5266009033305645,-1.7015667824417895,-1.57685698464678,-0.4892765645286463,13.65736,-1.5716324738018437,LB
-0.7140805065912589,-0.984243168862887,-1.5245723706689538,-0.660683217943091,0.294085159315322,-0.3056268551361779,-1.1285775580532278,0.8085570108067313,-1.4304719877073422,-1.1517126635185848,31.38543,-1.4562376000943629,1.8125130620356609,-0.542226328878583,-1.48539895433749,-0.1303259300970741,0.9299723280277422,-0.11305384522216969,-0.5263810579009867,-1.700929818459504,-1.5771948701631668,-0.5177856373306037,13.0553,-1.5875077697200497,LB
-0.76015902777139,-0.982101618614462,-1.4921713626289332,-0.7624676020538108,0.18993299874255945,0.9609250895818919,-1.128765603331542,0.8092062331730185,-1.42987926815557,-1.1129527783455897,31.57478,-1.435006851250293,1.7181726375135387,-0.5005589052759134,-1.5022261050793213,-0.3545896469653898,-0.31634169786408656,-0.3025996984829964,-0.525328940488007,-1.6996604208219763,-1.5774201271740915,-0.46529259483473434,13.90412,-1.575072746754962,LB
-0.6994198998543284,-0.9649657073271926,-1.4428661832794465,-0.660683217943091,0.4329544793471519,-0.09396491195718258,-1.1288008618212264,0.8089930764733577,-1.4288134688999188,-1.1094382232043691,31.19123,-1.3850187795449564,1.7767294982365396,-0.6130612903435289,-1.5358804065629832,-0.16236345104732178,-0.31634169786408656,-0.4163274438461579,-0.5259832423617504,-1.6995689082157024,-1.5769696131522422,-0.5590707736148229,13.26814,-1.5378802686108912,LB
-0.7161754917660247,-0.9970942250033699,-1.5161197080012734,-0.7963960263965417,0.502389253062327,-0.010098052365233588,-1.1298045534942323,0.8092633535958038,-1.4290600548459556,-1.152520283404075,31.34148,-1.4517938697389046,1.7637165664151946,-0.4922250792149716,-1.0590981161760311,-0.25847664343723065,1.4407680848396027,-0.45423648537974237,-0.527369053730339,-1.69685977264382,-1.5749923571674604,-0.5921761694513301,14.019,-1.4588290511899809,LB
-0.7161754917660247,-0.928553211829198,-1.4485012917245668,-0.7285396221698163,1.1967358532214767,0.15877549786249992,-1.1294296382205917,0.8103207780078474,-1.4278910548054808,-1.087370714153001,31.40093,-1.3852213088104872,1.8352850264864886,-0.517226557397797,-1.491007238739567,-0.22643897559451096,1.4123908525828472,0.07649138727624895,-0.5268220573638899,-1.6963197576602609,-1.5758182995408523,-0.497631717017562,12.86333,-1.6174694196208383,LB
-0.7413093085822137,-0.9778176407926447,-1.45977093160186,-0.9999650168473496,1.0578663057911266,-0.1789716302460165,-1.1296082812349906,0.8112778933847563,-1.4273229938483125,-1.1040595686762897,31.41714,-1.4058921238027977,1.9621564480889218,-0.4297239438109675,-1.3676043040734704,0.12597480409015652,2.2637169280629394,-0.15096350751816223,-0.5254598008627559,-1.6969195729607915,-1.5784588122800192,-0.47226950985704924,11.90329,-1.700311192331916,LB
-0.7496866755894189,-0.9735336629708273,-1.5471116504235398,-0.7963960263965417,1.0578663057911266,-0.0945348769780588,-1.1303557612162922,0.812884231127953,-1.4281394673140826,-1.1405621093146936,31.65761,-1.4769047493986096,1.8743224894774722,-0.5005589052759134,-1.6368479060851722,0.28616287050344985,1.9515636557784544,-0.8712372582654767,-0.5234798833928083,-1.6968769878865846,-1.5814246962571883,-0.44716844242705034,12.37448,-1.692592470833466,LB
-0.6973249146795617,-0.9778176407926447,-1.5118936651739068,-0.9321086126206243,1.1273010795063019,-1.1077763085903227,-1.1313935360959926,0.8134888717008474,-1.4287541056166129,-1.1505564053976425,31.28674,-1.4428853313216221,1.8515505250266444,-0.41305799839112384,-1.345168868929563,1.119141185182219,1.8380547267514327,-0.37841840231257345,-0.5209163286514813,-1.695984513459058,-1.58316418095266,-0.4508270364292998,12.9462,-1.6523350222402557,LB
-0.7517816607641847,-1.0206556643608817,-1.4978064710740535,-0.18568927727348628,1.3356049458547867,-1.2344314228682864,-1.1315463228846225,0.8145644074664568,-1.4294253673586046,-1.1374889278318225,31.4277,-1.4451067382883422,1.8808289553881445,-0.40472417233018154,-1.5022261050793213,0.6706142550769205,1.7529211712510788,0.3418558947056601,-0.5177966173174725,-1.6958431672553074,-1.585717093743135,-0.4029158092051735,12.51786,-1.7215783342239155,LB
-0.7685372526758819,-1.024939642182699,-1.4780841685290798,0.22144853917839696,0.2246503856001469,-1.1077763085903227,-1.1310914883676986,0.814819359597424,-1.4297952462776615,-1.121952809831139,31.46485,-1.4319038463042044,1.7864885308660223,-0.5922275785421939,-1.390042036752979,0.4143135418743286,1.3272580405745285,0.6072199055251447,-0.5185791623584699,-1.6944913176655925,-1.5837898948718938,-0.5845714639657595,13.3562,-1.5100453328993022,LB
-0.7769154775803737,-0.9992366525767632,-1.4921713626289332,-0.1178330952761292,-0.19195748353593492,-1.7410524330411292,-1.1307283259239531,0.8151105344355228,-1.4306245056813733,-1.112942213550576,31.61489,-1.4398794671092263,1.7767294982365396,-0.5672278070614084,-1.6592833412290797,1.055065639650391,0.135400531188152,0.6451288725672403,-0.5167968440543923,-1.694363562442972,-1.583827437707049,-0.48574854039165355,13.16674,-1.6077240646009157,LB
-0.7266478439479966,-0.9735336629708273,-1.468223017256593,0.6964424220683658,-1.1640428147181527,-1.0655581215179974,-1.1297446140617688,0.8138329874186006,-1.4305185650527055,-1.1131417707897233,31.3679,-1.4102267999383542,1.8222720946651438,-0.9005671958827635,-1.496617820677244,1.119141185182219,-0.11999734721777823,-0.07514480368858523,-0.5216190488638817,-1.6952687217862195,-1.5792472118182557,-0.8162314204571662,12.70398,-1.3495534721154931,LB
-0.739214323407447,-1.0399331258965752,-1.472449637096907,0.7303706241817285,-0.3308268263076169,-0.5589371113451546,-1.129314460487624,0.813009617421871,-1.4304774673950325,-1.1399481773377873,31.25102,-1.4264960399879416,1.841791492397161,-0.5922275785421939,-1.4573529372559053,0.3502379963425006,0.419176199469864,0.1523100662753297,-0.5221372559478864,-1.6956057781182396,-1.5787341264044807,-0.5722029367296032,12.78955,-1.557683730737387,LB
-0.6826634500453448,-0.9456891231164674,-1.4428661832794465,0.45894545173356355,-0.053088118024400936,-0.010098052365233588,-1.1284471016413964,0.8121834610630544,-1.4292518439150972,-1.1083406583890585,31.15591,-1.3796201374488537,1.7929949967766947,-0.5005589052759134,-1.6312373241474938,0.02986222025477464,0.135400531188152,0.07649138727624895,-0.5202986676826676,-1.6955776900905712,-1.580198296975491,-0.4390665163434812,13.09926,-1.6522849819063905,LB
-0.7057031395840536,-0.9563986290085271,-1.5133021537787132,-0.5928272581751022,0.016346519251662025,0.20099385085312152,-1.1289936082314993,0.8121124088298343,-1.4291778681312859,-1.137301109253802,31.39864,-1.4413549065549454,1.7279330026160733,-0.5547262146189758,-1.670502207568834,-0.9633040768987324,0.36242099146431805,0.03858242023415347,-0.5199414188596033,-1.6944985661888614,-1.580523668213493,-0.4660351285129126,13.58975,-1.5961021970611122,LB
-0.6931358022273159,-0.9863847191113111,-1.4921713626289332,-0.9321086126206243,0.12049845242590447,-0.13675327725539493,-1.1299831965086313,0.8115774273091165,-1.428999778281369,-1.1468012077033327,31.1978,-1.4278550938376313,1.841791492397161,-0.5755616331223502,-1.4741800879977356,-0.0036012069061159813,0.7880844938868862,-0.264690649996873,-0.520439996887396,-1.6946507851775157,-1.5806362967189553,-0.5531344608519799,12.78324,-1.5746348938336556,LB
-0.7266478439479966,-0.9092766276184727,-1.50203251390142,-1.0678211988447068,0.25936777245773446,0.24321231445594083,-1.1300490123560414,0.8123478564261918,-1.4286280727997493,-1.099755001641268,31.62914,-1.426586765767523,1.8678160235667995,-0.48805901953552067,-1.5583181392424919,-0.1303259300970741,1.2988806224447642,-0.4163274438461579,-0.5191484049886265,-1.6948555559598721,-1.5828513239930433,-0.4576047994349097,12.52144,-1.6741526078047542,LB
-0.76015902777139,-0.94140514529465,-1.52879841349632,-0.5249708539483767,0.4676718662047394,0.03212032827843743,-1.1299996504704832,0.813721532935118,-1.428976946249329,-1.1117530871784793,31.77236,-1.457825759448046,1.8450440591159718,-0.5213926170772479,-1.384431454815302,0.3822754543388317,-0.31634169786408656,-0.6816914298351463,-0.5189076218990887,-1.6955505081283118,-1.5834520093555067,-0.5329238283752404,12.88733,-1.5854060756977828,LB
-0.7266478439479966,-0.9735336629708273,-1.4837192769742,-0.5928272581751022,0.8495622120441217,0.07433870892210846,-1.1301853451828197,0.8143763280255797,-1.4285997610800192,-1.120756640262367,31.40043,-1.4227533724747035,1.783235964147212,-0.4172240580705748,-1.6368479060851722,0.4783886677133794,1.4691458747153843,-1.4019650315994827,-0.5152566174436004,-1.694320977368765,-1.5869935501383725,-0.3652457436347855,13.23529,-1.7061534013104818,LB
-0.7936710694920709,-1.024939642182699,-1.48090172275164,-1.4749589575169542,0.7801278931259867,-0.4745004606700102,-1.130865834033721,0.8155270955675401,-1.428782417336343,-1.111450229721421,31.60615,-1.437110956198969,1.7929949967766947,-0.42139011775002566,-1.3676043040734704,-0.034213346261692236,-0.31634169786408656,-1.4019650315994827,-0.5137163908328085,-1.6940147272606394,-1.5887580633906144,-0.4443486608925117,13.44591,-1.6244125159444063,LB
-0.7413093085822137,-1.0013782028251872,-1.4794932341468336,-0.7963960263965417,0.3288023187743894,-0.3478452357798489,-1.1312148930815926,0.815610686430152,-1.4286673438948598,-1.1246362677646158,31.38951,-1.4258352997144244,1.8352850264864886,-0.5338925028176407,-1.597583022663832,-0.3545896469653898,0.6461966597460301,-0.3405087400165809,-0.5132466020874603,-1.6943046681914093,-1.590059548342622,-0.4818565032969745,12.73919,-1.6391493942672146,LB
-0.7266478439479966,-0.8964246941530207,-1.4752666143065196,-0.7624676020538108,0.4676718662047394,0.4965228195423624,-1.130701294415196,0.8164674927719268,-1.4276883063609613,-1.0805728554947494,31.61018,-1.4025875060131947,1.8190195279463333,-0.5505601549395248,-1.4797883723998126,-0.22643897559451096,0.7029516818785673,0.03858242023415347,-0.5135580497793625,-1.6941288915021298,-1.5899469198371599,-0.5273251508195268,12.99758,-1.5830666900896633,LB
-0.7559699153191441,-0.9799591910410697,-1.5203457508286395,-0.15176107516012363,0.6065411862365695,-0.39006353346437167,-1.130646056114691,0.8173981377090085,-1.4282344485673704,-1.127607322895687,31.61717,-1.4569624899089992,1.8450440591159718,-0.5463940952600739,-1.4124797694324878,-0.5788529021716504,0.36242099146431805,-0.264690649996873,-0.5145774520986548,-1.6944378598064815,-1.5899218912803896,-0.5463540600713144,12.83986,-1.5768616886905855,LB
-0.7559699153191441,-0.9392627177212577,-1.5006240252966137,-0.5928272581751022,0.6065411862365695,0.15877549786249992,-1.130385143291029,0.8185851279581009,-1.4280572719987366,-1.0991140707437712,31.69667,-1.4340675186839196,1.9263722180532745,-0.48805901953552067,-1.6144101734056635,-0.3545896469653898,-0.03486472108246816,0.6072199055251447,-0.5134311152158559,-1.6966522836652378,-1.5920868614409407,-0.44867329309632437,11.94232,-1.7184508133574476,LB
-0.7413093085822137,-1.0056621806470045,-1.4428661832794465,-0.9660368147339868,0.7454105062683994,0.1165571172188289,-1.1306096223420177,0.8187704210368911,-1.4271659094678746,-1.1086529067750186,31.30036,-1.3970999709815428,1.8287785605758162,-0.5088927313368552,-1.6031913070659092,-0.034213346261692236,0.6745742637488032,-0.6437824627930507,-0.5122049535044606,-1.6967456084023294,-1.5938638889715644,-0.45823786544827655,12.8075,-1.6550747305192826,LB
-0.8376546054974353,-0.9970942250033699,-1.4907628740241268,-0.8981804105072615,0.294085159315322,-0.3478452357798489,-1.1302535115962087,0.8203405360729558,-1.4274837313538782,-1.0825261687061691,31.94518,-1.4455209610395625,1.8320324597676783,-0.5588939810004666,-1.5302721221609072,0.5104261257097106,0.6461966597460301,0.0006732048870947534,-0.511763954041558,-1.6968316846161515,-1.594014060312182,-0.521692182188089,12.82218,-1.599354818762243,LB
-0.7475925483119388,-0.943546695543075,-1.5935998525634139,-0.5588988338323712,0.3288023187743894,-0.22119003854273697,-1.130991589313594,0.8215957921931814,-1.4290125642193119,-1.149949516617411,31.83206,-1.5096824156439528,1.8775750561962825,-0.5297264431381897,-1.3339500025898088,0.02986222025477464,0.9867273501602793,-0.9091462253075722,-0.5125111667813727,-1.6970600130991331,-1.5943769743853355,-0.5589045937863139,12.6416,-1.578688160876601,LB
-0.739214323407447,-0.9756752132192523,-1.4949889168514934,-0.9999650168473496,0.12049845242590447,-0.13675327725539493,-1.1314193923217606,0.8216515194349227,-1.4289541142172877,-1.121295444808065,31.48602,-1.4337238604279283,1.8775750561962825,-0.6338950021448634,-1.4349152045763967,0.09393726215526998,0.9299723280277422,-0.9091462253075722,-0.5143706927065518,-1.6975846249707451,-1.5939640031986415,-0.618714824286683,12.4646,-1.5377176375258366,LB
-0.7559699153191441,-0.9499722236133165,-1.5231633050511997,-0.9999650168473496,0.5718237993789819,-0.052316460661954035,-1.1317778536335477,0.8227646710887081,-1.4292646298530387,-1.1150340429632863,31.71221,-1.4541939789987406,1.8743224894774722,-0.517226557397797,-1.4685718035956594,0.28616287050344985,-0.31634169786408656,-0.8712372582654767,-0.5138354737738294,-1.698858552935316,-1.5953405738209563,-0.50879214327821,12.53761,-1.628803555240931,LB
-0.7182696190435048,-0.9799591910410697,-1.514711219396467,-0.7963960263965417,-0.22667484765367044,-0.6433740385507931,-1.1325288594638179,0.8222686986372093,-1.429734056431793,-1.1429063199416196,31.40051,-1.4479870526845486,1.770223032325867,-0.6088952306640775,-1.4797883723998126,0.4463509998706597,-0.31634169786408656,-0.7575096122243005,-0.5144204196489562,-1.6985622695466853,-1.5944145172204909,-0.5707244638108856,13.38991,-1.5197531576688297,LB
-0.7496866755894189,-0.9799591910410697,-1.4780841685290798,-0.5928272581751022,-0.26139221859336154,-0.8544660800343954,-1.1324066300329128,0.8220151396872856,-1.4297532353387068,-1.1100638938424021,31.49482,-1.4220266498160359,1.9003472871417209,-0.5255603834587388,-1.345168868929563,0.4463509998706597,-0.31634169786408656,0.3797651100527188,-0.5146507339085141,-1.7000192227238045,-1.5941892602095662,-0.5548490146381823,12.42616,-1.595839485308327,LB
-0.6784743375930988,-0.9306956394025913,-1.5006240252966137,-0.8981804105072615,-0.018370867605925476,-0.0945348769780588,-1.133007199640531,0.8214383627352618,-1.4294545923596165,-1.1321067517054058,31.29902,-1.423391202197822,1.8515505250266444,-0.5630600406799176,-1.5134449714190756,0.19004986697529072,1.0434825581658251,0.2660372157065794,-0.5146664371534838,-1.7000418743590207,-1.5941517173744144,-0.5324332022148814,12.66345,-1.6002680548552508,LB
-0.8313713657677102,-0.94140514529465,-1.425961434957033,-0.8642524306232672,-0.22667484765367044,-0.1789716302460165,-1.1314946104330863,0.8224665303453913,-1.4284052321670344,-1.0284426352988758,31.93784,-1.3833069032191179,1.8027540294061781,-0.383890460528847,-1.4405257865140737,-0.5788529021716504,0.419176199469864,-0.037235762155000754,-0.5126106206661816,-1.6993541707138504,-1.5959037163482679,-0.3925097866104549,13.30188,-1.6784185462666197,LB
-0.7161754917660247,-0.9264116615807739,-1.5076676223465402,-0.694611642285822,-0.26139221859336154,-0.09396491195718258,-1.1316238915619279,0.8223132804306023,-1.4283221235704064,-1.1155458485883936,31.53292,-1.4328706715310566,1.7962475634955055,-0.5713938667408593,-1.3227311362500545,-0.4186647728044406,0.3907985954670911,-0.22678159058533115,-0.5143209657641473,-1.6985985121630314,-1.594339431550184,-0.5876220508176717,13.35857,-1.5072555842864102,LB
-0.6994198998543284,-0.943546695543075,-1.48090172275164,-0.9321086126206243,-0.053088118024400936,-0.1789716302460165,-1.131990579854642,0.8217991966255378,-1.4278673094921588,-1.1183466931331334,31.33427,-1.4120669753464308,1.854804424218506,-0.5505601549395248,-1.4124797694324878,-0.194401496613541,0.135400531188152,-0.15096350751816223,-0.5150668699002146,-1.699144869604451,-1.594176745931181,-0.551160086222792,12.74932,-1.5785255297915464,LB
-0.7119863793137787,-0.8921415936561725,-1.517528773619027,-1.1356773808420637,-0.3308268263076169,-0.2634084468394574,-1.1322691219231458,0.8218758215829323,-1.4279102337123957,-1.1063298257381198,31.63299,-1.4345376431781138,1.8678160235667995,-0.5755616331223502,-1.4293069201743194,-0.0021758158683570835,0.277288365329008,-0.8333282912233811,-0.515984201127203,-1.699854318819429,-1.5943894886637207,-0.5693488641193405,12.59764,-1.572395588893263,LB
-0.76015902777139,-0.9778176407926447,-1.4752666143065196,-0.660683217943091,-0.15724023311745947,-1.1077763085903227,-1.132101056455652,0.8218827874881497,-1.4280855837184667,-1.1027436647640294,31.55193,-1.4206281898196595,1.8222720946651438,-0.5463940952600739,-1.519053255821153,0.06189974120502231,0.419176199469864,0.03858242023415347,-0.5157054685289881,-1.6998452581653423,-1.5945146314475682,-0.5130125833673229,12.92938,-1.5998802422678098,LB
-0.7203646042182705,-0.9563986290085271,-1.5217548164463937,-1.0678211988447068,-0.018370867605925476,-0.6433740385507931,-1.1328861454926158,0.8218591034104095,-1.4286171134243704,-1.1344110508845022,31.49629,-1.449956443596877,1.8287785605758162,-0.5713938667408593,-1.7265942417320046,0.6065391292378697,0.9015947240249692,0.1523100662753297,-0.5142542269730253,-1.7000790230407758,-1.595565830831881,-0.47692782060540745,12.63764,-1.6499706164652035,LB
-0.7371201961299677,-0.9671081349005859,-1.48090172275164,-0.694611642285822,0.294085159315322,-0.6855925021536123,-1.132856763417879,0.8220109601441551,-1.4285550102972198,-1.1114244046669424,31.47034,-1.4206126106453882,1.841791492397161,-0.5630600406799176,-1.418088053834565,0.7346893809159712,0.8164620978896591,-0.264690649996873,-0.5142987195004399,-1.699922273725078,-1.5952029167587274,-0.5586263085179382,12.85148,-1.5654775127366312,LB
-0.7287419712254759,-1.0227972146093058,-1.5935998525634139,-0.9660368147339868,-0.19195748353593492,-0.8544660800343954,-1.13477600053968,0.8218145216170166,-1.4305861478675448,-1.1957678587256622,31.49134,-1.5205814226799326,1.7962475634955055,-0.5672278070614084,-1.4797883723998126,0.8308023844441303,-0.03486472108246816,-0.4163274438461579,-0.5138577200375368,-1.6997682426056064,-1.5948650312423402,-0.5386623080089064,13.18866,-1.5607361911030606,LB
-0.6994198998543284,-0.9756752132192523,-1.5062585567287865,-0.4231864698376569,-0.5044136014165903,-0.7278106892259376,-1.1352343609055726,0.820786354006887,-1.4308747447525378,-1.145791682846469,31.29279,-1.4381859192237065,1.8613095576561272,-0.5630600406799176,-1.4236963382366423,0.06189974120502231,-0.1767524994614215,-0.947055440654631,-0.5145473542124623,-1.7006643412947675,-1.5952029167587274,-0.5594532509978988,12.67045,-1.5763737954354142,LB
-0.6931358022273159,-0.9949526747549458,-1.4823102113564464,-0.3892582677242943,-0.12252286899972396,-0.4322819970671909,-1.1356269054240542,0.8197233568706696,-1.430667429901609,-1.1458867660015923,31.15226,-1.4213439154141359,1.9101067195131192,-0.5547262146189758,-1.5134449714190756,0.1580123250404042,-0.5740382677701104,-0.3405087400165809,-0.5145931553436245,-1.7027709433698937,-1.5962541161430401,-0.5323646200634331,12.14631,-1.6328943525342718,LB
-0.735025210955201,-0.9499722236133165,-1.4752666143065196,-0.1178330952761292,-0.8515867877969053,-0.2634084468394574,-1.1349475918561425,0.8189961163659437,-1.4302226619174596,-1.10167779433376,31.49752,-1.4128587639682322,1.8482979583078336,-0.6588964803276889,-1.390042036752979,0.09393726215526998,-0.7443037059137394,-0.49214555174382313,-0.5170219238989603,-1.7038518794024207,-1.5945772028394936,-0.6494937025240668,12.75579,-1.4925562362140006,LB
-0.7057031395840536,-1.0013782028251872,-1.4992149596788595,-0.4231864698376569,-0.22667484765367044,-0.1789716302460165,-1.1355117276910867,0.8181198054895598,-1.4302391009805289,-1.1512137704207155,31.23698,-1.4376012419775146,1.8320324597676783,-0.5255603834587388,-1.3732148860111488,-0.45070223080077165,-0.46052809339392997,0.11440109923323417,-0.5176906204139259,-1.7042414875281429,-1.594089145982489,-0.5381083752472101,13.01379,-1.5726958308964434,LB
-0.7119863793137787,-0.9992366525767632,-1.5133021537787132,0.08573578405999456,-0.12252286899972396,-0.010098052365233588,-1.135726804478159,0.8175486012617106,-1.4304089712989112,-1.1541355231750565,31.30656,-1.449385512680925,1.7669704656070566,-0.5963953449236847,-1.446134070916151,-0.4186647728044406,-1.1132120003307615,0.5314017231359904,-0.518961274652736,-1.7043103484992008,-1.5921369185544776,-0.5693396319066458,13.46497,-1.5159500922951994,LB
-0.6931358022273159,-0.9585401792569511,-1.4344140976247135,-0.219617479386849,-0.3308268263076169,0.03212032827843743,-1.135219082226709,0.8163825087282708,-1.429093846253376,-1.1051829585460788,31.15774,-1.3763182689252995,1.8222720946651438,-0.6047274642825866,-1.5414909885006616,-0.4827396887971028,-0.6024158717728834,0.22812824866448386,-0.5199505790858359,-1.705046979676438,-1.591523718913629,-0.5561969176916427,12.86554,-1.5666784807493568,LB
-0.7329310836777219,-0.982101618614462,-1.5344329449284932,-0.1178330952761292,-1.0598908815439103,-0.052316460661954035,-1.1354259320328557,0.8156301909647617,-1.4296409017410667,-1.1464678297273445,31.5148,-1.4660836382339877,1.8645634568479892,-0.5630600406799176,-1.676112789506511,-0.034213346261692236,-0.8010589139192853,0.4555830441369098,-0.5191863544973035,-1.7068038405038228,-1.592524861184405,-0.4881053924039173,12.38065,-1.6567260615367805,LB
-0.7161754917660247,-0.9885271466847043,-1.45977093160186,-0.18568927727348628,-0.6780000809074878,-0.1789716302460165,-1.135188524868983,0.8144487734398432,-1.4290143907818758,-1.1208705052752925,31.2494,-1.4047511783929099,1.854804424218506,-0.5630600406799176,-1.4124797694324878,0.09393726215526998,-0.37539541149671724,-0.1888725490517467,-0.5197843864099052,-1.7075676536433202,-1.5922495470599398,-0.5618918740368893,12.7407,-1.569755961281963,LB
-0.774820492405607,-0.94140514529465,-1.5118936651739068,0.391089069729775,-0.7127174677650754,-0.09396491195718258,-1.1340202935774522,0.8148416504941207,-1.4291787814125665,-1.0965796938065993,31.8164,-1.4458132996626585,1.8645634568479892,-0.5630600406799176,-1.5470992729027375,0.1580123250404042,-0.8294363320490494,-0.6816914298351463,-0.5194886419629732,-1.7092511231726035,-1.5934509177848704,-0.5244262360333175,12.51267,-1.6168314053640784,LB
-0.76015902777139,-0.9970942250033699,-1.4485012917245668,-0.0839046709333982,-0.9210215615120803,-0.4322819970671909,-1.133419723969834,0.8136727715985941,-1.4287257938968827,-1.0986151776459028,31.43909,-1.4023904752797602,1.8287785605758162,-0.542226328878583,-1.2834662528287142,0.3502379963425006,-0.7443037059137394,-0.22678159058533115,-0.5201704245154136,-1.7095256609914262,-1.5923997184005576,-0.5782645438075917,13.12956,-1.5304117487817601,LB
-0.7224587314957508,-0.94140514529465,-1.4738581257017134,-0.25354545927084343,-0.7821520140817302,-0.39006353346437167,-1.1329155275673526,0.8129998651545666,-1.4282992915383665,-1.1029397004048387,31.45138,-1.4087366977403815,1.8222720946651438,-0.5797276928018011,-1.52466383775883,-0.16236345104732178,0.135400531188152,0.07649138727624895,-0.5205355249609627,-1.7096008644203444,-1.592111889997711,-0.5397939135077995,12.90053,-1.5786131003758068,LB
-0.739214323407447,-0.9585401792569511,-1.4921713626289332,-0.5928272581751022,-0.8168694009393177,-0.13675327725539493,-1.1328226802111845,0.8125637994879396,-1.4281522532520257,-1.111957339882078,31.53068,-1.42851766695518,1.8125130620356609,-0.5547262146189758,-1.418088053834565,0.5424635837060416,-0.26188516277133334,-0.3025996984829964,-0.5204151334161937,-1.7095410641033735,-1.5916864045326318,-0.5477494430757774,13.1196,-1.557433529068068,LB
-0.7266478439479966,-0.9778176407926447,-1.4879453198015666,-0.25354545927084343,-0.2961094621898814,-0.2634084468394574,-1.1327686171936693,0.8121987860545332,-1.4280380930918217,-1.124817043145961,31.39668,-1.4269075134731144,1.9589033483808906,-0.47972519347457887,-1.3619960196713945,0.8308023844441303,-0.2902627481868054,-0.45423648537974237,-0.5194258289830934,-1.7117002179722012,-1.5934509177848704,-0.5171710357426269,11.90665,-1.6609044294143853,LB
-0.854411055306419,-0.9649657073271926,-1.5259808592737598,-0.32140186349756883,0.294085159315322,-0.6011555749479739,-1.131797833444369,0.814624314251329,-1.4289605071862599,-1.0763093737736704,32.20496,-1.4705401984976696,1.7897410975848331,-0.5338925028176407,-1.451742355318227,1.0871030976467222,-0.46052809339392997,-0.264690649996873,-0.5182245307429009,-1.7114120891722484,-1.593250689330716,-0.5173293022459683,13.30095,-1.57164498388531,LB
-0.774820492405607,-0.9713921127224032,-1.4569533773792998,-0.5928272581751022,0.8148450525850544,-0.981121194312359,-1.1312078413836562,0.8158182704056389,-1.4287723712422458,-1.083925417112426,31.61143,-1.4065180400397073,1.8808289553881445,-0.47972519347457887,-1.3002934035705458,1.6958181571192308,0.532686429607947,0.11440109923323417,-0.5166542062459165,-1.7115389383294606,-1.5934384035064852,-0.5256804980723006,12.68247,-1.6048967857376282,LB
-0.7015140271318077,-0.9392627177212577,-1.5654248873507597,-0.4571144497216513,1.162018466363889,-0.6855925021536123,-1.1319858787226835,0.8170860651552564,-1.429920365813243,-1.1568248504390968,31.53492,-1.4805401955359787,1.8092604953168505,-0.5505601549395248,-1.4293069201743194,1.6637806991228994,0.36242099146431805,0.03858242023415347,-0.5154398219682486,-1.710957244337103,-1.5928252038656368,-0.5405324905233945,13.13942,-1.562362501953626,LB
-0.735025210955201,-0.9928111245065218,-1.5133021537787132,-1.033892774501976,1.717495519092689,-1.4033050007490693,-1.1328626398328265,0.8185948802254058,-1.4308035088125708,-1.140153603907497,31.45082,-1.4509773377226718,1.887335421298817,-0.5547262146189758,-1.3171228518479772,1.5356300277520207,0.561064219483729,0.0006732048870947534,-0.5153783175921167,-1.711347758528234,-1.5922245185031731,-0.5867133373109843,12.55364,-1.560060646595902,LB
-0.7517816607641847,-0.9778176407926447,-1.5189372622238335,-0.7624676020538108,-0.2688737595211357,-1.487742204485202,-1.133212874163688,0.8186937960794965,-1.4317460150952044,-1.127936005407224,31.59786,-1.4549692720242546,1.8743224894774722,-0.517226557397797,-1.552709854840416,0.7026517130732516,0.19215573919369794,0.5314017231359904,-0.5139663341485783,-1.7121405657608082,-1.5931255465468683,-0.4849150034740534,12.45019,-1.6550747305192826,LB
-0.7559699153191441,-1.0292236200045164,-1.5118936651739068,-0.4231864698376569,1.1273010795063019,-1.1499947721931418,-1.1337123694342117,0.8196495182753619,-1.4326181987191515,-1.1462659247559719,31.45421,-1.4584049381621418,1.8580569909373168,-0.43389171019245837,-1.4741800879977356,0.4463509998706597,-0.48890567880940206,0.07649138727624895,-0.5118215326064471,-1.7128835393959065,-1.5948900597991105,-0.43333199337239925,12.73338,-1.6813584158811037,LB
-0.7057031395840536,-1.0163716865390644,-1.468223017256593,-0.25354545927084343,0.39823709248956446,-1.6143973187631657,-1.1339756328238524,0.8189821845555084,-1.432787155756252,-1.142852322100438,31.12906,-1.4151333234118804,1.7669704656070566,-0.5588939810004666,-1.5414909885006616,1.247291227013932,-0.6024158717728834,0.9484025953437101,-0.5104867567840108,-1.712518395036218,-1.593763774744487,-0.5103457927860144,13.38649,-1.5719202057215613,LB
-0.7873878297623448,-1.1148996671409885,-1.4527273345519334,-0.049976691049403776,-0.2961094621898814,-1.6988336929078158,-1.1340837588588835,0.8180877623255587,-1.4333195987434373,-1.1419777918465275,31.25283,-1.4290180333759017,1.841791492397161,-0.6922300778694166,-1.6144101734056635,1.8560062864864404,-0.11999734721777823,0.5314017231359904,-0.510738008703528,-1.7133247932499218,-1.592337147008632,-0.611305314155234,12.55846,-1.5383181215321975,LB
-0.7496866755894189,-0.9885271466847043,-1.4851277655790065,1.0017960188592618,0.7801278931259867,-1.0655581215179974,-1.1329214039823001,0.8187620619506297,-1.4335049948436054,-1.1174733367453349,31.48439,-1.4291756579626498,1.8515505250266444,-0.9047349622642544,-1.5863641563240778,2.0161939961608732,-0.9713241661899054,-0.6816914298351463,-0.514398173385249,-1.7150816540773064,-1.5887956062257698,-0.7964494264269776,12.35624,-1.3881971199416046,LB
-0.7140805065912589,-0.9735336629708273,-1.4851277655790065,0.391089069729775,0.5371064125213943,-0.7278106892259376,-1.132416032296829,0.8188526187184595,-1.433420059684415,-1.1274148088532152,31.33499,-1.422407881374682,1.8125130620356609,-0.5380602691991315,-1.451742355318227,0.5424635837060416,-0.8861915400545954,-0.11305384522216969,-0.5139244588286584,-1.7154051194281972,-1.5887455491122295,-0.5238089966702847,13.0947,-1.5797264978042718,LB
-0.7434034358596929,-0.9928111245065218,-1.517528773619027,-0.0839046709333982,0.6065411862365695,-0.1789716302460165,-1.1325053538040286,0.8194767638259637,-1.4337269221950397,-1.1382026384283033,31.50507,-1.4553798290874111,1.7929949967766947,-0.6005614046031357,-1.519053255821153,-0.5788529021716504,-1.5956305248858664,-0.5679635354890068,-0.5150799559376898,-1.7160656411111073,-1.5883826350390722,-0.5553739318742654,13.15147,-1.5487640412262116,LB
-0.7036081544092869,-0.982101618614462,-1.472449637096907,-0.28747388361357434,0.4329544793471519,-0.5589371113451546,-1.1325617673875235,0.8191131435736008,-1.4333406042129146,-1.1300970929205791,31.22633,-1.4123877230520219,1.8287785605758162,-0.5255603834587388,-1.4293069201743194,-0.1303259300970741,-0.26188516277133334,0.3418558947056601,-0.515165015181276,-1.7161254414280787,-1.5881824065849177,-0.5215536989976651,12.98217,-1.589059020069821,LB
-0.6805693227678645,-1.0313651702529405,-1.5302069021011264,-0.32140186349756883,0.9884317594744716,-0.39006353346437167,-1.1339168686743788,0.8188776959772432,-1.433942456577502,-1.1922662161116813,31.07551,-1.4649225315397485,1.7929949967766947,-0.5588939810004666,-1.5022261050793213,0.09393726215526998,0.5043088256051741,-0.45423648537974237,-0.5151074366163869,-1.7152420276546387,-1.5882449779768433,-0.5247585956903352,13.19899,-1.5720327964727545,LB
-0.6721910978633727,-0.9606826068303445,-1.5358420105462467,-0.4231864698376569,0.8148450525850544,-0.22119003854273697,-1.134806557897406,0.8189766118313345,-1.4342831104955471,-1.1664869424121704,31.24926,-1.4565455178917301,1.8092604953168505,-0.45055765561230204,-1.5022261050793213,0.5104261257097106,-0.2902627481868054,-0.264690649996873,-0.5128657983969417,-1.71507259342322,-1.5898092627749274,-0.4339558271730711,13.12921,-1.6546618977649088,LB
-0.7287419712254759,-0.9863847191113111,-1.423143880734473,-0.0839046709333982,1.1967358532214767,-0.8122476164315761,-1.1340014890496206,0.819409891135874,-1.4333068128054944,-1.095860113879555,31.24661,-1.3764199917690723,1.8287785605758162,-0.5797276928018011,-1.5863641563240778,0.6385767970805893,1.1002375802983624,-0.22678159058533115,-0.5123606773504118,-1.7146141243264401,-1.5902347482400065,-0.5230967974052466,12.77781,-1.6010061497797374,LB
-0.6931358022273159,-1.0056621806470045,-1.5273893478785663,-0.5249708539483767,0.8842798263002293,-0.2634084468394574,-1.1350604190231313,0.8193917797823083,-1.4337378815704187,-1.1730347675884314,31.21381,-1.4597282515532077,1.8808289553881445,-0.6463948878852561,-1.4685718035956594,0.7987649264477993,0.5043088256051741,0.11440109923323417,-0.5135986164955345,-1.7152220942156484,-1.5892085774124638,-0.6198662130984941,12.39259,-1.5411954407293535,LB
-0.6219234642309956,-1.037790698323182,-1.493580428246687,-0.660683217943091,1.2661706269366517,-0.7278106892259376,-1.1368856335057744,0.8182493713266087,-1.4337908518847529,-1.2050942249905232,30.66151,-1.4295642208974224,1.8808289553881445,-0.5672278070614084,-1.4629612216579813,0.3182005383461695,0.021890486923077802,-0.15096350751816223,-0.5139480136961132,-1.7160565804570207,-1.5894713772585403,-0.554070870996752,12.45166,-1.5949137391318529,LB
-0.7434034358596929,-1.0485002042152416,-1.472449637096907,-0.15176107516012363,0.9884317594744716,-0.3056268551361779,-1.1370137393516262,0.8185154689059243,-1.4336155018786816,-1.1419038382814315,31.24877,-1.428443436771886,1.8808289553881445,-0.5838937524812521,-1.5751452899843235,0.19004986697529072,-0.7726813099165123,-0.9849644076967264,-0.514051393392165,-1.717672095080655,-1.5908229193240884,-0.5360878395545475,12.32579,-1.61847022629811,LB
-0.76015902777139,-0.9928111245065218,-1.4851277655790065,-0.049976691049403776,0.9537141452183641,-0.09396491195718258,-1.1365107182321346,0.819524131981444,-1.4333944878085294,-1.1144940645514751,31.52851,-1.4311395503428817,1.838538925678351,-0.5047266716574043,-1.4573529372559053,0.1580123250404042,-1.4821201088747746,-1.288237882168233,-0.5134114861596439,-1.7187059157119315,-1.5922870898950952,-0.49685225448860393,12.87883,-1.6171316473672623,LB
-0.6973249146795617,-0.9778176407926447,-1.472449637096907,-0.016048711165409377,0.9189972131578167,0.20099385085312152,-1.1363109201239243,0.8195074138089212,-1.432641030751193,-1.1310878359196406,31.20459,-1.4109022029641278,1.8678160235667995,-0.5963953449236847,-1.52466383775883,-0.034213346261692236,-0.20513008487689358,0.22812824866448386,-0.5141966484081362,-1.7195739263734242,-1.5920743471625556,-0.5595679942128214,12.48467,-1.588045703309083,LB
-0.7203646042182705,-0.9756752132192523,-1.493580428246687,-0.3553300656109315,0.7454105062683994,-0.09396491195718258,-1.1363614572924716,0.8198975045011113,-1.4324236698061668,-1.129574722500458,31.38057,-1.4303624244733366,1.7995014626873673,-0.6255611760839216,-1.3676043040734704,0.06189974120502231,-0.8294363320490494,-0.37841840231257345,-0.5161032840682245,-1.7195023472061406,-1.5902722910751617,-0.62132094604171,13.24025,-1.4859008718101505,LB
-0.7329310836777219,-1.1148996671409885,-1.46258848582442,-0.18568927727348628,0.25936777245773446,-0.0945348769780588,-1.1371336182165523,0.8187258392434982,-1.4322163549552394,-1.1723011012680362,30.98034,-1.430611691261681,1.7929949967766947,-0.5963953449236847,-1.5414909885006616,0.12597480409015652,-0.37539541149671724,-0.4163274438461579,-0.5164081887413889,-1.719306637077871,-1.5899844626723116,-0.5454572165523781,13.13021,-1.5587220676650542,LB
-0.7140805065912589,-0.9885271466847043,-1.52879841349632,-0.049976691049403776,-0.018370867605925476,-0.052316460661954035,-1.137454470472677,0.8184444166727037,-1.4325853205930132,-1.155757806142714,31.38148,-1.460398156046885,1.887335421298817,-0.5505601549395248,-1.3115122699103001,-0.034213346261692236,-1.5104977128775476,-0.37841840231257345,-0.5176330418490364,-1.7209565821870338,-1.5897341771046203,-0.5847640215448255,12.56243,-1.5611990641912994,LB
-0.7182696190435048,-1.024939642182699,-1.50485006812398,0.11966411951097823,0.4329544793471519,-0.09396491195718258,-1.1376989293344861,0.8182047895332157,-1.4327140932537223,-1.1588403785544859,31.24793,-1.447630564520335,1.8190195279463333,-0.5338925028176407,-1.3059039855082228,-0.38662710496172087,-1.0848343963279885,0.2660372157065794,-0.5187283431856833,-1.7211151436335488,-1.58855783493646,-0.5631883404767638,13.19915,-1.538881075288163,LB
-0.6847584352201105,-1.0227972146093058,-1.4865368311967602,-0.28747388361357434,0.36351993303049696,0.7498330480982897,-1.1383735417704401,0.8173103673032656,-1.4320501377619834,-1.1647907058794176,31.03419,-1.4285689865880753,1.8482979583078336,-0.4713913674136366,-1.5919747382617548,-0.32255155942989283,-0.9713241661899054,0.1523100662753297,-0.5171135261612843,-1.7221154398447052,-1.5904725195293163,-0.43165304954944883,12.6709,-1.6868878727730228,LB
-0.6889466897750699,-1.0163716865390644,-1.5273893478785663,-0.4231864698376569,-0.3308268263076169,0.32764896513108527,-1.1394101413671505,0.8161623861233925,-1.432264758863165,-1.1799746640463116,31.15948,-1.4610598127424186,1.8743224894774722,-0.6213951164044706,-1.5751452899843235,-0.09828840914682645,-0.09161974321500524,-0.6816914298351463,-0.5180308573882727,-1.7230613721313426,-1.5909981192214726,-0.5670408109456071,12.35882,-1.5894343225737957,LB
-0.7517816607641847,-0.9885271466847043,-1.489353808406373,-0.049976691049403776,-0.2961094621898814,-0.3478452357798489,-1.1389412034543536,0.8160258543811258,-1.4322282276119003,-1.1185380333094923,31.50457,-1.4328358474944503,1.854804424218506,-0.5630600406799176,-1.4629612216579813,0.7987649264477993,0.050267905052841955,0.07649138727624895,-0.5177167924888756,-1.7232924188105498,-1.5908729764376253,-0.5473036590913649,12.6874,-1.5858314185356226,LB
-0.7894819570398249,-0.9628241570787686,-1.5583812903008332,0.526801855960289,-0.22667484765367044,0.03212032827843743,-1.138096174984926,0.8171376128538672,-1.4331250698304512,-1.1217919901737083,31.92894,-1.4889107942298858,1.838538925678351,-0.5505601549395248,-1.390042036752979,0.2541254125071188,-0.9145689581843596,-0.1888725490517467,-0.5180727327081921,-1.7237880365890847,-1.5905100623644715,-0.5556047371916389,12.91948,-1.5637010808844738,LB
-0.7203646042182705,-0.9992366525767632,-1.5457031618187338,1.069652200856619,-0.26139221859336154,0.7076145844954704,-1.137730661975202,0.8167725994204609,-1.433431932341076,-1.16590235708808,31.41873,-1.4766774767386475,1.815766961227523,-0.6088952306640775,-1.6144101734056635,-0.034213346261692236,-1.0280791883224425,0.9863115623858055,-0.518340996476427,-1.7244947676078366,-1.5896841199910798,-0.5382046540367431,12.84339,-1.583692194262957,LB
-0.7140805065912589,-0.9949526747549458,-1.496397982469247,0.6964424220683658,-0.053088118024400936,0.41208589233672377,-1.1372017846299414,0.8162613019774834,-1.4330492674840773,-1.1428722778243534,31.2956,-1.4352011327176786,1.8450440591159718,-0.4755591337951275,-1.3059039855082228,-0.4186647728044406,-1.2550996485986086,-0.07514480368858523,-0.5185124235673477,-1.7250565281612036,-1.5898342913316974,-0.5158851204029753,13.0049,-1.5924617627725404,LB
-0.7517816607641847,-0.9778176407926447,-1.489353808406373,0.7642988262950913,-0.7127174677650754,0.7076145844954704,-1.136042955602326,0.8158349885781612,-1.4324474151194888,-1.1135725796530593,31.53611,-1.4310130841046775,1.7995014626873673,-0.5297264431381897,-1.0534898317739538,-0.3545896469653898,-1.3686100646097004,0.3797651100527188,-0.5209058598215014,-1.7244385915525002,-1.586793321684218,-0.6320118483424442,13.66675,-1.448433171829832,LB
-0.7266478439479966,-1.0035206303985804,-1.5104851765691003,0.391089069729775,-0.26139221859336154,0.4965228195423624,-1.135890168813695,0.8153557342991853,-1.4323487807410735,-1.147729735798424,31.36792,-1.4495321402034818,1.8027540294061781,-0.5130587910163061,-1.4629612216579813,-0.38662710496172087,-1.5388753168803206,-0.22678159058533115,-0.5206402132607614,-1.7248744090140637,-1.5871812643141454,-0.49793506114896674,13.18713,-1.595889525642192,LB
-0.6973249146795617,-0.9478306733648924,-1.4738581257017134,0.594658037957646,-0.2961094621898814,0.41208589233672377,-1.1349757986478894,0.8146521778721997,-1.4314227135215105,-1.117848973901377,31.29538,-1.406845202699411,1.7995014626873673,-0.6005614046031357,-1.446134070916151,-0.38662710496172087,-0.432150489391157,0.11440109923323417,-0.5219527428194908,-1.7245346344858177,-1.5859673793108298,-0.5771421705213932,13.17268,-1.5285602564288086,LB
-0.6575296332291557,-0.9928111245065218,-1.50485006812398,0.22144853917839696,-0.22667484765367044,-0.3056268551361779,-1.1354752939184132,0.8132325263888366,-1.4314272799279186,-1.1730488539817832,31.01048,-1.4350847471216508,1.7539575337857118,-0.5213926170772479,-1.5134449714190756,-0.034213346261692236,-0.11999734721777823,0.796765733955475,-0.5210785955161696,-1.7232770156986026,-1.5853416653915962,-0.48461561600523206,13.5594,-1.5822910649147777,LB
-0.7371201961299677,-1.0227972146093058,-1.50485006812398,-0.016048711165409377,-0.26139221859336154,0.03212032827843743,-1.1356645144797175,0.8127741698255134,-1.4315533127447821,-1.1488730813921277,31.35652,-1.449451495066075,1.8190195279463333,-0.5505601549395248,-1.4012609030927334,0.5424635837060416,-0.6024158717728834,-0.15096350751816223,-0.5209896104613406,-1.7232552701287949,-1.5849412084832837,-0.5498609820078619,13.08258,-1.558034013074429,LB
-0.7329310836777219,-0.9713921127224032,-1.496397982469247,0.08573578405999456,-0.053088118024400936,-0.0945348769780588,-1.1352531654334044,0.8128201447999504,-1.4314181471151022,-1.1229846381441422,31.46745,-1.4333939485021785,1.8613095576561272,-0.47972519347457887,-1.4293069201743194,0.5424635837060416,-0.11999734721777823,0.1523100662753297,-0.5196024904890044,-1.7235325261438437,-1.5858922936405229,-0.48607826227361517,12.72126,-1.6366723977409694,LB
-0.7015140271318077,-0.9906686969331284,-1.4823102113564464,-0.016048711165409377,-0.26139221859336154,-0.4322819970671909,-1.1352813722251514,0.8119633384581757,-1.4312263580459619,-1.139929395479985,31.21045,-1.4215922657804643,1.8255259938570059,-0.5463940952600739,-1.5807558719220005,0.5424635837060416,-0.7159261019109664,0.4555830441369098,-0.518507189152358,-1.7240163650720661,-1.586317779105602,-0.49601080424583704,12.83494,-1.620709531238503,LB
-0.72455285877323,-1.0099461584688219,-1.5118936651739068,-0.049976691049403776,0.12049845242590447,-0.13675327725539493,-1.1355575637276762,0.8118059090002562,-1.431478423679689,-1.1523805933366718,31.34054,-1.4515189431341124,1.8190195279463333,-0.6130612903435289,-1.5134449714190756,0.09393726215526998,-0.5172832456375732,0.9863115623858055,-0.5192962772120925,-1.7242156994619708,-1.584916179926517,-0.5708748169890607,12.91827,-1.5505404730783654,LB
-0.7538757880416649,-1.0013782028251872,-1.5935998525634139,0.35716102317697,-0.12252286899972396,0.15877549786249992,-1.1359512835291474,0.8124356268319342,-1.4329460666992537,-1.1736639598248024,31.69213,-1.5199041868101277,1.815766961227523,-0.5255603834587388,-1.491007238739567,0.09393726215526998,-0.9429465621871324,0.30394692766356457,-0.5187100227332182,-1.7245110767851926,-1.5850788655455164,-0.5023441021545622,13.03179,-1.6023697488775177,LB
-0.6805693227678645,-1.0078037308954297,-1.4921713626289332,-0.016048711165409377,0.18993299874255945,-0.2634084468394574,-1.1364084686120501,0.8115913591195519,-1.4327990284129128,-1.1626730514122288,31.0666,-1.4300645873181441,1.8482979583078336,-0.6088952306640775,-1.3283394206521317,0.02986222025477464,-0.7726813099165123,-0.3025996984829964,-0.5206297444307814,-1.724994915713415,-1.5837898948718938,-0.6250586732956306,12.85664,-1.507443235538401,LB
-0.6826634500453448,-0.9713921127224032,-1.4978064710740535,0.391089069729775,0.05106390610924955,-0.22119003854273697,-1.1362380525785776,0.8109992571760494,-1.4326054127812087,-1.1476370003755267,31.19625,-1.4286175569549215,1.841791492397161,-0.6255611760839216,-1.2834662528287142,-0.25847664343723065,-0.6591710797784293,0.5314017231359904,-0.5233084563018875,-1.7252169017385357,-1.5813120677517258,-0.6518703378492484,12.95152,-1.4780320293101084,LB
-0.7559699153191441,-1.024939642182699,-1.514711219396467,0.594658037957646,0.36351993303049696,0.07433870892210846,-1.1358737148518432,0.8114715455498079,-1.4328967495100462,-1.145656688243516,31.4726,-1.459961939167281,1.854804424218506,-0.5797276928018011,-1.4741800879977356,-0.5468152343289308,-0.6875484979081934,0.8725839163446293,-0.5243069209612199,-1.7259562511119992,-1.5806863538324922,-0.5583097755112545,12.66426,-1.5777499046166608,LB
-0.7371201961299677,-0.9778176407926447,-1.4837192769742,0.18752021261658802,0.085781065568317,0.20099385085312152,-1.135270794678246,0.811584393214334,-1.4324273229312932,-1.117777368068507,31.44475,-1.4247255126530805,1.8320324597676783,-0.5297264431381897,-1.597583022663832,-0.09828840914682645,-0.7159261019109664,0.22812824866448386,-0.5233123821131298,-1.7265270723194528,-1.5817625817735752,-0.47792226180140446,12.77076,-1.6405004832815286,LB
-0.7706313799533611,-0.9906686969331284,-1.4752666143065196,0.11966411951097823,-0.2961094621898814,0.20099385085312152,-1.1344563235665446,0.8117251044997312,-1.4319451104145973,-1.1037578850853433,31.57079,-1.424060190269483,1.7669704656070566,-0.46305924805473475,-1.446134070916151,-0.22643897559451096,-0.5740382677701104,0.11440109923323417,-0.5220024697618952,-1.7255521459397387,-1.5822256100738097,-0.45507121649391397,13.56103,-1.6074113125142688,LB
-0.7873878297623448,-0.9563986290085271,-1.4949889168514934,0.05180773750718965,-0.08780550488198846,-0.13675327725539493,-1.1334232498188026,0.8126989380491628,-1.4318775275997566,-1.0894402401095715,31.80414,-1.4361422981280845,1.8092604953168505,-0.6047274642825866,-1.5751452899843235,-0.09828840914682645,-0.5456606637673375,0.3418558947056601,-0.5223845820561613,-1.725693492143489,-1.5817876103303454,-0.5449956059176315,12.94491,-1.5712321511309364,LB
-0.7308369564002426,-0.9756752132192523,-1.4499097803293732,0.32323297662416517,-0.12252286899972396,0.03212032827843743,-1.1324747964463027,0.8123450700641048,-1.4309359345984063,-1.103139257643986,31.34577,-1.3963265108000602,1.8482979583078336,-0.5047266716574043,-1.597583022663832,0.4143135418743286,-0.8578139360518224,0.2660372157065794,-0.5205747830733871,-1.7266013696829625,-1.5833018380148927,-0.4585794573179893,12.64316,-1.6654706098794314,LB
-0.7224587314957508,-0.982101618614462,-1.4766756799242735,0.5607298358442834,0.18993299874255945,0.03212032827843743,-1.1317625749546847,0.8122586928394054,-1.4304455025501759,-1.1232558012161604,31.33776,-1.418033799092438,1.7995014626873673,-0.5255603834587388,-1.2722473864889599,-0.0021758158683570835,-0.5740382677701104,-0.15096350751816223,-0.521259182833323,-1.725870174898177,-1.5822756671873466,-0.5632173560023763,13.41946,-1.5242567877165476,LB
-0.7119863793137787,-0.9671081349005859,-1.5062585567287865,0.45894545173356355,0.085781065568317,-0.5589371113451546,-1.1314076394918655,0.8121946065114027,-1.4306391181818787,-1.1358126470229841,31.38661,-1.4381969162878978,1.8222720946651438,-0.5005589052759134,-1.4797883723998126,-0.22643897559451096,-0.26188516277133334,0.1523100662753297,-0.5205813260921248,-1.7256953042743062,-1.5829389239417355,-0.4848886257234965,13.00307,-1.6192958918068574,LB
-0.6638137308561683,-0.9563986290085271,-1.5189372622238335,0.05180773750718965,0.016346519251662025,-0.3478452357798489,-1.131853071744874,0.8115175205242443,-1.4307980291248805,-1.1601785859228864,31.18096,-1.4410304931612905,1.8092604953168505,-0.4297239438109675,-1.670502207568834,0.1580123250404042,-0.37539541149671724,-0.3025996984829964,-0.5172836446484576,-1.7256835254239937,-1.5859673793108298,-0.3699488965590907,12.96054,-1.7206901182978402,LB
-0.6931358022273159,-1.0099461584688219,-1.4752666143065196,0.4928736538469262,-0.3655441904253524,-0.010098052365233588,-1.1317284917479902,0.8102664439471496,-1.4303359087963803,-1.1493203243810406,31.09396,-1.4182344955139363,1.7767294982365396,-0.6005614046031357,-1.3956503211550564,0.12597480409015652,0.10702311305838787,0.7209470549563943,-0.5183527739101543,-1.7242909028908893,-1.5833393808500444,-0.5887668451918434,13.43105,-1.5014634156417062,LB
-0.799954309221796,-1.0035206303985804,-1.52879841349632,-0.1178330952761292,0.05106390610924955,-0.3056268551361779,-1.131692057975317,0.8115634954986812,-1.4311761275754724,-1.1215360873611542,31.80262,-1.4728614954641315,1.8482979583078336,-0.517226557397797,-1.446134070916151,0.4783886677133794,0.22053315732346204,0.19021903331742512,-0.5176552881127437,-1.7242057327424756,-1.5837773805935087,-0.5120128666212141,12.79478,-1.6094879863696068,LB
-0.7811037321353331,-0.9178437059371392,-1.4851277655790065,0.15359216606378312,0.155215839283492,-0.1789716302460165,-1.130234707068377,0.8129023424815188,-1.430837300219991,-1.0696253801283435,31.86384,-1.4208490475255091,1.7637165664151946,-0.5797276928018011,-1.339558286991886,-0.034213346261692236,-0.6024158717728834,0.30394692766356457,-0.5188696723904116,-1.7231809727652851,-1.58175006749519,-0.585496004122781,13.62564,-1.4912802077004808,LB
-0.7454975631371731,-1.024939642182699,-1.4555448887744935,-0.4571144497216513,-0.018370867605925476,-0.5589371113451546,-1.130329904990524,0.8124927472547194,-1.4304984728645098,-1.1218119458976228,31.29352,-1.4110919023214348,1.7897410975848331,-0.5547262146189758,-1.3676043040734704,-0.0021758158683570835,0.10702311305838787,-0.15096350751816223,-0.5195108882266801,-1.722114533779297,-1.58086155372988,-0.5593609288709492,13.37925,-1.5302616277801717,LB
-0.8418437179496813,-0.9863847191113111,-1.5076676223465402,-0.219617479386849,0.7801278931259867,-0.4745004606700102,-1.1294742989741915,0.8148764800202088,-1.4310564877275795,-1.083600256199227,32.03497,-1.4578358400902223,1.815766961227523,-0.5880615188627429,-1.3507771533316402,0.4143135418743286,0.07864569492862371,-0.3025996984829964,-0.5204923410372954,-1.7215228730674441,-1.5797978400671822,-0.5963174762887719,13.14003,-1.5140985999422478,LB
-0.764348140223636,-0.928553211829198,-1.472449637096907,-0.049976691049403776,0.9884317594744716,-0.4322819970671909,-1.1283601307001765,0.8165065018411457,-1.4306382049005981,-1.0764173694560317,31.71407,-1.4104055022314699,1.838538925678351,-0.5338925028176407,-1.390042036752979,0.7346893809159712,0.6745742637488032,0.3797651100527188,-0.5200670448193624,-1.7208949697392453,-1.5794599545507952,-0.5412591975512387,12.93114,-1.5753479685912133,LB
-0.7182696190435048,-0.9649657073271926,-1.468223017256593,-0.7624676020538108,0.9537141452183641,-1.1077763085903227,-1.1285564029594173,0.8170512356291684,-1.4305030392709182,-1.113120641199696,31.34743,-1.4077506276511929,1.8190195279463333,-0.5005589052759134,-1.384431454815302,1.02302818165406,0.07864569492862371,-0.3025996984829964,-0.518861820767927,-1.7203540486902777,-1.5798854400158744,-0.511622475912971,13.13632,-1.5874827495531172,LB
-0.7413093085822137,-0.9649657073271926,-1.5203457508286395,-0.219617479386849,1.162018466363889,-1.1922132357959614,-1.1285940120150806,0.8183399280944386,-1.4312711088287613,-1.127667190067431,31.58201,-1.4527176231310066,1.8255259938570059,-0.5672278070614084,-1.3676043040734704,-0.0021758158683570835,-0.48890567880940206,0.8725839163446293,-0.5198105584848549,-1.7203694518022246,-1.578446298001634,-0.5747826807340733,13.04894,-1.5386809139527093,LB
-0.7077972668615328,-0.984243168862887,-1.5118936651739068,-0.016048711165409377,0.12049845242590447,-1.0233396579151783,-1.1289136889882152,0.8180348214459043,-1.431829123691831,-1.148519747692226,31.32496,-1.4452047954440514,1.8613095576561272,-0.4922250792149716,-1.6480667724249265,0.3822754543388317,-0.09161974321500524,0.796765733955475,-0.5176225730190569,-1.721125110353044,-1.580248354089028,-0.43546067784234554,12.48354,-1.6957199916999377,LB
