xa_S1,ya_S1,za_S1,xgb_S1,ybg_S1,zbg_S1,tilt_x_S1,tilt_y_S1,tilt_z_S1,tilt_accx_S1,tilt_accy_S1,tilt_accz_S1,xa_S2,ya_S2,za_S2,xgb_S2,ybg_S2,zbg_S2,tilt_x_S2,tilt_y_S2,tilt_z_S2,tilt_accx_S2,tilt_accy_S2,tilt_accz_S2,Posture
-1.7528921072210404,0.88782838143232,0.1484076180357519,0.354509348058998,1.1376090996495036,-1.9470040970678393,0.8242396636276773,33.67112,0.14331376751627364,0.8109726782573714,1.651182267133124,0.11433555426833208,0.05932213333521042,1.100034193795996,-0.7993084461201931,2.3919802291891066,0.790799801448578,0.6130436341586702,1.0994670587417072,23.58303,-1.1034422539568853,1.0129040013557307,-0.08064193147463761,-1.1134868535774436,LL
-1.7909511736380537,0.9312729115192859,0.15559581986279222,0.62398178004883,1.1008524063890222,-1.4539373696823368,0.8251358016670883,33.68242,0.14249706309219332,0.8444301256400931,1.6890397986959025,0.12180165404957013,0.005968023017889441,1.129083179998136,-0.9518343457210096,1.7339630208756325,0.14165792389276372,1.3416999218214238,1.1011119704460486,23.57637,-1.1030540763070307,1.1087014213260007,-0.053659183890679946,-1.1238808506876405,LL
-1.7175500343397527,0.9264455218181902,0.1412194162087116,1.1292427555026863,0.25545568402931,-1.3443671851760892,0.8258520539801057,33.68406,0.1416563379497576,0.8163542445739457,1.6474732167191186,0.11950134927215587,-0.006837487951856562,1.100034193795996,-1.049885116024666,1.2169499398548265,-0.359951866013291,1.7274594467130189,1.1025196182447048,23.56496,-1.1026529594021766,1.1204417702462648,-0.057092902534283,-1.1357467927302107,LL
-1.6740536402854702,0.8130063125939548,0.1391655841711786,0.48924556405391395,0.07167359002686133,-1.5087226413569386,0.8248001612263789,33.67614,0.14050051750183687,0.7521903417030406,1.5738140672791348,0.10530742320243129,-0.026044443172503245,1.1116542642166602,-0.979070794761782,0.2769263241030952,-0.6255098093194497,1.8560454870986092,1.1029782104206194,23.56001,-1.1013849124126471,1.115030507704386,-0.03143201634067666,-1.0919241514979046,LL
-1.7284246896142939,0.8347290719431626,0.17818713105835554,1.162926644028494,-0.25913390471755443,-0.35823369452078857,0.8251434797163857,33.66816,0.1402249857324675,0.7990031814906048,1.588921705580184,0.13123036030244703,-0.00043429538899278743,1.1755610819817521,-1.0063072438025544,-1.5091202082575654,-2.6319492781713203,-0.199879416515292,1.1029126972526315,23.53156,-1.1027047164221593,1.167934724133793,-0.0529231548233522,-1.1549724594346615,LL
-1.744735559004165,0.8274884816972422,0.14635378599821894,2.2744998192525054,-0.736967089109192,-0.6869446427667822,0.8260747174097274,33.66101,0.1393030140426533,0.7798370986853601,1.623408169132122,0.10427313383076849,-0.01323980635873879,1.2452791248066966,-0.9409393198615773,-0.09908379948485965,-1.9237947626882304,-0.199879416515292,1.1049931829927833,23.51848,-1.1037269175667823,1.2114959191541215,-0.030080245641935666,-1.1418669848174583,LL
-1.7692029766109119,0.921619120728543,0.21207388754737497,2.543973575025709,-0.9942617751431537,-0.7417299144413837,0.8287433879726245,33.65305,0.13962517426530088,0.8693237013192828,1.6231805125911303,0.16508779462455644,-0.03671526523596764,1.2220413636644096,-1.0880165909248707,1.122947701422792,-1.45169072160733,1.5131487243274506,1.108759304838999,23.50794,-1.1039857026666842,1.2462048981760132,-0.03104514593867997,-1.1619835655599262,LL
-1.6658982055905338,1.0085081809024747,0.1915364083893451,1.4997672943310647,-1.729389621493315,-1.892219184236193,0.8308142675545188,33.63787,0.13983429581333548,0.8740758126659569,1.6011083353398932,0.17706619373421698,-0.01964212476562102,1.1639433912601296,-0.9191492681427128,1.3579537592896482,0.2301772769816065,0.5273197943995868,1.1104006752910163,23.51184,-1.1036104642718252,1.1377351305634666,-0.02614522098162788,-1.0957847789959774,LL
-1.6658982055905338,0.9023095619241599,0.1340312143816708,0.08503702638444703,-0.7737235416152947,-1.9470040970678393,0.8300925309205746,33.62982,0.13885227232763303,0.7885651760332139,1.6073443733589072,0.1167199303812841,-0.021775939515921328,0.7456351343104607,-0.913702870820806,0.7939394051239014,0.43672254370703306,-0.2870606137692154,1.1045788564709147,23.51101,-1.1004791645629812,0.7859286471924578,-0.04660448832486055,-0.9323988915022744,LL
-1.6495862226787223,0.8998963613793352,0.15559581986279222,-0.5886441639054139,-0.3694030455569219,-0.5773744582605347,0.8290669629072954,33.62067,0.13860923917721424,0.797071028409085,1.5771343503692925,0.13463418966902602,-0.028179132078784856,1.0942253484351847,-0.8210984978390576,0.8409403704109955,0.2596837602224345,-1.1871657039379957,1.1041946305937975,23.52017,-1.099819262558225,1.050132566276297,-0.009823191231511246,-1.0219422082217964,LL
-1.6930837302549464,0.8902415819771436,0.21310059326181638,-0.21811940444647343,0.3657248007932395,-1.3991520980077354,0.8291569057704918,33.61388,0.13884944636076732,0.838192500564454,1.5569727368582245,0.17047895732616766,0.11054242890223134,1.0884141233753317,-0.9736221662242578,0.8409403704109955,0.5547481674426931,-1.4443389076970357,1.103599700203422,23.48903,-1.103494010976868,1.0417144561464788,-0.14675385686053208,-1.2319267734430759,LL
-1.7556102142787062,0.8854151808874965,0.17305234066019803,-1.1275890278850778,0.25545568402931,0.2991884531612676,0.8283825196556523,33.61497,0.13880069843234044,0.8255749388547643,1.6318647340278878,0.13205835698522606,0.018772659831653896,1.0884141233753317,-0.9627271403648257,-0.7571001457963638,0.43672254370703306,-1.2300276238175374,1.102337243750036,23.4821,-1.104904389771346,1.0728371891353776,-0.06790901873127907,-1.1267214461711714,LL
-1.7311427966719584,0.9336871006755582,0.18742874431427914,-0.9591687027337923,0.1084300184575262,1.0113959084022208,0.828205924521815,33.61411,0.13939697744092527,0.8512709327825404,1.6215904192125108,0.153566489246772,0.04224899286486405,1.2220413636644096,-1.1261480658250742,-0.6160969420772351,0.20067079374077845,-1.3157523058175156,1.104378775714628,23.46314,-1.109070829879805,1.2292783130212768,-0.10143605303136312,-1.2651746523980563,LL
-1.9404726728142605,0.8540376421360971,0.1925631141037865,-0.9254848142079848,0.9170708661216445,1.7783886353177754,0.8283803259272818,33.63039,0.13946480064569317,0.8650488810454382,1.731825218769073,0.1184508108188348,-0.00470279904557495,1.0884141233753317,-1.191513758550434,0.3239272893901892,0.790799801448578,-2.6016155171430664,1.1056500852988231,23.45653,-1.1124867931985423,1.1545979287334265,-0.07731614642217988,-1.1864385103136077,LL
-1.8235740259397355,0.8467970518901777,0.1812676688103299,-0.01601513340543433,0.29221189578103407,1.6688180919685724,0.828432975408177,33.63445,0.1396378911161949,0.828274479647415,1.6575076165643732,0.12356503265043789,-0.05805690936289593,1.1174631095774716,-0.9409393198615773,-0.38109088421037907,-0.359951866013291,-1.6157871487091324,1.105614672775586,23.46521,-1.1123185828836062,1.1203124244160234,0.00040319142832361243,-1.0436469400755095,LL
-1.8317294606346717,0.8733472009404802,0.10733223911104199,0.38819345721536747,-0.44291595056912736,2.7097368184141795,0.8281664374111433,33.64273,0.13906280685909975,0.7976676422501205,1.734481795482031,0.07128537861830125,-0.01323980635873879,1.1929923774622697,-1.1370408604688902,-1.4151167383941448,-1.45169072160733,-0.7585442591668589,1.1069373305184742,23.44816,-1.1145958917627632,1.2282134247476457,-0.058191094314068166,-1.1959415933857875,LL
-1.7420174519464995,0.9554088714133173,0.18537491227674618,0.9271383211950314,-0.11210831137208434,3.0384477307758777,0.8295572611981357,33.64201,0.14019178062179985,0.8626503839340433,1.6393703950639715,0.15412531635946652,-0.01964212476562102,0.8095443317745944,-0.9028078449613738,-0.5690959767901411,-1.0090939561631163,-1.4443389076970357,1.1010004209978537,23.43859,-1.1124867931985423,0.8343128470061699,-0.04340289192245542,-0.9549041548104382,LL
-1.7229873619770233,0.8588650318371929,0.1915364083893451,0.287141350376821,-0.3694030455569219,2.7097368184141795,0.829584682802769,33.63335,0.14109397054355646,0.8171391475538036,1.583563020846069,0.14568568464233295,-0.04098376889254956,1.1639433912601296,-0.9082542422832807,-1.1331103309558879,-1.7467551674810449,-0.5013713361547838,1.1009278253252182,23.43576,-1.1120209800187173,1.1425953444313028,-0.006910284675302018,-1.0674692067442233,LL
-1.6849271820380698,0.914377541871175,0.19975131593082682,0.051352784849740374,-0.7737235416152947,2.1618848193540754,0.8298819329969922,33.62128,0.1421727833943966,0.8393342771446385,1.5714411856403352,0.1655074448204362,0.01663884508135359,1.1581321662002766,-0.8319935236984898,-0.8981042730890316,-0.3894583685808472,-0.07275056517636277,1.0999522103100496,23.43051,-1.1119562837437391,1.090449484376462,-0.045502395330937515,-1.100936586259291,LL
-1.7311427966719584,0.8516244415912735,0.17202563494575662,0.5229296732102835,-0.4796721623208514,3.0932330024504786,0.8298051525040192,33.61452,0.14281215839767783,0.8036480118163221,1.6023989728068997,0.12898798703355518,0.008101837768189749,1.233661434085074,-0.8755713959206013,-1.2271122615300758,-0.44847118044867723,-0.3299233197402589,1.1003612249534322,23.4266,-1.112784396063435,1.1726868544996472,-0.0400029838013799,-1.1369088545189303,LL
-1.6577416573736585,0.9167917310274473,0.15456869353970112,0.6913499983615689,-0.5164286148269541,2.874092274595028,0.8299038702806987,33.60629,0.143507346246549,0.8062118092763338,1.5903594441967563,0.13555614843270086,0.014504156175071977,1.0419362213917154,-1.1370408604688902,-1.2741141503907094,-0.0648872848524781,-0.15847457338362525,1.099171364172682,23.41079,-1.1141430178379301,1.0915905626596873,-0.08869013624087844,-1.1697435559490306,LL
-1.6278380256515816,0.9312729115192859,0.22028879508885715,1.1292427555026863,-0.3694030455569219,2.9836628179442313,0.8310840961441088,33.59127,0.14526439114506848,0.8470585106535377,1.5206860354282905,0.19076558253607062,0.008101837768189749,1.1871811524024165,-0.9954122179431223,-1.5091202082575654,0.2301772769816065,-0.5013713361547838,1.0993271792749228,23.40689,-1.1156180929073862,1.1711293889546859,-0.058047399593326485,-1.1648628964364158,LL
-1.7909511736380537,0.8757604014853049,0.1658645594418074,0.48924556405391395,-1.0310182276492565,3.1480182741250804,0.8313824432025178,33.58817,0.14569323161688252,0.8248349187510206,1.658729957069084,0.12073133410553394,-0.01750831001532071,1.1813723070416053,-1.0771215650654384,-2.4961447892963906,-0.7435358195896747,-0.9299927809259205,1.0981497128773048,23.39553,-1.1175977989216543,1.201451240912501,-0.04757198943103017,-1.1645401014951056,LL
-1.6903645096753404,0.9698910405166047,0.2007780216452687,-0.8918004844210534,-0.9207491108853271,2.7645217312458255,0.831165264093823,33.57589,0.14751809972016985,0.8671594709271209,1.5957794210765228,0.17454546663169454,-0.06446010192575946,1.129083179998136,-0.8156498693015322,-2.3081406202901684,-1.127119579898776,-1.5729243865886962,1.0962108772300994,23.4072,-1.1161874201271764,1.092756446992548,0.023145319244514045,-0.9919481022752271,LL
-1.7202692549193588,0.904723751080431,0.1309506766296964,-1.4307455690312791,-0.4061594980630246,2.5453810033903745,0.8296428166045909,33.57597,0.14742060386331612,0.8005083998968885,1.6492839618220843,0.10795814295822241,-0.030312946829085165,1.1523233208394648,-0.7284941248573091,-1.4621183193969318,-0.5369904948840635,-1.3157523058175156,1.0944526454514012,23.41774,-1.114971130157626,1.070457580231074,0.007647746082181628,-1.004937370713562,LL
-1.7093945996448177,0.8974831608345116,0.19461694614131947,-0.8244327073694383,0.9170708661216445,2.271455003860323,0.8291909085602368,33.57681,0.1482556770720214,0.8338596609629484,1.5863807083418828,0.15587103291505305,0.005968023017889441,1.1465120957796116,-1.0063072438025544,-1.03910747680816,0.43672254370703306,-1.6157871487091324,1.0944951404792849,23.41475,-1.116899079151915,1.1409191642202299,-0.059762633409237445,-1.1511634791272,LL
-1.7175500343397527,0.832315871398338,0.20488568572033464,-0.9928525912595999,0.40248101254496355,1.6688180919685724,0.8281850841022934,33.57132,0.1488215769368038,0.8118517258066408,1.558694170548955,0.1520164681529002,-0.00897130270215687,1.1988012228230809,-0.9463857171834853,-0.19308594555954023,1.0563579380220194,-0.6728201386608105,1.0958815407639992,23.4231,-1.1177271914716072,1.1719479885926516,-0.036797486184837136,-1.1313696933260424,LL
-1.7474547795837698,0.8612792209934651,0.15970306332920847,-0.5549600547490444,0.8068015086033362,-0.08356815554411773,0.8273942450246736,33.57593,0.14821470055247415,0.8043103079150863,1.6276741024694767,0.11927810101980285,-0.021775939515921328,0.7398262889496494,-0.8374399210203967,1.0289448472750644,1.0858644405895757,-0.199879416515292,1.0899286956079215,23.43185,-1.113612508383127,0.7548679293276477,-0.03728123673792184,-0.9001323091688811,LL
-1.7229873619770233,0.8757604014853049,0.17921383677279695,-0.18443547179455352,0.43923746505106626,0.3539737248358691,0.8271255132992693,33.57543,0.14814546436427314,0.8173876454288775,1.6001696899093418,0.1392157242149504,0.03157817080139966,1.0593651371731911,-1.0989093855686856,1.6869620555885387,1.2333967601600746,-0.7156820585403523,1.0912035464444403,23.42252,-1.1155404573774161,1.0875826137828928,-0.09722534257198556,-1.1808864373230668,LL
-1.736580124309229,0.8540376421360971,0.14635378599821894,0.051352784849740374,-0.1488647398027492,-0.24866329470876775,0.8264882352075946,33.57456,0.14731109764728442,0.7902247477451593,1.6281154059181682,0.10948273070688931,0.10414011049534912,1.0186960805503866,-0.98451719208369,0.6999365509761739,0.2891902241365342,0.14156026950799158,1.089737467982444,23.39174,-1.1172613782917784,0.9885409168924599,-0.1461504690738887,-1.2009901062678818,LL
-1.7556102142787062,0.9312729115192859,0.18845587063737024,0.1524049358143993,0.3657248007932395,0.40875899651047054,0.8272637181866197,33.57783,0.14750820883614107,0.8563459818963806,1.636972996566912,0.15083381760087552,-0.021775939515921328,0.7688752751517894,-1.0771215650654384,0.5119314583964116,0.08264494388239789,0.18442218938753333,1.0855764965021397,23.38474,-1.1149840694126216,0.860272377949543,-0.06571003436228341,-1.00440798700981,LL
-1.6985199443702765,0.8757604014853049,0.1812676688103299,-0.25180373423340485,0.7332888443455096,0.4635439093421167,0.8268611690306052,33.57693,0.1475767385326255,0.8130460481930085,1.581288206640313,0.14381986617883427,0.003833334111607829,1.0826052780145203,-1.0389900901652338,0.04192014309310051,0.023632087563092923,-0.5442332560343255,1.0858544848095475,23.37754,-1.1158898172622875,1.0982669337329676,-0.06546100685982172,-1.136857207328319,LL
-1.6903645096753404,0.8467970518901777,0.15764923129167552,-0.08338332082989464,0.5127503700632718,0.8470404522213717,0.8259946463241981,33.57471,0.147311804139001,0.7831124539374333,1.5835560160294233,0.12255405717854603,-0.015373621109039098,1.0477474464515686,-0.9736221662242578,-0.4280921573553196,-0.00587441500446336,-0.45850936012584903,1.0848753285420547,23.37715,-1.1155404573774161,1.0552922246004461,-0.04297961018850634,-1.0776437032943291,LL
-1.7719210836685764,0.9288597109744624,0.16381072740427444,-0.5549600547490444,1.064096194637298,0.4635439093421167,0.826014389879534,33.58578,0.14710762803298078,0.8439167093255131,1.6679272813251538,0.12998271342378825,-0.03458145048566708,1.0884141233753317,-0.8919128191019416,0.22992443524246162,0.20067079374077845,-0.24419860966558418,1.084781485355478,23.38719,-1.11431122815287,1.0707711995728917,-0.014170444185711258,-1.040173666507011,LL
-1.7121127067024822,0.8709330117842091,0.19667077817885245,-0.3528558410719514,0.5127503700632718,0.8470404522213717,0.8257708860303916,33.58281,0.14747500372547342,0.8234139925754891,1.5763865861923427,0.15279501110889193,-0.01750831001532071,1.0419362213917154,-0.9518343457210096,0.8409403704109955,0.8203063040161344,-0.5870960181547621,1.084673477159606,23.3942,-1.1138324757180456,1.0441755706424414,-0.03870713050528062,-1.0647448174395642,LL
-1.6849271820380698,0.8830009917312243,0.14327324824624454,-0.38653972959775895,-0.11210831137208434,-0.0843077771657733,0.8248330671519382,33.57943,0.14687307278315817,0.7897474566723307,1.6056264420764996,0.11821696533931274,-0.00897130270215687,1.100034193795996,-1.12069943728755,0.8879416435559359,1.0563579380220194,-0.15847457338362525,1.0865963771713552,23.39499,-1.114971130157626,1.143647829680116,-0.06432315273630257,-1.1598918543402348,LL
-1.812700484187136,0.8661056220831134,0.15970306332920847,-0.8244327073694383,0.21869923152320722,-0.02952256685331719,0.8242330824425655,33.58607,0.14617293949227259,0.8216285298695625,1.6751877737786303,0.1118925401650467,0.01237034142477167,1.44862440792072,-1.12069943728755,0.22992443524246162,0.6432674818780791,-0.24419860966558418,1.0936664874355475,23.39245,-1.1192410843060465,1.430935549810319,-0.06485891947789112,-1.314097453703068,LL
-1.7692029766109119,0.9095511407815268,0.21412771958490795,0.21977313206408206,0.40248101254496355,0.2444033250238482,0.8252762002828101,33.58704,0.14662226822386026,0.8649602099975042,1.6168481583432344,0.1646808611012796,0.0016995193613075208,1.030316150971051,-0.8973592164238484,-0.38109088421037907,0.3482030360043642,-0.07275056517636277,1.0916444323587366,23.39281,-1.118218883161427,1.0089509801602725,-0.04832102254548382,-1.06050974780957,LL
-1.6876464026176758,0.8709330117842091,0.17716000473526397,0.051352784849740374,0.43923746505106626,1.2853219079322729,0.8249888218662548,33.58345,0.146896387009797,0.80576954874096,1.575120465583596,0.1413478863212882,-0.043117583642849865,1.1581321662002766,-0.9245956654646209,-0.14608485712930763,0.023632087563092923,0.9559412391707236,1.0925545342059175,23.40321,-1.1166920510719884,1.1436797231725044,-0.0076183550413091395,-1.0691993876296462,LL
-1.858914985299083,0.9433408914663022,0.15867635761476706,0.7250341075179385,0.21869923152320722,1.3948920924385202,0.826438876319255,33.59726,0.14671835109728137,0.8676028261667897,1.738677680652927,0.11739815292007931,0.04011430395858243,1.0361273760309042,-0.9463857171834853,-1.2271122615300758,-0.18291304387523585,1.0845272795563137,1.0900260800468222,23.38771,-1.1162779949121422,1.0149965688285398,-0.08648139883653846,-1.1237775563064214,LL
-1.9323161245973839,0.8805877911864007,0.2192620893744153,0.5902976708924604,0.8068015086033362,1.942744091498625,0.8282081182501856,33.61127,0.1471796901880465,0.8912977006424307,1.7144357614456212,0.14324478998448095,0.05078512602204659,1.1871811524024165,-1.0063072438025544,-0.9451052383761257,0.08264494388239789,1.598872564086534,1.0905926804186084,23.3717,-1.1173131353117611,1.1586838394805032,-0.09525652983711924,-1.2169490881662723,LL
-1.8099812636075299,0.8926557711334159,0.21002005550984199,0.62398178004883,1.027339982885574,1.449677364113122,0.8294442841870471,33.61844,0.14773993811909847,0.8638162440087289,1.6421653169056865,0.15379115046274744,0.025175852394517428,1.0767964326537092,-0.9954122179431223,-1.4621183193969318,-0.47797768301623345,0.9559412391707236,1.0890416119008441,23.35734,-1.1173260745667568,1.0711858149739395,-0.07802616739525606,-1.1417378668409337,LL
-1.739299344888835,0.921619120728543,0.22028879508885715,-0.4539079479104979,1.2846346689195358,-0.08356815554411773,0.829965294675077,33.62115,0.1482683939229154,0.8676072049839724,1.5954677067357794,0.17497006220025307,0.0016995193613075208,1.303377097210977,-1.0335436928433257,0.7939394051239014,-0.00587441500446336,0.14156026950799158,1.0936080567722075,23.35466,-1.1193057805810247,1.284303446694504,-0.05173068370190388,-1.2156062612104204,LL
-1.7963885012753242,0.9409276909214775,0.18024054248723836,-0.1507515170795774,0.5862632750754773,0.13483296109612297,0.8306278006430134,33.62932,0.14817160455777773,0.865153972657804,1.6761071559634055,0.14106176118773345,0.008101837768189749,1.0826052780145203,-1.0662265392060062,1.122947701422792,0.7022804870131918,0.48445759377307995,1.0947855231698254,23.35104,-1.1197327759958664,1.1053738669534894,-0.07245393320179296,-1.1517961572121675,LL
-1.7692029766109119,0.8974831608345116,0.18948257635181212,0.8597703235128544,-0.33264683380519783,-0.24866329470876775,0.8315974285828412,33.62673,0.14803383867309278,0.8443316022534998,1.6325371964258937,0.14449667575400757,-0.032446761579385475,1.0884141233753317,-0.8319935236984898,0.18292334681222902,-0.3894583685808472,1.5131487243274506,1.0940347776772084,23.35925,-1.1168861398969194,1.050469219807062,-0.008020180097500548,-1.0192307307147865,LL
-1.7746403042481824,0.9529956708684938,0.16483743311871582,2.106080376623468,-0.5164286148269541,0.5731144526913196,0.8335992057210607,33.62849,0.1479193870150467,0.8564543576216331,1.6784555207439444,0.1342322015184275,-0.06659391667605977,1.1639433912601296,-0.9354906913240532,-1.6971246851216346,-1.3336649046043876,1.8989082492190454,1.0939356226121464,23.36563,-1.1143500459178568,1.161226459568124,0.0106997959426384,-1.048992424303612,LL
-1.7175500343397527,0.9843722210084445,0.1925631141037865,2.072396046836536,-0.7737235416152947,0.7374699088721687,0.836011210064592,33.62264,0.14852767638280948,0.8750719935748423,1.6273956610078022,0.16726799749405907,-0.002568984295274399,1.1639433912601296,-1.1261480658250742,-2.0261326735626786,-0.7435358195896747,1.2988380019418821,1.0942685003305708,23.35245,-1.1151522797275577,1.1965396430847053,-0.06707350870343776,-1.1930106153186866,LL
-1.7556102142787062,1.0085081809024747,0.18229437452477132,1.4660831851746954,0.1084300184575262,1.0113959084022208,0.8382082290277991,33.6274,0.1490292855014058,0.8888050589616252,1.6721914634583466,0.1585704999158205,0.008101837768189749,1.1929923774622697,-1.0063072438025544,-0.05417386626294504,-0.33044536344573466,0.6987683161586484,1.0959187239133974,23.34533,-1.1159545135372622,1.179510290010051,-0.05915274359903111,-1.1711767654884488,LL
-1.9268799104820538,0.950582470323669,0.17510617269773102,0.11872098109942315,0.475993917557169,0.7374699088721687,0.8395211754576336,33.64582,0.14869723439472896,0.8963683709390892,1.7748733194664639,0.12215489495519287,0.11054242890223134,1.2104212932437453,-1.0880165909248707,-0.8041014189413042,0.43672254370703306,-0.115612569279994,1.0969740171058486,23.31457,-1.120289163960661,1.1830912204609796,-0.1547370413911434,-1.3230582412738467,LL
-1.7556102142787062,0.8733472009404802,0.1833215008478629,-0.2854876227592124,0.3657248007932395,0.8470404522213717,0.8391131419806924,33.64559,0.14873255898054574,0.8262591290394388,1.6187377076334664,0.1377921633652915,-0.030312946829085165,1.1465120957796116,-0.9572807430429175,-0.052082727986808616,0.8203063040161344,-1.272889543697079,1.0977672576263493,23.3278,-1.1206902808655115,1.1392128623774571,-0.023192001879328163,-1.0918466807119875,LL
-1.739299344888835,0.9264455218181902,0.18229437452477132,-0.7907483775825069,0.880314172861163,1.7783886353177754,0.8387533705279059,33.64965,0.14923134213227685,0.8466042083709135,1.6287633514579145,0.1475451447695299,-0.015373621109039098,1.1813723070416053,-0.7720719970794206,-0.7571001457963638,0.40721604113947674,-1.4443389076970357,1.0972767941795223,23.34176,-1.1203150424706523,1.1036002344045637,-0.009227605873143358,-1.050115750699373,LL
-1.6822090749804053,0.9795448313073487,0.17921383677279695,-1.0939051393592703,0.9538270778733685,1.5044626357877233,0.83843089245742,33.65171,0.14988060801958636,0.8565397445566804,1.6117276373750808,0.16105660940959196,-0.03458145048566708,1.2104212932437453,-1.0934629882467775,-0.8981042730890316,0.9678386235866332,-0.199879416515292,1.0993094730133046,23.35222,-1.12140193989025,1.2372995263569293,-0.034103697822699695,-1.1621643307270588,LL
-1.695801837312611,0.9023095619241599,0.13813887845673672,-1.4644294575570866,0.9905835303794712,1.3401068207639188,0.8366188728232621,33.65591,0.1496001308082026,0.7981022398554259,1.6251313540270136,0.11606855415131619,0.03157817080139966,0.7572552047311251,-0.8210984978390576,-0.9451052383761257,1.9710581647452858,-1.6157871487091324,1.091345196537387,23.35636,-1.1192928413260292,0.741136008993804,-0.07875179322488321,-0.9564406587310756,LL
-1.777358411305847,0.9119643413263514,0.19050928206625353,0.0043635717171084006,1.8359802527391835,1.3401068207639188,0.837028003164389,33.66722,0.1499350078817442,0.8535501071257275,1.643004143699033,0.14652781096133685,0.04011430395858243,1.2394702794458852,-1.1969623870879582,-2.0261326735626786,2.000564667312842,-1.4443389076970357,1.0932415371567084,23.35079,-1.1238603983393423,1.2667000107568611,-0.10764028391514649,-1.2952462291305389,LL
-1.7719210836685764,0.8781736020301285,0.16278360108118287,-2.1717946466880362,1.6521987124718058,1.1757513645830697,0.8352664392827557,33.67716,0.14968420332244578,0.8196887138579743,1.6489039505190441,0.12119549265552171,0.01023652667447136,1.0535562918123798,-1.2514352851695032,-0.8981042730890316,1.9415516621777296,-1.4014764263235642,1.0933902697543023,23.3486,-1.126681155928298,1.1390020109555565,-0.09870650353962955,-1.2115648685452114,LL
-1.8725077476312897,0.9095511407815268,0.22131592141194825,-1.5991658941825646,0.7700450560972335,1.2853219079322729,0.8353114107143543,33.68608,0.15020771368424835,0.8925128224104123,1.682674171568939,0.15685374911449518,-0.04098376889254956,1.129083179998136,-1.0335436928433257,-1.03910747680816,0.05313857080392094,-1.4014764263235642,1.0937443949866683,23.35471,-1.1271987261281093,1.1526807754687527,-0.02524078950401919,-1.1024214429893207,LL
-1.736580124309229,0.9119643413263514,0.18845587063737024,-1.1612731370414473,-0.038595574887943934,1.7783886353177754,0.8347410413379848,33.68226,0.15069307349336936,0.8430070100559699,1.6161424230661596,0.15016689877106032,0.04438280761516435,1.1871811524024165,-1.0172000384463693,-1.885128854127857,-1.1861325850338886,-2.1301327139863178,1.0935602498658379,23.33095,-1.1304852968968937,1.1645362953337524,-0.09124608170348088,-1.2138502567296918,LL
-1.703957272007547,0.9023095619241599,0.1833215008478629,-0.8918004844210534,-0.7002106366030891,2.2166700910286763,0.8340193047040405,33.67193,0.15130772128657866,0.8279044695955431,1.5937059953493358,0.14892419726508033,-0.06019159826917755,1.1407032504188004,-0.9028078449613738,-1.7441250346930355,-0.2714325515779047,-1.658649910829569,1.092781174354632,23.3453,-1.129812455637142,1.1287199033817117,0.008510564608987517,-1.0350735064343053,LL
-1.6686163126481997,0.9264455218181902,0.1658645594418074,-1.3633773507185403,-1.1412873444131861,1.559247907462325,0.8328138509643677,33.65898,0.15162564255892838,0.8202579600916234,1.5925204301320164,0.14422114784762186,-0.053789279862295314,1.1407032504188004,-0.9736221662242578,-2.2141371504267475,-0.18291304387523585,-0.7585442591668589,1.092138437057887,23.35565,-1.1292043106523688,1.1485700586720409,-0.0061996134998695785,-1.0695480061662619,LL
-1.7936703942176584,0.921619120728543,0.14738049171266035,-1.2623250232494319,-0.44291595056912736,2.2166700910286763,0.8320745645034582,33.66229,0.15147374683991682,0.8355553579166453,1.6939606823896491,0.11377248826476972,-0.002568984295274399,1.2627104202872146,-0.9028078449613738,-1.5561205578289663,0.08264494388239789,-0.8442689411668372,1.093179565241044,23.35941,-1.1302135725419926,1.2103601564529607,-0.03308483073038273,-1.1460891426497999,LL
-1.7746403042481824,0.88782838143232,0.2007780216452687,-0.7907483775825069,-0.08327296683072816,1.7236033636431738,0.8318815164068412,33.65951,0.15196405209105174,0.8479703993316716,1.6232960920657882,0.15065649066625345,-0.06446010192575946,1.169752236620941,-1.2296452334506387,-1.885128854127857,0.31869672670409055,-1.0585796635524054,1.0949307145150953,23.36594,-1.1316886476114487,1.255686124718774,-0.029284397957828577,-1.1641914829584896,LL
-1.695801837312611,0.8854151808874965,0.16175689536674145,-1.0939051393592703,-0.08327296683072816,1.8879591786669783,0.8306607065685736,33.65402,0.1520643739147707,0.8048456183155758,1.5991014553708411,0.13112509451257173,-0.04525227254913148,1.2568991952273616,-1.115253039965642,-1.1801112962429818,-0.03538078228492182,-1.701510988468216,1.0977637163740257,23.37084,-1.1338236246856608,1.2870108498261317,-0.02579606231629659,-1.1751794227606993,LL
-1.7420174519464995,0.921619120728543,0.17099892923131474,-2.0370584306931203,-1.9131716432694503,0.901825723895973,0.82938724724941,33.64193,0.1520516570638767,0.8380534731189284,1.6381463033550998,0.13799633660874136,-0.030312946829085165,1.471862169063007,-1.0771215650654384,-0.7571001457963638,0.997345319421472,-2.2587193158658376,1.1042158781077391,23.38453,-1.1379253685191453,1.452903078623092,-0.022437767146023874,-1.2563300710061496,LL
-1.7719210836685764,0.9192049315722708,0.18948257635181212,-1.9360063238545735,-0.8839926583792242,-0.08356815554411773,0.8285536304685629,33.6369,0.1519470962898599,0.855059704349193,1.6428622961619535,0.14760448924167427,-0.030312946829085165,1.169752236620941,-0.6522311750568996,-1.5091202082575654,0.9088258117188032,-2.3015806742514497,1.102138933619911,23.40961,-1.1363597186647234,1.0604518829245946,0.019048394197488494,-0.9810892804495424,LL
-1.7692029766109119,0.9433408914663022,0.21515442529934933,-3.081265152648888,-0.11210831137208434,0.18961816100213336,0.8275752276152522,33.63511,0.15238229518712043,0.8813227551020274,1.6289717447531302,0.17083502415903526,-0.030312946829085165,1.2046100681838923,-0.8973592164238484,-0.6160969420772351,1.6169807137364582,-1.4872002660826475,1.1029605041590012,23.43039,-1.1365538074896508,1.1696020450414246,-0.01217692376130544,-1.0905167655537884,LL
-1.6767717473431347,0.9433408914663022,0.17099892923131474,-2.239162423739651,0.3657248007932395,-0.5225891865859331,0.8261196888413251,33.63302,0.15218730347341297,0.8332236377672756,1.6006267541954864,0.14975784580234958,-0.015373621109039098,1.1813723070416053,-0.8701227673830771,-1.1331103309558879,2.3251361955559613,-0.5870960181547621,1.102641791449871,23.45303,-1.1361009335648178,1.135252753739245,-0.022312278091258738,-1.0882959363575757,LL
-1.7066764925871518,0.8902415819771436,0.15046145007328487,-2.0370584306931203,1.725711135975254,-0.6869446427667822,0.8242265012574531,33.64126,0.151393913275971,0.8026277474129355,1.6179251489025426,0.12205457453799584,-0.04525227254913148,1.1929923774622697,-0.9627271403648257,-0.7100991805092696,2.6792134532975065,-0.8442689411668372,1.1037006258946462,23.48198,-1.1359456625048774,1.186071490138596,-0.009042298201598877,-1.0942999222659477,LL
-1.780077631885453,0.8998963613793352,0.1494343237501933,-1.6665336712341796,2.828403266632064,-0.0843077771657733,0.8230605346284521,33.66249,0.1506217178300197,0.8235267471179234,1.674158065731683,0.11360222614825984,-0.011105117452457179,1.1871811524024165,-1.0172000384463693,-0.19308594555954023,3.5053943655853868,-0.5013713361547838,1.105168474982805,23.5039,-1.1366832000396037,1.1852280844509948,-0.04484634115343424,-1.1514346268778988,LL
-1.6577416573736585,0.9336871006755582,0.14635378599821894,-1.8012701078596576,3.784070550281978,-0.6869446427667822,0.8216170613605637,33.67951,0.15007206727471256,0.809008778751282,1.6037596584403664,0.1320887357031097,0.052919814928328195,1.105845418855849,-1.0662265392060062,2.1569741713222506,3.6234188297173513,-1.0157169014319691,1.107047109340508,23.50838,-1.1389605089187604,1.108221247079488,-0.10863639392499301,-1.2101187472081438,LL
-1.8426041159092128,0.8974831608345116,0.17818713105835554,-1.76758621933385,3.6370442587488094,-0.46780391491133166,0.8210444982558235,33.70706,0.1494800272164261,0.8542397708318795,1.6930465538173587,0.1268381628819362,0.01023652667447136,0.8908824450202036,-0.9300442940021451,1.8279652593076672,3.4168740848135877,-0.5442332560343255,1.104430123873321,23.52396,-1.1372266487494025,0.8991558607529231,-0.06717754108044523,-1.0286821665963588,LL
-1.8099812636075299,0.7864571521550998,0.17305234066019803,-1.3970616805054716,2.9386711796241003,-1.0704411856460374,0.8195154695814798,33.72275,0.148382845580961,0.7923922622502079,1.6312675734088242,0.10969184932301798,0.025175852394517428,1.2046100681838923,-0.9409393198615773,2.109972282461617,2.118589517979372,-0.9728549815524273,1.1072401075921472,23.52916,-1.1386240882888847,1.1621938955039024,-0.0644440903745738,-1.1701825570692126,LL
-1.7991066083329887,0.8854151808874965,0.15970306332920847,-1.3296934621927328,2.2770574420580374,-0.9060853706222327,0.8188343169223923,33.73792,0.1475096218195737,0.827449072608624,1.6732877172634297,0.1166259683003888,-0.00043429538899278743,1.0826052780145203,-1.2133038102692986,1.075946736135698,1.6759937188715708,-0.8442689411668372,1.1090337518940825,23.52516,-1.1404485232432122,1.155021403437915,-0.08382077079457229,-1.1969358018050236,LL
-1.7692029766109119,0.8347290719431626,0.12170864276512311,-1.0265369210465314,1.5419295957078762,0.2444033250238482,0.8172976101987512,33.74747,0.14630858590180837,0.7737790051141797,1.6634914811841357,0.08385651596759632,0.0913345995256031,1.169752236620941,-0.98451719208369,-0.8981042730890316,0.997345319421472,0.35587099189356,1.1085220409333132,23.50338,-1.1424670470224674,1.1218131904189608,-0.12769967680925678,-1.2472918126494539,LL
-1.7991066083329887,0.8854151808874965,0.13711175213364563,-1.0939051393592703,-0.08327296683072816,-0.02952256685331719,0.8164925118867222,33.75083,0.14537601683624934,0.8137061548831818,1.6919257831540144,0.09968594743035385,0.014504156175071977,1.1465120957796116,-1.1479358863283224,-0.9921062036632197,0.9383321210190768,0.18442218938753333,1.109154154473087,23.49478,-1.143877425816945,1.182481700384226,-0.08481297959028118,-1.213488726395423,LL
-1.8099812636075299,0.8492102524350013,0.16381072740427444,-0.3528558410719514,-0.08327296683072816,0.40875899651047054,0.8162841076915105,33.75084,0.1448475610324324,0.8156766226150439,1.6632918439097275,0.1126470627394565,-0.015373621109039098,0.7688752751517894,-0.8047570746577173,-0.7571001457963638,1.4104355822981294,-0.3299233197402589,1.1016697176870258,23.50406,-1.1394133828435935,0.7649994287429918,-0.03676497606702238,-0.905116263062715,LL
-1.7746403042481824,0.9891996107095402,0.1484076180357519,0.5229296732102835,1.4684166906956708,1.1757513645830697,0.8176529941947965,33.76463,0.14482707277265877,0.863449518069743,1.7065098114107817,0.12763366140139817,-0.002568984295274399,1.2627104202872146,-0.9463857171834853,-0.5220940879295076,1.7350063374721183,-0.7585442591668589,1.1034562794843135,23.52234,-1.1407073083431178,1.2240690425978575,-0.03883196935768948,-1.1626808026331579,LL
-1.812700484187136,0.8926557711334159,0.21207388754737497,-0.18443547179455352,1.3213908806712598,1.2305366362576713,0.8184723517412352,33.77514,0.14559714874346139,0.8656728624938609,1.6423614517717717,0.15496320378760312,0.008101837768189749,1.070985207593856,-0.9681757689023498,-2.1201349119947133,1.3219160745954606,-0.8871308610463788,1.1008676240357163,23.52373,-1.1408108223830795,1.0639885168583176,-0.06059749323472225,-1.110310551354946,LL
-1.7855138460007831,0.914377541871175,0.16894509719378178,-1.5654815643956332,1.5419295957078762,0.7374699088721687,0.8178943043155683,33.78507,0.14550318534518894,0.8434142400538882,1.6675087435305602,0.1298117448254669,0.048651311271746274,1.2975682518501659,-1.0008586152650292,-2.0261326735626786,1.8530323477423434,-1.6157871487091324,1.102170804890824,23.52093,-1.1443044212317868,1.252083931939587,-0.0872453866051873,-1.2550776266338637,LL
-1.7692029766109119,0.9119643413263514,0.14532708028377753,-2.070742319218928,-0.08327296683072816,-0.08356815554411773,0.8165725829722515,33.7857,0.14485321296616285,0.824120076846073,1.674697436613417,0.11378873734642851,0.01023652667447136,1.1232743346373246,-1.2459866566319777,-0.8511029999440912,1.7055000281718447,-0.199879416515292,1.1033022350082342,23.5148,-1.1463876412860163,1.1951434168623738,-0.09462908456329286,-1.2358777835247188,LL
-1.8371667882719422,0.8371422724879861,0.12068193705068124,-1.7339018895469187,-0.08327296683072816,0.9566106367276194,0.8148439250161783,33.79067,0.1437426079880877,0.7902564941697281,1.712791380737995,0.07507353409019757,0.025175852394517428,1.1523233208394648,-1.0335436928433257,-1.2271122615300758,1.4989548967335158,-1.144303503311489,1.1032030799431716,23.51131,-1.148005048160421,1.1473049501406392,-0.07897871384723072,-1.1850827715601027,LL
-1.812700484187136,0.8854151808874965,0.1566225255772341,-0.7907483775825069,1.7624678292357352,1.942744091498625,0.81464868319119,33.80293,0.1436507640649644,0.8287178348870838,1.6853202410569286,0.11261739050338382,0.025175852394517428,1.2220413636644096,-0.9736221662242578,-1.5561205578289663,0.8498128065836906,-0.20133659770103796,1.103651048362115,23.50674,-1.1490790063250231,1.1874996098533153,-0.06776662441524993,-1.1892016350112251,LL
-1.703957272007547,0.9409276909214775,0.12787013887772203,-0.25180373423340485,1.027339982885574,2.874092274595028,0.8144841535633911,33.80724,0.1438295064691966,0.8117291189255471,1.6546724170269451,0.11344114829529553,0.01237034142477167,1.2452791248066966,-1.1043580141062097,-2.5901470277284253,0.49573554884214566,0.14156026950799158,1.1044372063779686,23.49845,-1.1507611094744024,1.2529096190203053,-0.07264054127805021,-1.2322883037773447,LL
-1.7610475419159768,0.9529956708684938,0.15970306332920847,-0.7570644890566993,2.130031632033627,2.9836628179442313,0.8147123013139388,33.82078,0.14446676199732866,0.8501959331643804,1.6732001570553556,0.1321134625665036,0.023041163488235816,1.1581321662002766,-1.0008586152650292,-1.5091202082575654,0.8498128065836906,-0.7156820585403523,1.1039166422863897,23.49299,-1.151796249874021,1.1425900288492383,-0.07273807163149473,-1.1726357986231728,LL
-1.7257065825566293,0.8178337022950506,0.15867635761476706,-0.8581165958952458,0.9905835303794712,2.1618848193540754,0.8134267764887375,33.8183,0.14449784763284765,0.7785486317295816,1.5962802654667043,0.11432707648659696,0.03584667445798182,1.0593651371731911,-0.9300442940021451,-1.7911266156958228,1.5579677086013457,-0.3727853238438902,1.1010340628949284,23.49017,-1.1515633432841068,1.0309273682764866,-0.07960485871634433,-1.121905345646821,LL
-1.7855138460007831,0.8443838513453542,0.11657427297561529,-0.4539079479104979,-0.038595574887943934,1.2853219079322729,0.8124922482028396,33.81947,0.1435511487329615,0.7789471040931364,1.6829596178472594,0.07947986114693328,0.003833334111607829,1.1174631095774716,-1.1261480658250742,-2.1671368008553467,-0.0648872848524781,0.9988031590502653,1.1002780055238262,23.47732,-1.1516151003040855,1.1552039050888034,-0.07470168274751088,-1.1826295300061425,LL
-1.8779450752685602,0.8685198112393845,0.16175689536674145,0.7587182166743079,-0.6266977315908836,-0.02952256685331719,0.8136439555974315,33.82124,0.14279237662962027,0.8390419910977454,1.719790943771412,0.1056521863263189,0.11054242890223134,1.2278502090252208,-1.049885116024666,-1.368116388822744,-0.596003500019176,0.5701817142791284,1.1008215877555085,23.43775,-1.1546299467179726,1.185720661722325,-0.14924348168279222,-1.31602131155328,LL
-1.7746403042481824,0.9940270004106361,0.1843482065623043,0.5902976708924604,-0.9207491108853271,0.2444033250238482,0.8156226985877588,33.81644,0.1431216017694314,0.8875713272206209,1.678170074465624,0.15534117155661922,-0.04098376889254956,1.1116542642166602,-0.9300442940021451,-0.05417386626294504,-0.3894583685808472,0.22728495150796985,1.1008570002787452,23.44257,-1.1526243621937131,1.1052161713522366,-0.012613859744736697,-1.056429619751406,LL
-1.7991066083329887,1.0012675906565554,0.15354198782525927,0.354509348058998,-0.1488647398027492,-0.19387809480275733,0.8171956018295162,33.82169,0.14281710383969223,0.8778985200657692,1.724142686112679,0.1302730774482098,0.03157817080139966,1.2162301386045566,-1.12069943728755,-0.0050809145513474405,0.8793193091512468,-0.199879416515292,1.1033571244192515,23.43249,-1.1547981570329087,1.2264929480193671,-0.09213555852689485,-1.2489832581419218,LL
-1.7637656489736413,0.9336871006755582,0.16278360108118287,-1.5317976758698257,1.1743655521556062,-0.24866329470876775,0.8166734944773008,33.82816,0.1425168448602504,0.843667116746144,1.6649554878631299,0.1310120574227723,0.08706609586902118,1.1523233208394648,-0.9736221662242578,0.18292334681222902,2.443160659687926,-1.272889543697079,1.103535957661596,23.42483,-1.1573083725019835,1.104936217363495,-0.1235923485245302,-1.2315652431088109,LL
-1.8018258289125948,0.8661056220831134,0.1566225255772341,0.0043635717171084006,1.247878216413433,-0.5225891865859331,0.81675356556283,33.83553,0.14174252993914993,0.8172442391661694,1.6701337985686129,0.1109472675016004,-0.006837487951856562,1.134894405057989,-1.12069943728755,0.4649304931093177,2.9152643142342614,-1.830097871094701,1.1052623181693817,23.43771,-1.1589516578863757,1.1720401253484403,-0.06431795111745216,-1.175334364332526,LL
-1.7338620172515644,0.88782838143232,0.11657427297561529,-1.8012701078596576,1.9094933985057678,0.13483296109612297,0.8149941954095673,33.84529,0.14080430893985998,0.7869603395360418,1.6639958279826401,0.09271367843517624,0.07639527380555704,1.1929923774622697,-0.9409393198615773,0.93494260884303,2.7087195693304977,-0.8014067405403305,1.1066009115477264,23.43664,-1.1608925461356567,1.1330272967148187,-0.10838216480368115,-1.2234308105877851,LL
-1.780077631885453,0.8443838513453542,0.15559581986279222,-1.1612731370414473,1.247878216413433,0.4635439093421167,0.8139423026558404,33.84971,0.14032036211417206,0.8015242854830925,1.6472525649947725,0.1094742529251547,-0.021775939515921328,0.9780294036266242,-1.0226486669838935,0.13592228916778107,1.8825388503098996,0.05583614900194317,1.1048745510399407,23.44707,-1.1590163541613503,1.015287153981411,-0.04766951978447469,-1.0629888129588358,LL
-1.7909511736380537,0.9167917310274473,0.10014445789265136,-0.5886441639054139,0.9170708661216445,0.9566106367276194,0.813405936069216,33.861,0.13933198020302262,0.8039019832128729,1.729368279330522,0.07767550660101337,-0.011105117452457179,1.1929923774622697,-1.115253039965642,-1.4621183193969318,1.115370943157132,-0.8871308610463788,1.1059457798678485,23.44945,-1.1603620366808536,1.2207025072902051,-0.057170926817038656,-1.190260402418722,LL
-1.839886008851547,0.8564518312923693,0.18024054248723836,-0.1507515170795774,0.9905835303794712,2.2166700910286763,0.8138106789536009,33.86653,0.1396407170830601,0.8358476439635383,1.6734400720254778,0.12227782279034938,-0.00897130270215687,1.100034193795996,-0.9463857171834853,-1.5091202082575654,1.1448772524574056,-1.144303503311489,1.1043876288454373,23.45613,-1.159883284246033,1.0881106282679878,-0.042007557665842805,-1.0941062453011623,LL
-1.744735559004165,0.9192049315722708,0.17510617269773102,0.08503702638444703,-0.038595574887943934,1.7783886353177754,0.8144611194154989,33.86134,0.1401409132182238,0.8400666343183137,1.6357138807748108,0.14033691084939634,0.008101837768189749,1.1581321662002766,-0.8810177932425094,-2.1201349119947133,0.49573554884214566,-0.5013713361547838,1.1026949102347263,23.45744,-1.1593398355362305,1.1097397316893078,-0.044717601086887514,-1.1102330805690326,LL
-1.839886008851547,0.9674768513603325,0.18024054248723836,-0.1507515170795774,0.659775939333304,1.1757513645830697,0.815881558535496,33.8698,0.14048073573377978,0.8874925085113463,1.7168454183718111,0.1397060225919545,-0.032446761579385475,1.233661434085074,-0.9463857171834853,-2.3081406202901684,0.31869672670409055,-0.9728549815524273,1.1028932203648516,23.46641,-1.159275139261256,1.210608216949314,-0.015371367937791116,-1.1176573642191738,LL
-1.7827957389431175,0.9192049315722708,0.12787013887772203,-0.6896962707439603,1.2846346689195358,0.901825723895973,0.8155261745394508,33.88016,0.13994168255421802,0.8200149357380271,1.7015854253087135,0.10007168649929363,0.052919814928328195,1.1755610819817521,-1.1043580141062097,-1.5091202082575654,0.2301772769816065,-1.2300276238175374,1.1032207862047898,23.44537,-1.1620182613202414,1.1792923511453979,-0.10991274115040367,-1.2512428227310965,LL
-1.7827957389431175,0.8830009917312243,0.1514881557877263,-1.5317976758698257,1.027339982885574,0.901825723895973,0.8145883556609974,33.88442,0.13963577164104574,0.8175507563689036,1.6677066296008076,0.11213910231717118,0.027309667144817737,1.1232743346373246,-0.8919128191019416,-1.3211144999621103,1.6169807137364582,-1.9586844729742208,1.1015546269865066,23.44945,-1.162665224070002,1.0760584318665936,-0.06416515356372243,-1.1226025827200492,LL
-1.7528921072210404,0.8105931120491312,0.14532708028377753,-1.6665336712341796,0.5862632750754773,0.40875899651047054,0.8126085158064844,33.88129,0.13896601749396256,0.7733071875628287,1.6233223601282099,0.09983148268347035,0.061455948085510734,1.0884141233753317,-1.0553315133465742,-0.0050809145513474405,2.000564667312842,-0.2870606137692154,1.10124830866051,23.44062,-1.163894453294548,1.0868278011297037,-0.11531592273122931,-1.2086597140734199,LL
-1.7528921072210404,0.8564518312923693,0.15354198782525927,-0.8918004844210534,1.027339982885574,0.7922551805467701,0.8117617366554131,33.8822,0.13868836624944353,0.7995516283426396,1.6346351390113416,0.11322355189743225,0.029443481895118046,1.105845418855849,-0.98451719208369,-0.14608485712930763,1.3219160745954606,0.09869806888148494,1.1009101190636,23.43745,-1.1637521214896032,1.0905876895101443,-0.07871538189293059,-1.153526338097594,LL
-1.7719210836685764,0.8709330117842091,0.1843482065623043,0.6913499983615689,0.9170708661216445,0.9566106367276194,0.8126545841022679,33.8813,0.13890243323949253,0.8294972643454649,1.628365828113259,0.13612486629075296,0.06572445174209289,1.134894405057989,-0.9736221662242578,-1.1801112962429818,0.9088258117188032,0.8273543565442387,1.099847743366501,23.42331,-1.164049724354492,1.0980241888186786,-0.10639189539105669,-1.200977194470229,LL
-1.7827957389431175,0.9409276909214775,0.16073018965230004,1.4997672943310647,1.8359802527391835,2.326240275534924,0.8145686121056614,33.89266,0.13937013075570465,0.8501838914171301,1.6828545455975712,0.12820803111394052,0.048651311271746274,1.1813723070416053,-1.0716729365279132,-2.1201349119947133,0.9383321210190768,0.913078477050287,1.0995591313021227,23.41103,-1.1649942899691414,1.1753871701885215,-0.10197442058237698,-1.236652491383864,LL
-1.8235740259397355,0.9674768513603325,0.14327324824624454,0.8597703235128544,1.2111215231529515,2.5453810033903745,0.8162029397417964,33.90611,0.13960963144754165,0.8614593456605623,1.7365149435135037,0.11410594767967734,0.01023652667447136,1.1639433912601296,-0.7502819453605561,-2.4961447892963906,0.8203063040161344,0.913078477050287,1.0970112002552477,23.42019,-1.1625099530100613,1.0711645526456808,-0.02896254779146164,-1.0640475803663325,LL
-1.788233066580388,0.9167917310274473,0.12684301255463046,-0.1507515170795774,1.2846346689195358,2.7097368184141795,0.8162325550748002,33.91561,0.13952061349128358,0.8195343605523118,1.705289222110234,0.0982341273082452,0.04224899286486405,1.2859481814295015,-0.9245956654646209,-1.6031224466896,0.790799801448578,-0.07275056517636277,1.0981143003540683,23.41589,-1.163726242979612,1.2203693974808165,-0.07258592428012128,-1.214663699981792,LL
-1.820855918882071,0.9023095619241599,0.13608504641920377,-0.6223282730617834,1.1376090996495036,1.8879591786669783,0.8160406038423681,33.92566,0.1392613310313895,0.8260161046858423,1.7146896860490348,0.09883675629323728,0.048651311271746274,1.007078389828764,-0.7829670229388529,-0.7571001457963638,1.0268516287217457,-1.658649910829569,1.0941480977515659,23.41289,-1.1628463736399373,0.9319919830273478,-0.07448776617228926,-1.0585729781617053,LL
-1.695801837312611,0.8709330117842091,0.12068193705068124,-0.7233803799003299,0.29221189578103407,1.2305366362576713,0.8147090107213826,33.92033,0.13879787246547523,0.7726645961413824,1.6270419177671838,0.09788583177530125,0.07426145905525673,0.7746841205126007,-1.0335436928433257,-0.7100991805092696,0.8793193091512468,-1.2300276238175374,1.0879455943066705,23.38845,-1.1622899856751427,0.8123329151685789,-0.13945273460167631,-1.0899873818500398,LL
-1.7284246896142939,0.8371422724879861,0.11452044093808232,-0.08338332082989464,0.3289683482871367,1.559247907462325,0.8136384712765047,33.91683,0.13812670533495894,0.7608571156103475,1.641655716494697,0.0838388539223151,-0.00043429538899278743,1.0884141233753317,-1.2133038102692986,-1.5091202082575654,0.7022804870131918,-0.9728549815524273,1.0880996387827497,23.38074,-1.1638038785095821,1.1598479519526754,-0.08353338135308916,-1.1991178956082815,LL
-1.7664848695532473,0.9336871006755582,0.16278360108118287,-0.3528558410719514,-0.038595574887943934,1.5044626357877233,0.8140607639878551,33.9142,0.13842060588895327,0.8442932876031576,1.666862549194976,0.13066800078069615,0.018772659831653896,1.2859481814295015,-0.9463857171834853,-1.5091202082575654,1.528461399301072,-1.1014415834319473,1.0898543293091247,23.38735,-1.1652660143240425,1.2359883494476338,-0.05557858124646797,-1.1959415933857875,LL
-1.829011353577006,0.904723751080431,0.0980906258551184,-0.7233803799003299,1.064096194637298,1.7236033636431738,0.813472844784521,33.92772,0.13751417701689883,0.806034467180466,1.752885200014977,0.06948738240868256,0.01663884508135359,1.2162301386045566,-1.0389900901652338,-1.6971246851216346,1.6169807137364582,-0.24419860966558418,1.090741413016202,23.391,-1.16627527621367,1.2063628387402963,-0.06930175217846658,-1.201868108508246,LL
-1.7610475419159768,1.08333024974084,0.13813887845673672,-0.6223282730617834,1.064096194637298,1.997529363173226,0.8147901786710967,33.94032,0.13808148986511387,0.8986223670834801,1.7431064759772983,0.13658478594987342,0.04224899286486405,1.100034193795996,-1.1043580141062097,-1.5091202082575654,0.08503503591471145,-0.5013713361547838,1.0900331625514699,23.37203,-1.1676080194781777,1.1195168589670044,-0.10474103160841944,-1.2102866005776236,LL
-1.8969751652380364,0.9167917310274473,0.12787013887772203,-1.0602210302029007,0.43923746505106626,2.1618848193540754,0.8146980420795297,33.9531,0.13766112729389599,0.8455729969245726,1.780317813204491,0.085363441670982,0.04011430395858243,1.134894405057989,-1.0716729365279132,-0.28708806084843613,1.4989548967335158,-0.5442332560343255,1.0907803667917628,23.36582,-1.1689148842326942,1.139207546795392,-0.0971473182892299,-1.2092407449677796,LL
-1.829011353577006,0.8661056220831134,0.13813887845673672,-0.3191715112850199,0.21869923152320722,1.2305366362576713,0.8144995096619858,33.95547,0.13712136762261765,0.8123366798095378,1.704301542963162,0.09371052427084273,0.005968023017889441,1.0767964326537092,-1.2350938619881628,0.13592228916778107,1.1743839482922445,-1.2300276238175374,1.0921667670764765,23.35954,-1.1706746229120435,1.15468474990715,-0.09205623383942665,-1.2097313932785694,LL
-1.7936703942176584,0.8830009917312243,0.15970306332920847,-0.1507515170795774,0.29221189578103407,1.2305366362576713,0.8146673298823401,33.95429,0.137081804086503,0.8250724695831394,1.6685419539858315,0.11692763603379032,0.027309667144817737,1.169752236620941,-1.115253039965642,-0.28708806084843613,0.46622885300730676,-1.272889543697079,1.0938152200331415,23.34857,-1.1727190252012898,1.187108028641215,-0.09019015307685502,-1.2245024897929346,LL
-1.8018258289125948,0.8902415819771436,0.16278360108118287,-0.25180373423340485,0.475993917557169,1.449677364113122,0.8149009619538147,33.95493,0.1371545727332853,0.832190236912343,1.674541579443046,0.11934662975549329,0.025175852394517428,1.169752236620941,-1.0389900901652338,-0.9451052383761257,0.5842548632775318,-0.6299582187812688,1.0944579573298865,23.34198,-1.1736635908159392,1.1637956575660693,-0.07878560374741052,-1.1937853231778317,LL
-1.8154185912448004,0.8854151808874965,0.1309506766296964,-0.4539079479104979,0.7332888443455096,1.997529363173226,0.8146344239567809,33.96067,0.13681757618459453,0.8137696477323195,1.7084168727426292,0.09301393320495534,0.01023652667447136,1.169752236620941,-1.115253039965642,-1.4621183193969318,0.7022804870131918,-0.6728201386608105,1.0951909965608846,23.33752,-1.1748798807854897,1.1933343470996827,-0.07600663887659842,-1.2054575882556202,LL
-1.8344486812142766,0.8588650318371929,0.14532708028377753,-0.6223282730617834,0.9170708661216445,1.8879591786669783,0.8142450371709898,33.96672,0.1365816079513393,0.814600528292588,1.6993053574904717,0.09729521298110062,0.08279759221243928,1.1174631095774716,-0.9463857171834853,-0.9451052383761257,0.997345319421472,-0.9728549815524273,1.093887815705777,23.32192,-1.176173806285014,1.0678104203628462,-0.11833741308094015,-1.2027590225462632,LL
-1.8969751652380364,0.8974831608345116,0.17305234066019803,-0.6560123822181528,0.9170708661216445,1.559247907462325,0.8148526999296606,33.9763,0.13660068322768032,0.8636016819668146,1.7350071567304737,0.11617381994119198,0.048651311271746274,1.2568991952273616,-0.8973592164238484,0.18292334681222902,1.1448772524574056,-0.24419860966558418,1.0958425869884385,23.32124,-1.1769372223297316,1.1842500173510873,-0.07597542916349621,-1.2004736343617863,LL
-1.8806642958481652,0.9071369516252556,0.14738049171266035,0.017668830134764262,-0.8839926583792242,1.997529363173226,0.8156161174026472,33.9767,0.13646644980157718,0.8489676749448528,1.748874942485198,0.10056269135810919,0.04011430395858243,1.105845418855849,-0.979070794761782,-0.14608485712930763,0.43672254370703306,0.22728495150796985,1.0954902323822342,23.3118,-1.1766266802098433,1.084767127149283,-0.0869807542461744,-1.1632876571228197,LL
-1.861634205878689,0.9578230605695895,0.14327324824624454,0.7587182166743079,-1.1780437969192887,1.0661811800768222,0.8172416701252998,33.97647,0.1362085803251157,0.8657538706117263,1.759240319916972,0.10776456694194156,-0.00897130270215687,1.105845418855849,-0.9899635894055968,-0.09908379948485965,0.5252418581424193,-0.41564732794752135,1.0956336531013426,23.3152,-1.1757338716151766,1.1070234692542393,-0.0473333651662693,-1.1129187344807367,LL
-1.739299344888835,0.9674768513603325,0.14224612192315297,-0.049699366114918514,-0.3694030455569219,1.2853219079322729,0.8177550025640322,33.97204,0.13631949952458,0.8412806613820001,1.6781893377114,0.12405038565476321,0.03798048920828213,1.2220413636644096,-1.0063072438025544,-1.6971246851216346,-0.44847118044867723,0.2701468713875116,1.0961400521836262,23.30046,-1.176471409149903,1.1931164082350296,-0.0827238794194999,-1.215980703342342,LL
-1.8235740259397355,0.8926557711334159,0.10425170135906761,0.08503702638444703,0.5495065818149958,1.7236033636431738,0.8175849886153066,33.98015,0.13555860794608962,0.802855445906395,1.7391014720600029,0.07296256643819735,0.06359063699179235,1.2743281110088371,-1.0934629882467775,-1.368116388822744,0.7022804870131918,0.6987683161586484,1.098169189765085,23.28555,-1.1785287506941413,1.2558668545089744,-0.11269625743770989,-1.2973508521478796,LL
-1.820855918882071,0.8685198112393845,0.1063055333966006,0.051352784849740374,0.5495065818149958,2.4905960905587285,0.8171813425951072,33.98658,0.1349990665067542,0.7922313407187728,1.7257888180244658,0.07110593223824527,0.11907856205941388,1.3149971676316414,-1.191513758550434,-1.5091202082575654,0.5842548632775318,0.39873291177310183,1.1009579259699696,23.25252,-1.18303161143248,1.3019263730997181,-0.16962017332677534,-1.4113620254187358,LL
-1.9132871481498481,1.0012675906565554,0.1391655841711786,0.25345724122045155,0.29221189578103407,1.6140328202939709,0.8190043308711179,34.00161,0.13487119150609805,0.89564915021696,1.8160091052195246,0.10484962298874424,0.01023652667447136,1.2046100681838923,-1.0662265392060062,0.08892120073754846,0.20067079374077845,0.7844924366646968,1.1031464199059933,23.24844,-1.1830057329224886,1.2074117802677329,-0.0680293061671938,-1.2004090753735221,LL
-1.7556102142787062,0.9336871006755582,0.12068193705068124,0.42187756637173696,-1.2515564611771155,0.7374699088721687,0.8192993873369707,33.99348,0.13438583169697754,0.8160247385810062,1.6942233630138703,0.10033803014213323,0.027309667144817737,1.2220413636644096,-0.9191492681427128,-0.28708806084843613,-0.47797768301623345,0.6130436341586702,1.1042194193600627,23.24102,-1.1824622842126897,1.1693291784954363,-0.06252079180464815,-1.1710089121189655,LL
-1.7991066083329887,0.921619120728543,0.13300450866722938,0.9271383211950314,-2.427761015337374,-0.24866329470876775,0.8202185595242738,33.97963,0.133680046472361,0.8280796222828201,1.7097180174346054,0.10227237734132234,0.033711985551700206,1.0535562918123798,-1.2350938619881628,-1.6501227962610012,0.08503503591471145,1.3845618417009655,1.10324026309257,23.22159,-1.1826175552726301,1.1254012083126426,-0.11600318662183504,-1.2311004183933232,LL
-1.869789640573624,0.8781736020301285,0.14224612192315297,1.5334514034874343,-1.6191205047293855,-0.5225891865859331,0.821600608397784,33.97378,0.13273546704762404,0.829905589047679,1.73407726732073,0.09358547699025231,0.048651311271746274,1.2975682518501659,-1.0226486669838935,-1.368116388822744,0.08503503591471145,1.4274246038214022,1.1052623181693817,23.21053,-1.183445667592326,1.2589126830320552,-0.09002955309484979,-1.263173323761931,LL
-1.8426041159092128,0.9409276909214775,0.17716000473526397,1.1292427555026863,-1.0310182276492565,-0.6869446427667822,0.8234839242039881,33.96937,0.13255884411854102,0.8738481141724973,1.7109123386727314,0.1328905925588729,0.03798048920828213,1.2859481814295015,-0.8537813442017369,-0.052082727986808616,-0.3009388608781784,1.2559758013153755,1.1070913749945535,23.20628,-1.1827598870775786,1.1993852513500152,-0.059721020458434415,-1.1828361187685807,LL
-1.7855138460007831,0.9095511407815268,0.1812676688103299,0.5566137823666529,-0.736967089109192,-0.13909296666533802,0.8244349054526648,33.9604,0.13264150364935207,0.8486633471507096,1.6554166787955722,0.13823865986999856,0.04224899286486405,1.2104212932437453,-0.9028078449613738,0.6999365509761739,0.023632087563092923,0.18442218938753333,1.108502564045533,23.2001,-1.1826434337826215,1.1484460284238645,-0.07364185290674714,-1.1772711339803907,LL
-1.7692029766109119,0.9554088714133173,0.13711175213364563,-0.18443547179455352,-0.25913390471755443,0.18961816100213336,0.8246674406599545,33.9592,0.13234124466991073,0.8394273270097541,1.6987484745671224,0.11446695988522372,0.057188318584910115,1.1465120957796116,-0.98451719208369,1.075946736135698,0.8793193091512468,-0.41564732794752135,1.1095932697612214,23.19287,-1.1833939105723432,1.11465487323848,-0.09996204428963858,-1.2001250158251704,LL
-1.7909511736380537,0.9264455218181902,0.15559581986279222,-0.01601513340543433,-1.2148002494253916,0.8470404522213717,0.8250710866801538,33.9504,0.13238646013975583,0.8421750347914063,1.687136239772378,0.12104006665704815,-0.12848503430654484,1.3149971676316414,-0.979070794761782,1.639960782443598,0.2301772769816065,-0.5442332560343255,1.115974606448462,23.23131,-1.1812848120081225,1.3264312064180483,0.0637667114541517,-1.0487083647552604,LL
-1.6903645096753404,0.9312729115192859,0.16791797087069069,-0.01601513340543433,-1.1780437969192887,0.7922551805467701,0.8251939354689103,33.93032,0.13297002229744664,0.8287944641877676,1.6080798791067266,0.14378030319740454,-0.015373621109039098,1.2801393360686901,-1.0389900901652338,0.2769263241030952,-0.24192604901034845,-1.9158219916007493,1.1193299430251324,23.23315,-1.18286340111754,1.2724496986901925,-0.039378789539335116,-1.1894082237736634,LL
-1.7093945996448177,0.9602362611144131,0.1391655841711786,-1.5991658941825646,-1.2148002494253916,-0.46780391491133166,0.824168367455631,33.91909,0.1326704698097214,0.8290309203155914,1.6567791156331995,0.1243732478425023,0.018772659831653896,1.233661434085074,-1.0880165909248707,-1.2741141503907094,-0.5664969974516197,-1.5729243865886962,1.1205711519645758,23.22108,-1.1849595604267653,1.2356853612699448,-0.07646828254956894,-1.2290990897571978,LL
-1.820855918882071,0.9554088714133173,0.13813887845673672,-1.6665336712341796,-0.18562116823341407,-0.8513004577905866,0.8235760607955551,33.92321,0.13195338071764395,0.8520667828053534,1.7341157938122822,0.10869429700554004,0.057188318584910115,1.2859481814295015,-1.1479358863283224,-0.5220940879295076,0.20067079374077845,-1.2300276238175374,1.123432483842096,23.20361,-1.1884531592754763,1.284921826074699,-0.11356752859514732,-1.314446072239684,LL
-1.8725077476312897,0.8757604014853049,0.16381072740427444,-0.7233803799003299,0.7700450560972335,-0.4130188585425034,0.8235256050430304,33.93079,0.13138889383629415,0.8423753656774788,1.7171781471624912,0.1089881934390179,0.06572445174209289,1.1755610819817521,-1.169725938047187,1.3579537592896482,0.6727741777129181,-0.7585442591668589,1.126012286159884,23.1855,-1.191105706549496,1.1953702150304684,-0.12867888155783955,-1.28939718479399,LL
-1.8453222229668773,0.9023095619241599,0.12992355030660485,-0.2854876227592124,-0.11210831137208434,-0.5773744582605347,0.8234729555621345,33.93544,0.13042453264349962,0.8279986141649546,1.7368774427749298,0.09113681103247717,0.07852996271183865,1.233661434085074,-1.1588309121877547,0.37092825467728324,-0.596003500019176,-0.15847457338362525,1.1285265753096845,23.15606,-1.193965281903439,1.2365216795147933,-0.13528883871195196,-1.322244798021743,LL
-1.910567927570242,0.8974831608345116,0.16278360108118287,-0.18443547179455352,-0.4796721623208514,-0.6869446427667822,0.8241486239002952,33.93958,0.12976184341357952,0.860591245154248,1.7529464921606295,0.10682000076030673,0.048651311271746274,1.1232743346373246,-1.0008586152650292,0.6529355856890797,-1.0090939561631163,-0.9728549815524273,1.1285690703375688,23.13615,-1.1946122446531993,1.1034088734502336,-0.09600946416571075,-1.1877296900788483,LL
-1.7528921072210404,0.8685198112393845,0.1658645594418074,0.21977313206408206,-1.2515564611771155,0.40875899651047054,0.8241464301719247,33.9248,0.1297802121982045,0.812703405748523,1.629269449460581,0.12435275986997621,0.052919814928328195,1.134894405057989,-1.115253039965642,1.592959817156504,-1.5992230411778288,-0.3299233197402589,1.130306054602325,23.10685,-1.1958414738777454,1.1484353972597348,-0.11326388409475693,-1.2395318222603533,LL
-1.7909511736380537,0.9192049315722708,0.11760139929870686,0.08503702638444703,-0.9942617751431537,-1.4539373696823368,0.8241047493328822,33.92178,0.12859683857334706,0.8156689596849754,1.7158367247748008,0.09128799814008341,0.01023652667447136,1.1232743346373246,-1.115253039965642,1.9689690787424887,-0.891067945892891,0.6559058347851768,1.1323298803052984,23.09475,-1.1953885999529124,1.1542807656702319,-0.0783369641215659,-1.187871719853026,LL
-1.7664848695532473,0.841969662189082,0.1514881557877263,0.18608917734910593,-1.5088513879654561,-0.6321597299351361,0.8237098782261651,33.90761,0.1280153958908054,0.7947414976683054,1.64015143211999,0.10770875487885305,0.027309667144817737,1.1232743346373246,-1.0008586152650292,1.4519559977216827,-0.8025486314575048,1.470286523700944,1.133131973956608,23.08315,-1.1938876463734687,1.1114371742286397,-0.07810224107094266,-1.1640365413866591,LL
-1.812700484187136,0.8661056220831134,0.1309506766296964,0.9945065395077703,-1.1780437969192887,-0.46780391491133166,0.824111330517994,33.90186,0.12713440072053847,0.804165806948083,1.6988360347751965,0.09033778010395885,0.052919814928328195,1.2801393360686901,-1.0280950643058016,0.04192014309310051,-1.0976132705985022,1.3845618417009655,1.1353788985559725,23.06428,-1.1944440343382632,1.2441601709417867,-0.09518305697085772,-1.2633670007267164,LL
-1.829011353577006,0.9023095619241599,0.11862810501314826,0.7250341075179385,-0.5164286148269541,-0.02952256685331719,0.8245720134758312,33.90438,0.12628449118579002,0.8173493307785361,1.734867060397556,0.08466049226879341,0.008101837768189749,1.1639433912601296,-1.0771215650654384,0.08892120073754846,-0.7730421288899485,0.2701468713875116,1.1362748353938592,23.05653,-1.1942499455133322,1.1772635706573655,-0.06969317399695718,-1.1867096580643064,LL
-1.8154185912448004,0.9529956708684938,0.1833215008478629,1.2302948623412329,0.14518647096362897,-0.13909296666533802,0.8265277223182664,33.90586,0.12658404367351528,0.8769986731348853,1.6915370158301666,0.14284209535207146,0.01663884508135359,1.2278502090252208,-0.979070794761782,0.22992443524246162,-0.09439376809330612,0.22728495150796985,1.137700189454133,23.05625,-1.1939782211584344,1.197372417608177,-0.061001268897982706,-1.183791591794862,LL
-1.7664848695532473,0.950582470323669,0.09706349953202682,0.6576658892051994,-0.07535201054124017,-0.35823369452078857,0.8268172944631923,33.91026,0.1256253344144517,0.8120597196227817,1.7283578345293509,0.08369402515101007,0.048651311271746274,1.2046100681838923,-1.0117536411244612,-0.0050809145513474405,0.05313857080392094,-1.144303503311489,1.1384544761990736,23.04726,-1.1954532962278908,1.1760587053893634,-0.09327211224570146,-1.223327516206566,LL
-1.812700484187136,0.8902415819771436,0.1668912651562488,-0.38653972959775895,-0.2958903572236572,-0.02952256685331719,0.8268096164138949,33.90755,0.1255334904913284,0.8371875620212043,1.6787357134097798,0.12104854443878277,0.005968023017889441,1.129083179998136,-0.9681757689023498,0.5119314583964116,0.3482030360043642,-1.6157871487091324,1.1383907336572474,23.05223,-1.1953497821879255,1.1139585319880023,-0.0557658395250815,-1.1301043371561037,LL
-1.7202692549193588,0.914377541871175,0.11862810501314826,-1.0265369210465314,0.07167359002686133,0.2444033250238482,0.8255372539589171,33.90538,0.12510465001951437,0.7974202390793423,1.6632953463180504,0.10016918098924577,0.03157817080139966,1.2278502090252208,-0.9028078449613738,0.08892120073754846,0.49573554884214566,-1.701510988468216,1.1390405534586396,23.05578,-1.19615201599763,1.1674563217479685,-0.06370481029546446,-1.1718740025616805,LL
-1.739299344888835,0.9312729115192859,0.1658645594418074,-1.2286413553541862,-0.25913390471755443,-0.4130188585425034,0.8249701751751037,33.89906,0.12521133026868084,0.8387913038140813,1.6442650106952963,0.13603726254615886,0.03584667445798182,1.129083179998136,-0.9518343457210096,0.6059343125441393,0.8203063040161344,-0.8442689411668372,1.1387094463663772,23.05711,-1.196061441212664,1.0972658324441131,-0.07873423776126318,-1.1572320240238363,LL
-1.829011353577006,0.9023095619241599,0.15456869353970112,-1.1949572461978166,0.03491716159619646,-0.3034484946147782,0.8244469709587041,33.9016,0.12486161686909608,0.8390978210168154,1.7050563119567574,0.11168200858529559,0.027309667144817737,1.2743281110088371,-0.9028078449613738,-0.3340898881375004,0.9088258117188032,-0.8871308610463788,1.1398249408483307,23.06556,-1.1965401936474884,1.2090312609367821,-0.05768978829736343,-1.1847987120117511,LL
-1.8018258289125948,0.904723751080431,0.13711175213364563,-0.6560123822181528,0.1084300184575262,-0.35823369452078857,0.8240115158771296,33.90413,0.12431549877237073,0.8233286056404419,1.7014926114881546,0.10237340424033033,0.03798048920828213,1.0361273760309042,-1.1370408604688902,0.18292334681222902,1.1743839482922445,0.22728495150796985,1.1387377763849666,23.06025,-1.196436679607527,1.0780500032801732,-0.10841662552856472,-1.193049350711645,LL
-1.7909511736380537,0.9336871006755582,0.1484076180357519,-0.3528558410719514,0.43923746505106626,0.08004779707440808,0.8241639799988899,33.908,0.12419610167231075,0.8411876115168845,1.6959763183795065,0.11678775263516357,0.003833334111607829,1.0942253484351847,-1.1642773095096615,0.37092825467728324,0.7317869895807482,-0.15847457338362525,1.1392264692056318,23.06023,-1.1964884366275057,1.1477709495016457,-0.08064908370055707,-1.1879750142342451,LL
-1.818136698302465,0.8830009917312243,0.16381072740427444,-1.0265369210465314,1.2111215231529515,-0.08356815554411773,0.8236616162020104,33.91494,0.12403502156098697,0.8332105013157295,1.6822293657119238,0.11692975547922423,0.04438280761516435,1.0593651371731911,-1.044436487487142,-0.09908379948485965,0.40721604113947674,-0.41564732794752135,1.1376576944262493,23.05127,-1.196436679607527,1.0651668042159954,-0.10113370893568527,-1.174559656473381,LL
-1.869789640573624,0.8564518312923693,0.1668912651562488,-1.1949572461978166,1.872736945999665,-0.13909296666533802,0.8231329276646839,33.9276,0.12369590553714706,0.8346653633244208,1.7051613842064457,0.10861940993354788,0.04224899286486405,1.1871811524024165,-1.0553315133465742,-0.28708806084843613,0.7022804870131918,-1.3157523058175156,1.1381888822747988,23.04732,-1.1980799649919192,1.177462019054448,-0.09426757205319171,-1.2256645515816542,LL
-1.7909511736380537,0.9457550806225733,0.0980906258551184,-1.1612731370414473,0.5862632750754773,0.02526263305269322,0.8221556216755588,33.93752,0.12285164793612954,0.816217406537011,1.7427772495949407,0.08064273020824234,0.03584667445798182,1.129083179998136,-1.0716729365279132,0.22992443524246162,-0.00587441500446336,-0.07275056517636277,1.1383145967322885,23.03792,-1.198325810836829,1.1358799924228813,-0.09387354942527602,-1.2022683742354734,LL
-1.8072631565498654,0.9119643413263514,0.12581630684018905,-0.2854876227592124,0.21869923152320722,-0.5225891865859331,0.8220064481463539,33.94172,0.12214656920322958,0.8211107347378015,1.7175511536488857,0.09431456621945725,0.01663884508135359,1.2452791248066966,-0.979070794761782,0.41792952782222365,0.49573554884214566,-0.8014067405403305,1.140138341678975,23.04287,-1.1988304417816409,1.2122489599466224,-0.06011114187221246,-1.1904024321928997,LL
-1.7746403042481824,0.88782838143232,0.16381072740427444,0.08503702638444703,-0.3694030455569219,-0.5773744582605347,0.8222038836997129,33.93508,0.12200739033511203,0.8254271537748744,1.6537425276172015,0.12314750189999203,0.05932213333521042,1.2510903498665495,-1.0226486669838935,0.7939394051239014,0.2891902241365342,-0.3299233197402589,1.1423038174748947,23.03346,-1.2003313953610848,1.2152859291662623,-0.10133007004728684,-1.257401750211299,LL
-1.8072631565498654,0.9288597109744624,0.15559581986279222,-0.049699366114918514,-0.44291595056912736,-1.0156559139714356,0.82273257223704,33.93335,0.12166898080298867,0.8470705524007878,1.6994997411523962,0.11935863994628475,0.0678591406483745,1.1232743346373246,-0.9954122179431223,0.08892120073754846,0.17116442646031998,-1.144303503311489,1.1414149631416555,23.02022,-1.2013535965057078,1.0944538895318798,-0.11150898793511198,-1.206968268580952,LL
-1.8725077476312897,0.88782838143232,0.12992355030660485,-0.18443547179455352,0.40248101254496355,0.2444033250238482,0.8227621875700439,33.94258,0.12102395386597697,0.8276121835486507,1.7500184788026425,0.08549272784244023,0.057188318584910115,1.0826052780145203,-1.1533845148658468,-0.7571001457963638,-0.21241954644279215,-1.4014764263235642,1.140242808622523,23.00045,-1.2031521529500442,1.1151456786491216,-0.12407674927997141,-1.237982406542063,LL
-1.8507595506041479,0.921619120728543,0.1494343237501933,-0.6896962707439603,0.5862632750754773,0.8470404522213717,0.8228696802602056,33.95071,0.12101900842396258,0.8500229698856943,1.732119421068201,0.10811639488394134,-0.011105117452457179,1.0942253484351847,-1.0716729365279132,-0.6630982152221757,-0.33044536344573466,-0.3727853238438902,1.1393858255601967,23.00114,-1.2021817088254036,1.124097118846099,-0.05663711068251893,-1.1370250606978023,LL
-1.8154185912448004,0.9578230605695895,0.1843482065623043,-0.48759183643630544,-0.07535201054124017,0.6278997243659211,0.8237471716084664,33.95012,0.12166262237754166,0.8798766507276997,1.692563221468791,0.14436880254617176,-0.00470279904557495,1.134894405057989,-1.0117536411244612,0.8879416435559359,-0.24192604901034845,-0.3299233197402589,1.140079911015635,23.00365,-1.2012112647007631,1.1368722344082947,-0.05217412170889832,-1.1368959427212775,LL
-1.788233066580388,0.9071369516252556,0.10117116360709277,0.21977313206408206,-0.4796721623208514,-0.6321597299351361,0.8234861179323587,33.95051,0.12060005883617733,0.7993731915424767,1.7227137035169156,0.07728623512301724,0.01023652667447136,1.1465120957796116,-0.9028078449613738,1.122947701422792,-0.12390023200740591,0.18442218938753333,1.1403419636875856,23.00768,-1.1995032830413925,1.1060471740150202,-0.04996928551869621,-1.1165727732163713,LL
-1.7338620172515644,0.9529956708684938,0.13711175213364563,0.354509348058998,0.14518647096362897,-0.5773744582605347,0.8239435102976397,33.94902,0.12040012168045497,0.8300665105791142,1.6729024523479048,0.1185645543904452,0.04224899286486405,1.0361273760309042,-1.1533845148658468,0.2769263241030952,0.2891902241365342,0.01297414489831193,1.1393964493171673,22.9951,-1.19969737186632,1.0817372453723963,-0.11395830021128187,-1.2037144955725445,LL
-1.8969751652380364,0.8998963613793352,0.14224612192315297,-0.4202238387541284,-0.5531850673330568,-0.19387809480275733,0.8241497207644809,33.95343,0.11981514653933154,0.8463075435068395,1.761581679880865,0.09354944641787892,0.11054242890223134,1.1929923774622697,-1.2350938619881628,-1.3211144999621103,-0.03538078228492182,0.7844924366646968,1.1397859870727707,22.96206,-1.20267340051522,1.215089252629868,-0.1732463518678421,-1.3692695650718525,LL
-1.8996943858176425,0.8612792209934651,0.15764923129167552,-1.1275890278850778,-0.7737235416152947,-1.1800113701522847,0.8236747785722346,33.95341,0.1190613198780047,0.8382461410749323,1.7353801632168682,0.0987555108849439,0.057188318584910115,1.2104212932437453,-0.8810177932425094,0.08892120073754846,-0.15340654130767956,-0.02988785920531929,1.1397647395588288,22.9565,-1.2024793116902925,1.1357116656574988,-0.08351972710360699,-1.1858962148122063,LL
-1.818136698302465,0.9095511407815268,0.14429995396068596,-0.18443547179455352,-0.9207491108853271,-0.7417299144413837,0.8238173709163269,33.94981,0.11861552360499832,0.8337348646732639,1.7088511713746748,0.10648371541815425,0.029443481895118046,1.105845418855849,-1.12069943728755,1.5459579282958704,-0.44847118044867723,0.05583614900194317,1.1409546003395792,22.94491,-1.2025957649852497,1.1343136675744792,-0.09582545689887881,-1.2044762916340368,LL
-1.7719210836685764,0.9023095619241599,0.15559581986279222,0.38819345721536747,-2.354248351079547,-0.35823369452078857,0.824221016936527,33.93209,0.11854063548306737,0.8265218580703538,1.664300537506738,0.1196285159981802,-0.002568984295274399,1.2685192656480258,-0.8919128191019416,-0.6160969420772351,-2.012313110787203,0.5273197943995868,1.1418452252989806,22.94148,-1.201172446935776,1.2119087626944804,-0.03133773699901351,-1.1441136376089804,LL
-1.8670715335159596,0.8781736020301285,0.16278360108118287,1.2639789714976024,-1.4353384829532505,0.18961816100213336,0.8255602881068093,33.92616,0.11841770592442512,0.8416243985307807,1.7152062912766697,0.10927785098162847,0.025175852394517428,1.1639433912601296,-1.1261480658250742,-1.9791310925598915,-2.3958964845617396,0.7844924366646968,1.1410555260308035,22.91715,-1.2012112647007631,1.1864134592514257,-0.09006921543858379,-1.2239343706962316,LL
-1.8480414435464834,0.9119643413263514,0.15970306332920847,0.826086214356485,-0.4061594980630246,0.08004779707440808,0.826741610834405,33.92693,0.11837319694629658,0.8510826436437181,1.7178576143771442,0.11463792848354508,0.01663884508135359,1.2278502090252208,-1.0172000384463693,-0.8041014189413042,-0.44847118044867723,-0.5870960181547621,1.141733675850785,22.91554,-1.2016641386255924,1.2093909486564947,-0.0659187493186546,-1.1981236871890453,LL
-1.8317294606346717,0.8612792209934651,0.16483743311871582,-0.5212761662232368,0.29221189578103407,-0.6321597299351361,0.8264301014057727,33.92789,0.11808282885088353,0.8268962469394074,1.6823221795324816,0.11259195715817895,-0.02391062842220294,1.1407032504188004,-1.0607801418840983,0.2769263241030952,0.43672254370703306,0.01297414489831193,1.1423958900353102,22.92779,-1.2004607879110376,1.1645150330054936,-0.04225918597772958,-1.1360954112668267,LL
-1.7637656489736413,0.921619120728543,0.1668912651562488,-0.6896962707439603,-0.1488647398027492,-0.6321597299351361,0.8263094463453867,33.92324,0.11820010647579485,0.8405395465739606,1.6568141397164289,0.13217280703864795,0.020907348737935507,1.1116542642166602,-1.2133038102692986,0.8409403704109955,1.0268516287217457,0.09869806888148494,1.1436813646287995,22.92673,-1.2011206899157936,1.1714749017888924,-0.09994448882601854,-1.231319918953414,LL
-1.9241606899024488,0.9385144903766539,0.1812676688103299,-0.25180373423340485,0.659775939333304,0.02526263305269322,0.8275434185538777,33.93575,0.11835553465338818,0.8937783005759862,1.763066701009796,0.1252104287888279,0.0016995193613075208,1.0593651371731911,-1.0716729365279132,0.8409403704109955,0.7022804870131918,-0.45850936012584903,1.1433130743871387,22.93272,-1.2002796383411058,1.090047272000232,-0.06902801698646563,-1.137967621926427,LL
-1.8426041159092128,0.9433408914663022,0.17202563494575662,0.08503702638444703,0.6965323918394067,1.0661811800768222,0.8285602116536747,33.94286,0.11889388134123341,0.8718853093707037,1.7161519415238669,0.12944154835637445,0.014504156175071977,1.1813723070416053,-1.0335436928433257,0.6529355856890797,1.0858644405895757,-0.6728201386608105,1.144508247046375,22.94165,-1.2005384234410115,1.175876203738475,-0.06858848019360905,-1.1842047693197384,LL
-1.7855138460007831,0.9819590204636198,0.1319773823441378,-0.6223282730617834,0.6965323918394067,1.1757513645830697,0.8286534451094273,33.95086,0.1191192521987438,0.852572536189865,1.725093589972361,0.11270993962065719,0.0016995193613075208,1.0826052780145203,-1.0989093855686856,-0.6160969420772351,0.790799801448578,-1.1871657039379957,1.1434865957509985,22.94697,-1.2005384234410115,1.1181932790328906,-0.07127251552040195,-1.1569737880707867,LL
-1.7963885012753242,0.8926557711334159,0.15764923129167552,-1.3296934621927328,1.1743655521556062,0.8470404522213717,0.8278187314643946,33.95549,0.11930364653670643,0.8289367757461799,1.6759302843430963,0.11657015623730028,0.027309667144817737,1.2220413636644096,-1.0117536411244612,-1.0861084420952543,0.8498128065836906,-0.9299927809259205,1.143665428993343,22.95202,-1.2013924142706949,1.1987810468553262,-0.07445655645918704,-1.20594823656641,LL
-1.8861005099634953,0.9361003012203817,0.11246702950919951,-0.9591687027337923,0.9905835303794712,0.3539737248358691,0.8274852847520557,33.97283,0.11858938341149425,0.8428220050300345,1.7934168203323286,0.0780909179060253,0.020907348737935507,1.2743281110088371,-0.9954122179431223,-0.09908379948485965,1.0858644405895757,-0.6728201386608105,1.1455139627062956,22.96136,-1.2021558303154123,1.2406199932866873,-0.06433680698578474,-1.2124299589879264,LL
-1.8725077476312897,0.9385144903766539,0.15251486150216814,-0.48759183643630544,0.43923746505106626,0.18961816100213336,0.8279668081294137,33.98145,0.11848129017889517,0.8647850573102273,1.751379164436109,0.1103114338714798,0.01237034142477167,1.1174631095774716,-1.1969623870879582,-0.5220940879295076,0.6727741777129181,-1.0157169014319691,1.145641447789947,22.9598,-1.203281545499997,1.174288616561814,-0.09060043076367819,-1.2181498853479469,LL
-1.8888197305431014,0.8564518312923693,0.13505792009611267,-0.9254848142079848,0.5127503700632718,0.2991884531612676,0.8271957126071298,33.98977,0.11785533851822448,0.8199536322974802,1.7445739850646138,0.08247110513574468,0.04011430395858243,1.1116542642166602,-1.0389900901652338,-1.5561205578289663,-0.2714325515779047,-1.0585796635524054,1.1435875214422229,22.94998,-1.2038120549548001,1.1090947743987891,-0.09422660930474518,-1.188078308615464,LL
-1.8371667882719422,0.88782838143232,0.10527882768215871,-0.9591687027337923,-0.33264683380519783,-0.08356815554411773,0.8261054296069161,33.99291,0.11690793312662229,0.8044427671348392,1.7458085839984554,0.07130092121814856,0.04651749652144597,1.100034193795996,-1.0716729365279132,-1.1331103309558879,-0.24192604901034845,-0.5870960181547621,1.1419603159994998,22.93766,-1.204277868134629,1.1074434002373517,-0.1042475280199902,-1.2028494051298295,LL
-1.820855918882071,0.8636924215382886,0.20283185368280165,-1.0939051393592703,-0.4061594980630246,0.9566106367276194,0.8258750881279978,33.98409,0.11768578050630452,0.8485166567751156,1.6444786576029957,0.14253548224599114,0.057188318584910115,1.0826052780145203,-0.9681757689023498,0.37092825467728324,0.2891902241365342,-1.701510988468216,1.14052965006074,22.9304,-1.204847195354419,1.0550140424723926,-0.10117597208884457,-1.1689817598875383,LL
-1.8262932465193416,0.904723751080431,0.12581630684018905,-1.0602210302029007,-1.3985822712015266,0.40875899651047054,0.8250930239638603,33.9788,0.11727389583568283,0.8221890184688483,1.727969067205503,0.09079981920851321,0.07852996271183865,1.1465120957796116,-1.0716729365279132,0.2769263241030952,-0.12390023200740591,-1.1014415834319473,1.1406252638734784,22.91176,-1.2066975088187342,1.134990518357386,-0.12879461757726038,-1.256291335613191,LL
-1.7066764925871518,0.9409276909214775,0.16791797087069069,-0.18443547179455352,-1.6191205047293855,-0.19387809480275733,0.8252740065544396,33.96095,0.11774795177734196,0.8370638604358156,1.6233608866197622,0.14325891962070583,0.018772659831653896,1.1174631095774716,-1.1315944631469823,-0.24008700320398818,-0.3894583685808472,0.39873291177310183,1.140632346378126,22.90399,-1.206425784463833,1.1514262981014804,-0.0877499436336734,-1.201170871435018,LL
-1.8507595506041479,0.8709330117842091,0.1494343237501933,0.017668830134764262,-0.08327296683072816,-0.08356815554411773,0.8253771117878601,33.96233,0.11738128257656535,0.826460554629807,1.712045367765206,0.1002179282342216,0.020907348737935507,1.2278502090252208,-1.0989093855686856,-1.368116388822744,-1.304158402036831,0.01297414489831193,1.1413211199550783,22.89183,-1.207072747213597,1.2333819423752357,-0.07991890645443576,-1.2333470711848413,LL
-1.8861005099634953,0.950582470323669,0.1494343237501933,0.4555614548975445,-0.9942617751431537,0.6826849960405226,0.8267054143162895,33.96453,0.11740247732805503,0.8717178196134951,1.768202982815404,0.10815949027442741,0.023041163488235816,1.1929923774622697,-0.9518343457210096,-1.7911266156958228,-1.0090939561631163,0.39873291177310183,1.1401046997819002,22.88685,-1.2061152423439485,1.1565646940973704,-0.06465475593801381,-1.16745816776455,LL
-1.9160052552075126,0.9650636508155089,0.1319773823441378,0.18608917734910593,0.475993917557169,0.40875899651047054,0.8278757684020316,33.98038,0.11705064445332161,0.8750128795428871,1.8094525968389596,0.093502818618337,0.04651749652144597,1.2220413636644096,-1.1424894890064146,-0.7571001457963638,-0.2714325515779047,0.01297414489831193,1.1413494499736678,22.87473,-1.2076291351783914,1.232857471611517,-0.10703884673557215,-1.275956003437824,LL
-1.9214425828447832,0.904723751080431,0.15354198782525927,0.08503702638444703,1.064096194637298,-0.19387809480275733,0.8286633168870953,33.99464,0.11665712856732438,0.8609535922760514,1.7710294263320256,0.09967746964861873,0.025175852394517428,1.1929923774622697,-0.9354906913240532,0.3239272893901892,0.05313857080392094,0.22728495150796985,1.1417991890187729,22.87827,-1.2067104480737298,1.1505191054291024,-0.06434135840227888,-1.1636620992547413,LL
-1.8317294606346717,0.8781736020301285,0.12889684459216344,-0.21811940444647343,0.5127503700632718,-0.19387809480275733,0.828255283410154,33.99974,0.1160424807741146,0.8129737977095065,1.7186176369832245,0.08830523193300663,0.04438280761516435,1.2162301386045566,-0.9245956654646209,2.7679894907750913,-0.359951866013291,-1.0157169014319691,1.145761850368952,22.8726,-1.2074738641184475,1.1596512754162809,-0.07795724594548843,-1.1902087552281142,LL
-1.7338620172515644,0.9167917310274473,0.14327324824624454,0.354509348058998,-0.8839926583792242,-0.35823369452078857,0.8284900123458141,33.98616,0.11593226806636685,0.8169005020173896,1.653458832543042,0.11745679091041268,-0.028179132078784856,1.2452791248066966,-0.9245956654646209,2.0159700440295825,-1.03860026546339,-1.9158219916007493,1.1487843092271977,22.88293,-1.2071115649785802,1.2120700020171102,-0.015424684531007508,-1.118535366459538,LL
-1.6658982055905338,0.8540376421360971,0.17613329902082256,0.1524049358143993,-0.957505322637051,-1.3443671851760892,0.8279426771173367,33.96366,0.11604460024926376,0.7922981176807964,1.5540867524001125,0.14059124430144448,0.048651311271746274,1.1581321662002766,-0.9028078449613738,1.4989569630087767,-0.8025486314575048,-1.1014415834319473,1.149005637497427,22.87488,-1.2070598079586015,1.101188732007872,-0.08177783499108818,-1.1641785711608368,LL
-1.7148319272820882,0.9843722210084445,0.1391655841711786,-0.5549600547490444,-0.4061594980630246,-2.0565746404170424,0.8279053837350355,33.95837,0.11572526599348142,0.841650671433872,1.6701845834892957,0.12753546042963507,0.07212677014897512,1.1871811524024165,-0.913702870820806,1.404954724576742,-0.21241954644279215,0.05583614900194317,1.1496218154017441,22.86494,-1.2071245042335759,1.1207536177273942,-0.10160185463221874,-1.2060515309476292,LL
-1.8426041159092128,0.8733472009404802,0.15046145007328487,0.051352784849740374,0.475993917557169,-1.618292825863186,0.8279777767712674,33.96257,0.11499828601737522,0.8263083907327354,1.7064800409400371,0.10237976257663155,0.03798048920828213,1.1988012228230809,-1.0172000384463693,1.9219681134553948,0.31869672670409055,0.6987683161586484,1.1517819793191786,22.86425,-1.2068398406236827,1.1767851682715411,-0.08528112528681488,-1.2111258674250291,LL
-1.839886008851547,0.8733472009404802,0.16791797087069069,0.6576658892051994,0.5495065818149958,-2.0017890098994853,0.8286907384917285,33.96529,0.11444227703662108,0.8362242222411828,1.6901903398299913,0.11575558270893467,0.06999295539867481,1.233661434085074,-0.9191492681427128,0.08892120073754846,-1.4811972241748863,1.2988380019418821,1.152070591383557,22.84674,-1.2064904807388113,1.1632765023844156,-0.09811221858597444,-1.2239601942915335,LL
-1.858914985299083,0.8974831608345116,0.18948257635181212,-0.2854876227592124,0.43923746505106626,-2.1661444660803344,0.8292852388801751,33.96762,0.11423810093060087,0.8647587844071359,1.6950079024782103,0.1331703593561259,0.04438280761516435,1.105845418855849,-1.2296452334506387,1.592959817156504,0.2891902241365342,0.31300879126705333,1.1536358249106158,22.83501,-1.2074738641184475,1.1633686391402036,-0.1216124823496068,-1.2607846411962313,LL
-1.8072631565498654,0.8781736020301285,0.15764923129167552,0.051352784849740374,-0.5899415198391597,-1.6730780975377875,0.8292984012503993,33.96186,0.11373578532028851,0.8247221642085862,1.677830340858297,0.11293036194576535,0.03584667445798182,1.105845418855849,-1.1424894890064146,1.639960782443598,-0.33044536344573466,-0.3299233197402589,1.154623834308918,22.82449,-1.2080431913382377,1.1388956993142618,-0.10384635316615506,-1.2195572712920595,LL
-1.7093945996448177,0.9023095619241599,0.12787013887772203,-0.7907483775825069,0.25545568402931,-2.4400708244533416,0.8281368220781394,33.95729,0.11294027564769786,0.7949330709200143,1.64318977134015,0.10661088214417808,-0.006837487951856562,1.2220413636644096,-1.1533845148658468,0.13592228916778107,-0.5074841855837898,0.6559058347851768,1.1567450444507923,22.82484,-1.2079526165532717,1.2553282088597504,-0.06411378757757509,-1.2199704488169358,LL
-1.8426041159092128,0.8516244415912735,0.14532708028377753,-0.9254848142079848,0.475993917557169,-1.837433912561592,0.8272264248043193,33.96103,0.11206069346086354,0.813144571579601,1.7021160401696398,0.09515386661121676,0.018772659831653896,1.2104212932437453,-1.0335436928433257,0.7469375162632678,0.790799801448578,0.01297414489831193,1.1582111229127885,22.83304,-1.2079008595332892,1.1989298831531383,-0.07068213178088448,-1.2000346332416043,LL
-1.8670715335159596,0.904723751080431,0.15559581986279222,-0.38653972959775895,1.5419295957078762,-1.9470040970678393,0.8274600568757929,33.97457,0.11142485091616408,0.8496310657479128,1.7316448447404411,0.10804292077557212,0.029443481895118046,1.0245073056102398,-0.9354906913240532,1.7809639861627264,0.2596837602224345,0.39873291177310183,1.1566618250211862,22.83516,-1.2056494291641198,1.0057137906828617,-0.07675567199105207,-1.103402739610904,LL
-1.869789640573624,0.9529956708684938,0.11452044093808232,0.42187756637173696,1.5051729024473948,-0.9608706422968343,0.8282487022250422,33.99395,0.1106123854423816,0.8481324155674026,1.787147509434246,0.08430795784498216,0.01237034142477167,1.0419362213917154,-0.9736221662242578,1.8279652593076672,0.40721604113947674,0.31300879126705333,1.1557534938001663,22.84139,-1.2035791483648859,1.0396059419274757,-0.06638624481283203,-1.1059721873437363,LL
-1.8045439359702593,0.9240323212733665,0.18229437452477132,0.4555614548975445,1.3581475739317412,-0.7417299144413837,0.8292698827815803,33.99848,0.11098400008517259,0.8603777778166296,1.6734996129669684,0.1388843842454762,0.06999295539867481,1.2627104202872146,-0.98451719208369,1.592959817156504,1.3809290797305733,1.0845272795563137,1.1581615453802572,22.8432,-1.2040837793097015,1.2092421123586827,-0.10496014980249145,-1.2598291681699536,LL
-1.7963885012753242,0.921619120728543,0.14019228988562002,-0.2854876227592124,0.6230194868272013,-0.3034484946147782,0.8291788430541982,34.00226,0.1108455277087711,0.8318158480432893,1.7018393499121272,0.10802596521210238,0.061455948085510734,1.105845418855849,-1.1479358863283224,0.5119314583964116,0.40721604113947674,0.9988031590502653,1.1580198952873104,22.83099,-1.2044848962145518,1.1313493446430574,-0.12583034503490356,-1.2496804952151535,LL
-1.8072631565498654,0.9771316307625241,0.12889684459216344,-0.4539079479104979,0.9905835303794712,-0.7417299144413837,0.8294234437675263,34.01225,0.11057211541455039,0.8535030348410217,1.7410260454334656,0.10685603133268012,0.06999295539867481,1.1929923774622697,-1.186067361228526,-0.4280921573553196,-0.4189648711484035,0.5701817142791284,1.1587635582752798,22.81057,-1.206257574148897,1.2136894826861602,-0.13340780329518562,-1.3068151998271045,LL
-1.8806642958481652,0.904723751080431,0.15354198782525927,-0.7907483775825069,0.9538270778733685,-0.24866329470876775,0.8293554381880356,34.02244,0.11039266651860216,0.8515380406306372,1.7427877568199093,0.10479946278014597,0.04438280761516435,1.070985207593856,-1.0226486669838935,-0.14608485712930763,0.11215144065193568,0.22728495150796985,1.1568211813757505,22.80552,-1.2055329758691664,1.0678618043228052,-0.09782547934684759,-1.1708927059400935,LL
-1.858914985299083,0.8709330117842091,0.1484076180357519,0.017668830134764262,0.5862632750754773,-0.7417299144413837,0.8294026033480048,34.02715,0.10995958709649029,0.8277315063168578,1.7185615984500568,0.09843264869720533,0.01663884508135359,1.134894405057989,-1.0172000384463693,1.169948666709886,-0.6845228144545623,-0.115612569279994,1.157276232299341,22.80289,-1.2048730738644067,1.1305396043085323,-0.0706600249007703,-1.1627582734190713,LL
-1.7855138460007831,0.8830009917312243,0.12478918051709749,0.42187756637173696,0.21869923152320722,-0.24866329470876775,0.8292260082141674,34.02672,0.10953074662467624,0.8018932008306693,1.6916123176091102,0.09172389741762195,0.033711985551700206,1.105845418855849,-1.3385910296137262,0.08892120073754846,-0.7140293170221185,0.22728495150796985,1.1582199760435974,22.78307,-1.206503419993807,1.2010614315610884,-0.12601305189702297,-1.2883513291841462,LL
-1.777358411305847,0.9095511407815268,0.16175689536674145,0.6576658892051994,0.5495065818149958,0.08004779707440808,0.8298863204537333,34.02537,0.10986562369821783,0.834909482382313,1.6658608604146126,0.12470317484835355,0.018772659831653896,1.1813723070416053,-1.0553315133465742,0.18292334681222902,-0.47797768301623345,0.9988031590502653,1.158825530190944,22.78114,-1.205752943204085,1.1811758390569944,-0.07492795316750211,-1.1971423905674619,LL
-1.7338620172515644,0.9023095619241599,0.13813887845673672,0.21977313206408206,0.1084300184575262,0.5731144526913196,0.8296548821106294,34.01978,0.11006838682080541,0.8069846705089414,1.6519790650265957,0.11129203062548801,0.061455948085510734,1.3266172380523058,-1.0389900901652338,-0.5690959767901411,-0.15340654130767956,-0.02988785920531929,1.1608458146415932,22.77355,-1.2076679529433747,1.284330024604828,-0.10149782225521127,-1.295039640368097,LL
-1.7936703942176584,0.921619120728543,0.11452044093808232,-0.08338332082989464,-0.038595574887943934,0.6278997243659211,0.8293773754717428,34.02131,0.10983665753784802,0.8155594892554278,1.7212724624920215,0.08899334521715939,0.04224899286486405,1.030316150971051,-1.0662265392060062,0.6529355856890797,-0.09439376809330612,-1.144303503311489,1.159147784152397,22.76594,-1.207784406238332,1.0486548344623066,-0.10353230542806385,-1.1691108778640629,LL
-1.861634205878689,0.825074292540971,0.17099892923131474,0.25345724122045155,-1.4720949354593533,-0.08356815554411773,0.8294574465572713,34.00978,0.10978013820054154,0.8207856075620438,1.6838404735404813,0.10780907529605006,-0.00043429538899278743,1.0593651371731911,-1.1043580141062097,0.2769263241030952,-1.2746518994692748,1.2131138814358338,1.1582164347912738,22.75939,-1.205882335754034,1.1012897280671015,-0.07138109931390356,-1.1478580589281813,LL
-1.7610475419159768,0.8178337022950506,0.16073018965230004,1.3987151874925183,-0.08327296683072816,0.4635439093421167,0.8297152096408228,33.9996,0.1099560546379085,0.7879981192081554,1.6193716435399215,0.11148772608720327,-0.01964212476562102,1.2278502090252208,-0.9300442940021451,-0.8041014189413042,-2.51392288136653,0.48445759377307995,1.1582766360807764,22.75805,-1.2040190830347233,1.1956324504123277,-0.024199165329231772,-1.1238808506876405,LL
-1.7692029766109119,0.9071369516252556,0.1843482065623043,1.4997672943310647,-0.08327296683072816,0.02526263305269322,0.831198170019383,33.99204,0.11061662439267943,0.8456901302841887,1.6405226874022223,0.14221120709462962,-0.047386087299431785,1.2801393360686901,-0.979070794761782,-1.1801112962429818,-2.0418192268201945,0.18442218938753333,1.159487744375469,22.76736,-1.2025440079652672,1.2659824071781243,-0.004864748062392353,-1.1300656017631487,LL
-1.9404726728142605,0.9095511407815268,0.16381072740427444,0.7250341075179385,-1.8396587382572445,-0.5225891865859331,0.8326109310900828,33.99027,0.11038348212628993,0.873678435006698,1.7775123841378078,0.10568821689869229,0.03798048920828213,1.1523233208394648,-1.0989093855686856,-0.24008700320398818,-0.6550163118870059,0.44159567389353827,1.1593549474133316,22.75734,-1.2027769145551814,1.1633668672795154,-0.09790025261782165,-1.223676134743182,LL
-1.7175500343397527,0.9095511407815268,0.1391655841711786,-0.01601513340543433,-0.8839926583792242,-0.9608706422968343,0.832156829317358,33.97823,0.11021109814750475,0.8071915696207873,1.6424980456963665,0.1152645778501191,0.033711985551700206,1.105845418855849,-1.0063072438025544,0.4649304931093177,0.3482030360043642,-0.7585442591668589,1.1584749462109014,22.7591,-1.2026863397702157,1.0960290736837228,-0.08504965324797323,-1.1664768711429665,LL
-1.7284246896142939,0.8830009917312243,0.15456869353970112,-0.6223282730617834,0.18194277901710446,-0.0843077771657733,0.8312606912779462,33.97118,0.110415980745241,0.8068357907247565,1.6270279081338925,0.12125978250034535,-0.002568984295274399,1.007078389828764,-1.0716729365279132,0.7469375162632678,1.0268516287217457,-1.272889543697079,1.156890235796062,22.77117,-1.201871166705519,1.047963808793894,-0.06820356039868142,-1.113448118184485,LL
-1.7610475419159768,0.9167917310274473,0.10425170135906761,-0.3528558410719514,0.5127503700632718,-0.08356815554411773,0.8304303650896553,33.97518,0.10988187300769361,0.7993337821878393,1.7049249716446473,0.08453544498820299,0.04651749652144597,1.030316150971051,-0.6903626499571044,1.4989569630087767,0.3482030360043642,-0.7156820585403523,1.1533489834723991,22.78041,-1.1989727735865894,0.9210436558347261,-0.05941672575568752,-1.0288887553587969,LL
-1.736580124309229,0.9167917310274473,0.14019228988562002,0.1524049358143993,0.5862632750754773,1.5044626357877233,0.8303042257083426,33.97391,0.11039266651860216,0.8156404973732932,1.657922651950644,0.11479476744564157,0.025175852394517428,1.0767964326537092,-0.8864664217800335,0.5589333472570452,0.5252418581424193,-0.5013713361547838,1.151457954731563,22.78949,-1.1974459414971543,1.03550940001627,-0.06413329364826395,-1.100148966602493,LL
-1.777358411305847,0.9023095619241599,0.1668912651562488,-0.18443547179455352,0.5862632750754773,1.7783886353177754,0.8303239692636785,33.97304,0.11125529290424413,0.8346675527330116,1.6587737371731213,0.12739769647644222,0.04438280761516435,1.2104212932437453,-0.9300442940021451,-0.4750931226424135,-0.15340654130767956,-0.24419860966558418,1.151148095153243,22.78867,-1.197588273302099,1.1564247171029998,-0.078955306562404,-1.190027990060978,LL
-1.788233066580388,0.9940270004106361,0.21720825733688232,-0.9591687027337923,0.25545568402931,-0.08356815554411773,0.8312979846602474,33.97031,0.11257431293863732,0.910557928017087,1.6600486138026744,0.17800510806136202,0.057188318584910115,1.1755610819817521,-1.0553315133465742,-0.7571001457963638,-0.03538078228492182,-0.8442689411668372,1.1507603280238015,22.78008,-1.1990504091165597,1.1621425115439437,-0.10738280378205303,-1.2378791121608403,LL
-1.8235740259397355,0.8757604014853049,0.1340312143816708,-1.3633773507185403,0.1084300184575262,-0.4130188585425034,0.8300694967726833,33.9721,0.11207411680347412,0.8130580899402587,1.7077286495071686,0.09280693403426057,0.027309667144817737,1.169752236620941,-0.979070794761782,-0.3340898881375004,-0.5074841855837898,0.01297414489831193,1.1503336071188006,22.7786,-1.1986363529567137,1.1438799434302753,-0.07293703355252161,-1.173655830637711,LL
-1.8018258289125948,0.8709330117842091,0.16483743311871582,-0.5212761662232368,0.07167359002686133,-0.3034484946147782,0.8296428166045909,33.96886,0.11210944138929042,0.8244769504463989,1.6652759582246794,0.1178439429429749,0.01023652667447136,1.0826052780145203,-1.1479358863283224,0.93494260884303,-0.44847118044867723,0.14156026950799158,1.150776263659258,22.77379,-1.1983646286018124,1.1305644103581673,-0.08447292375793793,-1.1845662996540072,LL
-1.7855138460007831,0.8733472009404802,0.14019228988562002,-0.08338332082989464,-0.5531850673330568,-0.3034484946147782,0.8291876179676813,33.9628,0.11181977978559393,0.8068062337087786,1.6750949599580724,0.10180468638227773,0.04011430395858243,1.0186960805503866,-0.98451719208369,0.13592228916778107,-1.03860026546339,-0.20133659770103796,1.1481167831641872,22.76305,-1.197264791927219,1.0128880546095365,-0.09218042248947925,-1.1314858995049144,LL
-1.6332753532888522,0.9264455218181902,0.14327324824624454,0.7250341075179385,0.40248101254496355,0.4635439093421167,0.8291239998449325,33.95253,0.11234894208112743,0.7980026217645368,1.5860777500219485,0.13168957347975654,0.005968023017889441,1.0419362213917154,-1.0172000384463693,-0.14608485712930763,-0.5664969974516197,0.01297414489831193,1.1461496174983927,22.76342,-1.195737959837784,1.0562543449541588,-0.06658455653150265,-1.115488182213569,LL
-1.9268799104820538,0.9529956708684938,0.15251486150216814,0.7250341075179385,1.1008524063890222,-0.35823369452078857,0.8308219456038162,33.97076,0.11212003876503576,0.8840890728567025,1.7948440517239312,0.10567267429884498,0.052919814928328195,1.2046100681838923,-0.9463857171834853,0.7469375162632678,0.5547481674426931,0.09869806888148494,1.1469216105049511,22.76554,-1.1959449879177069,1.1535117781315363,-0.08856854840025094,-1.2035982893936725,LL
-1.7692029766109119,0.8757604014853049,0.15354198782525927,0.38819345721536747,0.9538270778733685,0.2991884531612676,0.8308000083201097,33.97161,0.11225709815800414,0.8122907022291279,1.6536497137966437,0.11423735329656896,0.06359063699179235,1.100034193795996,-0.9191492681427128,0.7939394051239014,0.790799801448578,0.39873291177310183,1.14567331906086,22.76606,-1.1951427541080024,1.0512204887388754,-0.09952575850856336,-1.1642947773397088,LL
-1.744735559004165,0.8612792209934651,0.14635378599821894,0.6913499983615689,-0.4796721623208514,-0.24866329470876775,0.830663997161129,33.96175,0.11213982053309283,0.7954815177720491,1.6366910526969145,0.10961272336015851,0.01023652667447136,1.2104212932437453,-1.0662265392060062,-0.09908379948485965,-0.21241954644279215,-0.02988785920531929,1.1469162986264658,22.76885,-1.195440356972895,1.2123286936775932,-0.06773671510686026,-1.2026040809744363,LL
-1.8480414435464834,0.9119643413263514,0.16381072740427444,0.9945065395077703,0.3289683482871367,0.13483296109612297,0.831868354036617,33.96574,0.11229383572725356,0.8535566753515001,1.7144427662622668,0.11770617898978256,0.025175852394517428,1.1523233208394648,-0.9736221662242578,-0.7100991805092696,-0.3894583685808472,0.9559412391707236,1.1459336011066494,22.76899,-1.1942499455133322,1.128117470747711,-0.07134598838666348,-1.1625258610613274,LL
-1.6169633703770405,0.9071369516252556,0.15764923129167552,0.18608917734910593,0.25545568402931,-0.02952256685331719,0.8313166313513984,33.95117,0.11287669139322781,0.7941766302518386,1.555114709242899,0.14145809748384225,0.014504156175071977,1.2975682518501659,-0.9463857171834853,-0.4750931226424135,-0.2714325515779047,0.9988031590502653,1.1475554946708866,22.77616,-1.1937064968035334,1.247553284159762,-0.05138932746484809,-1.195438033277341,LL
-1.8507595506041479,0.9192049315722708,0.18229437452477132,0.9271383211950314,0.03491716159619646,1.0113959084022208,0.8328094635076265,33.95253,0.11356552081665248,0.8686745416720639,1.7037971961646563,0.13226818208316618,0.07426145905525673,1.2278502090252208,-1.0880165909248707,-0.4280921573553196,-0.33044536344573466,0.14156026950799158,1.1484496608826116,22.76063,-1.1956344457978223,1.2107960341822677,-0.12324839147804932,-1.289371361198688,LL
-1.7420174519464995,0.9264455218181902,0.12992355030660485,0.48924556405391395,0.9170708661216445,1.0113959084022208,0.8328796628154871,33.95585,0.1137534476131969,0.815117228720054,1.6740880175652242,0.10789385311339927,0.003833334111607829,1.1755610819817521,-1.0880165909248707,-0.05417386626294504,-0.12390023200740591,0.05583614900194317,1.1492676901693781,22.76441,-1.1956215065428268,1.192055063682775,-0.06694736944631612,-1.1903766085975938,LL
-1.6006525009871693,0.904723751080431,0.14019228988562002,0.18608917734910593,1.2846346689195358,1.2853219079322729,0.8319791373193349,33.9474,0.11443097316915968,0.7782968497416216,1.5568571573835677,0.12995869304220584,-0.021775939515921328,1.2162301386045566,-1.2133038102692986,-0.4750931226424135,-0.18291304387523585,-0.199879416515292,1.1513534877880152,22.76978,-1.1964108010975356,1.2740798105233713,-0.05972167066079069,-1.22297889766995,LL
-1.8154185912448004,0.9747184302177004,0.13711175213364563,-0.6223282730617834,1.1743655521556062,0.7922551805467701,0.832138182626207,33.9598,0.11461254154025709,0.8592414747579227,1.7388685619065274,0.11164032615843196,0.08279759221243928,1.2162301386045566,-1.0553315133465742,-0.3340898881375004,0.17116442646031998,-1.0585796635524054,1.1518014562069585,22.75701,-1.1989339558216026,1.1874553133361099,-0.12696234733721629,-1.282373166871076,LL
-1.7719210836685764,0.8902415819771436,0.14738049171266035,-0.7233803799003299,0.475993917557169,0.2991884531612676,0.8313857337950741,33.95917,0.11463868173376167,0.8158857111354806,1.6663301831298876,0.11156120019557249,0.07212677014897512,1.2104212932437453,-1.2078574129473905,-0.28708806084843613,0.20067079374077845,-0.7156820585403523,1.153202021500967,22.74167,-1.2020393770204552,1.2344450587881786,-0.13702032758677019,-1.3238071255376862,LL
-1.9051305999329715,0.9095511407815268,0.14224612192315297,-0.9591687027337923,0.7700450560972335,-0.0843077771657733,0.8311784264640472,33.97253,0.11420984126194764,0.852689669549481,1.771081962456869,0.09401784385873449,0.023041163488235816,1.1755610819817521,-1.0607801418840983,0.6999365509761739,0.7612934921483043,-0.41564732794752135,1.154250232188771,22.74861,-1.2024275546703136,1.176405990084258,-0.07947416804272878,-1.2017389905317213,LL
-1.7610475419159768,0.9023095619241599,0.11554756726117388,-0.8244327073694383,0.14518647096362897,-1.0156559139714356,0.830008072378305,33.97253,0.11345672109233686,0.7994881354935018,1.689766548422914,0.09082454607190661,0.04438280761516435,1.442813182860867,-1.0008586152650292,1.2639509051419204,0.46622885300730676,-0.199879416515292,1.1597976039537892,22.75407,-1.2047436813144574,1.3787542525417131,-0.07650209307209647,-1.3054981964665582,LL
-1.8099812636075299,0.921619120728543,0.1566225255772341,-0.21811940444647343,0.40248101254496355,-1.2347966418268863,0.8302142828451462,33.97501,0.11321086197505334,0.8449413525460815,1.6976889960494292,0.11864579979873809,0.008101837768189749,1.1871811524024165,-1.1479358863283224,0.6059343125441393,-0.03538078228492182,0.05583614900194317,1.1614850106860148,22.7553,-1.2051577374743034,1.2189465933481618,-0.07749820308194301,-1.2217006297023623,LL
-1.8154185912448004,0.8926557711334159,0.14224612192315297,0.11872098109942315,0.40248101254496355,0.40875899651047054,0.8302428013139643,33.97792,0.11312608296909311,0.8239919964435019,1.7019584317951069,0.10263762843773602,-0.002568984295274399,1.1871811524024165,-1.2350938619881628,-0.6160969420772351,-0.21241954644279215,-0.115612569279994,1.1627173664946493,22.7545,-1.2060764245789652,1.2495962395333005,-0.07965037288128522,-1.2416622688729997,LL
-1.829011353577006,0.8781736020301285,0.1514881557877263,-0.25180373423340485,0.21869923152320722,0.7922551805467701,0.8300409783038643,33.97921,0.113212981450202,0.8260182940944332,1.6980742609649544,0.1056006131540977,0.04224899286486405,1.1407032504188004,-1.0008586152650292,-1.03910747680816,-0.3009388608781784,-0.24419860966558418,1.1610458953978802,22.75013,-1.2059858497939957,1.1205959221261415,-0.08974086324865413,-1.1873810715422324,LL
-1.8861005099634953,0.8178337022950506,0.1391655841711786,-0.2854876227592124,1.027339982885574,0.5731144526913196,0.8293905378419663,33.98791,0.11270854636474047,0.8039578131319421,1.7239605608798863,0.07992918357888522,0.03798048920828213,1.2859481814295015,-0.8810177932425094,-0.052082727986808616,0.023632087563092923,0.05583614900194317,1.1619329791049582,22.75626,-1.205804700224064,1.2080939466327045,-0.06328933098979088,-1.1932301158787777,LL
-1.7719210836685764,0.8926557711334159,0.13813887845673672,-0.38653972959775895,0.7332888443455096,-0.24866329470876775,0.8288124904163001,33.9895,0.11249024042439364,0.8113612982822661,1.674907581112795,0.1049958647236722,0.07212677014897512,1.1407032504188004,-1.1588309121877547,0.5119314583964116,0.46622885300730676,0.05583614900194317,1.1623260581128843,22.74377,-1.2073444715684947,1.1603015482888641,-0.13437660480606778,-1.2789515404931853,LL
-1.8806642958481652,0.8612792209934651,0.14019228988562002,-0.049699366114918514,0.7332888443455096,-0.19387809480275733,0.8287346130591414,33.9981,0.11195401321169758,0.82337020440367,1.7366077573340628,0.08807703830797482,0.05932213333521042,1.169752236620941,-0.9409393198615773,1.3579537592896482,0.6432674818780791,-0.5013713361547838,1.1626111289249397,22.74496,-1.2075514996484176,1.1195186308276925,-0.09507577358206866,-1.1951539737289896,LL
-1.8453222229668773,0.9336871006755582,0.11452044093808232,0.4555614548975445,0.5495065818149958,0.02526263305269322,0.8292260082141674,34.00834,0.11141849249071707,0.8333484340569601,1.7622874151579397,0.0843920291805204,0.04011430395858243,1.1407032504188004,-0.913702870820806,0.41792952782222365,-0.21241954644279215,0.39873291177310183,1.1617807052550406,22.74402,-1.2060634853239696,1.0931161347122598,-0.07685840396334699,-1.1520027459746058,LL
-1.788233066580388,0.9602362611144131,0.15764923129167552,0.18608917734910593,0.5127503700632718,0.13483296109612297,0.8300892403280191,34.01262,0.11183602909506972,0.858604356857954,1.696844915643599,0.12826101724978417,0.04224899286486405,1.0593651371731911,-0.98451719208369,0.6529355856890797,-0.03538078228492182,0.14156026950799158,1.1600189322240184,22.74104,-1.2049507093943805,1.0463903965027386,-0.09185922252546881,-1.1496527988018683,LL
-1.7855138460007831,0.9481682811673979,0.17921383677279695,0.21977313206408206,-0.8839926583792242,-0.24866329470876775,0.831024865478102,34.00352,0.11239203807582385,0.8654309328445602,1.6721844586417007,0.1428272592340351,0.03798048920828213,1.2394702794458852,-1.0389900901652338,-0.0050809145513474405,-0.0648872848524781,-0.41564732794752135,1.1611716098553704,22.73969,-1.2059470320290124,1.2182945486148904,-0.08601260293764872,-1.234844839712524,LL
-1.7909511736380537,0.9602362611144131,0.1340312143816708,0.32082523890262854,-1.1780437969192887,0.08004779707440808,0.8316029129037681,33.99811,0.11237861473321328,0.8448811438098305,1.7185248231626653,0.11014682360945965,0.0016995193613075208,1.134894405057989,-1.0607801418840983,-0.5220940879295076,-0.5074841855837898,0.01297414489831193,1.1604987719138742,22.74184,-1.2051836159842948,1.1500088095508902,-0.06377178113816302,-1.1624871256683689,LL
-1.8018258289125948,0.8709330117842091,0.15354198782525927,-0.11706727554487073,-0.44291595056912736,-0.9608706422968343,0.8313034689811742,33.99228,0.1120486831016861,0.8176087756965645,1.674566096301307,0.10940077881678498,0.023041163488235816,1.2220413636644096,-1.1479358863283224,-0.4750931226424135,-0.44847118044867723,0.44159567389353827,1.1617364396009948,22.73689,-1.205921153519021,1.2429180965993318,-0.08817192496290993,-1.2515914412677087,LL
-1.7175500343397527,0.9119643413263514,0.18229437452477132,0.08503702638444703,0.43923746505106626,0.2444033250238482,0.8315041951270886,33.98432,0.1128463122494254,0.8348788306620392,1.6078574761782196,0.1479866959015582,-0.01323980635873879,1.0942253484351847,-1.12069943728755,-0.28708806084843613,0.14165792389276372,-0.20133659770103796,1.161060060407175,22.74486,-1.2051189197093166,1.1403822904316938,-0.061100749858496034,-1.1529969543938419,LL
-1.7474547795837698,0.8781736020301285,0.12581630684018905,0.42187756637173696,1.1743655521556062,-0.08356815554411773,0.8310742243664409,33.98721,0.11250295727528765,0.7913468196480259,1.6621237907340234,0.0964827588981684,0.08706609586902118,1.0593651371731911,-1.0280950643058016,-0.8511029999440912,-0.6255098093194497,0.05583614900194317,1.157989794642559,22.72411,-1.205390644064218,1.0438654950219994,-0.13497153996207917,-1.2150510539113664,LL
-1.8561968782414184,0.8709330117842091,0.1309506766296964,-0.3191715112850199,1.5786858074596002,0.40875899651047054,0.8306168320011607,34.00039,0.11209319207981513,0.8165764695459277,1.7310809570004448,0.08567923904060891,0.06999295539867481,1.1813723070416053,-1.1261480658250742,0.18292334681222902,0.37770953857192047,0.39873291177310183,1.1586626325840554,22.71382,-1.2067622050937088,1.1849835676760176,-0.12662359190958558,-1.2804880444138227,LL
-1.7637656489736413,0.8733472009404802,0.12376247480265608,0.1524049358143993,0.21869923152320722,0.40875899651047054,0.830008072378305,33.99828,0.11181130188499826,0.791670852119487,1.6733560142257278,0.09214072168625632,0.025175852394517428,1.2104212932437453,-0.979070794761782,0.2769263241030952,0.023632087563092923,0.48445759377307995,1.1593035992546379,22.7189,-1.2061540601089353,1.1793153853343445,-0.06906117730663666,-1.1868258642431784,LL
-1.8045439359702593,0.8492102524350013,0.15559581986279222,0.1524049358143993,0.43923746505106626,-0.4130188585425034,0.8297733434426449,33.99687,0.11160712577897805,0.8094247663835638,1.666232115696845,0.10718949074758774,0.03798048920828213,1.1639433912601296,-0.9191492681427128,1.4519559977216827,0.37770953857192047,0.05583614900194317,1.1596488713561952,22.72489,-1.2053130085342476,1.1155549784681047,-0.07454433377728702,-1.1606923857946856,LL
-1.820855918882071,0.841969662189082,0.12889684459216344,0.62398178004883,-0.25913390471755443,0.08004779707440808,0.8295715204325448,33.99469,0.11108644138404072,0.7936456986685309,1.696615507898445,0.08401971326599403,0.005968023017889441,1.1174631095774716,-1.2296452334506387,0.9819435741301239,-0.8025486314575048,1.2131138814358338,1.1610122535008054,22.71721,-1.2049636486493762,1.1867731469711382,-0.08938585276211593,-1.2230563684558673,LL
-1.894257058180372,0.8781736020301285,0.10219786932153464,1.3313469691797795,-0.8104797533670188,0.5731144526913196,0.8302515762274466,33.9992,0.11024642273332105,0.8115922808886123,1.7842317545053894,0.0603956679797696,0.033711985551700206,1.1465120957796116,-0.9518343457210096,-1.3211144999621103,-2.366390368528749,1.3416999218214238,1.1589264558821684,22.7019,-1.2032944847549927,1.1129095904605657,-0.07603524778027532,-1.1615832998327027,LL
-1.8154185912448004,0.8926557711334159,0.16175689536674145,1.6008194011696113,-0.736967089109192,-0.3034484946147782,0.8315996223112119,33.99283,0.11030718102092588,0.8358235604690379,1.685822836651271,0.11725191118515184,0.048651311271746274,1.129083179998136,-1.0226486669838935,-0.7571001457963638,-2.012313110787203,0.9988031590502653,1.157449753663201,22.68376,-1.2026863397702157,1.1153848798420334,-0.0984509740136049,-1.1981624225820038,LL
-1.8018258289125948,0.8950689716782394,0.1812676688103299,1.1966107531848633,-1.104531132661462,-0.3034484946147782,0.8327633952118423,33.98195,0.11070281638207227,0.8456572891553248,1.661162379649373,0.13388955783997378,0.027309667144817737,0.7804953455724537,-1.0880165909248707,-0.5690959767901411,-1.03860026546339,-0.02988785920531929,1.150896666238263,22.66978,-1.2000467317511916,0.8540602343765807,-0.10673130102104367,-1.064202521938163,LL
-1.9241606899024488,0.9288597109744624,0.17305234066019803,0.287141350376821,-0.736967089109192,-1.2895819135014879,0.834075244777492,33.98509,0.11047603254112927,0.8844054423980959,1.7661523227423161,0.11760797801801944,0.03798048920828213,1.0593651371731911,-1.1370408604688902,0.6529355856890797,0.11215144065193568,-0.41564732794752135,1.1503725608943607,22.66466,-1.2004737271660333,1.097466052701884,-0.10725601432257512,-1.2020101382824238,LL
-1.7637656489736413,0.8154205017502271,0.1391655841711786,-0.6223282730617834,-0.18562116823341407,-1.0704411856460374,0.8324891791655111,33.97689,0.10985714579762165,0.7742880426115779,1.6378345890143577,0.09462965710727267,0.01663884508135359,1.001267164768911,-0.9954122179431223,1.0289448472750644,-0.00587441500446336,-1.272889543697079,1.1484478902564499,22.66872,-1.1995032830413925,1.0108787645890747,-0.07484472726589605,-1.103286533432032,LL
-1.7501728866414357,0.9119643413263514,0.13711175213364563,-0.6223282730617834,0.6230194868272013,-0.6869446427667822,0.8317433115194899,33.97725,0.10966921900107723,0.8146629264374307,1.6681286698037228,0.10999846242909829,-0.14555817477689145,1.1407032504188004,-0.9954122179431223,0.6529355856890797,-0.00587441500446336,-0.8014067405403305,1.1498095017748982,22.71606,-1.1956215065428268,1.1913286008005979,0.06595724319251536,-0.9745171754444634,LL
-1.7202692549193588,0.9192049315722708,0.17202563494575662,-1.1275890278850778,0.25545568402931,-0.4130188585425034,0.8310577714036612,33.96984,0.11019343585459634,0.8325624363728065,1.6210633067599063,0.14113170288704685,0.029443481895118046,1.303377097210977,-1.0989093855686856,0.9819435741301239,-0.00587441500446336,-0.8014067405403305,1.153522504836259,22.71648,-1.1978082406370179,1.294410140060213,-0.08333376922970623,-1.2716047276289575,LL
-1.7202692549193588,0.9481682811673979,0.14327324824624454,-0.08338332082989464,0.9905835303794712,0.2444033250238482,0.831010606243692,33.97123,0.11055162715477677,0.8284255488401916,1.6562695152222102,0.1241669551536185,-0.011105117452457179,1.169752236620941,-0.9463857171834853,0.08892120073754846,0.2596837602224345,-0.5870960181547621,1.1534888629391842,22.7334,-1.1967342824724159,1.1480544472117638,-0.03653935584938741,-1.1180318063510954,LL
-1.7175500343397527,0.9167917310274473,0.1484076180357519,-0.6560123822181528,1.8359802527391835,-0.08356815554411773,0.8302713197827826,33.97642,0.11079183433832984,0.8162699523431935,1.6377190095396996,0.12337569552502434,0.033711985551700206,1.2452791248066966,-0.8646763700611692,-0.14608485712930763,1.1743839482922445,0.6559058347851768,1.1536800905646616,22.74919,-1.1958414738777454,1.1693823343160834,-0.05963714435447208,-1.1664510475476646,LL
-1.8317294606346717,0.9409276909214775,0.1494343237501933,-0.9254848142079848,-0.08327296683072816,0.7922551805467701,0.8301945392898102,33.97914,0.11106736610769971,0.8546349590825468,1.726506811730671,0.11353864278524768,0.033711985551700206,1.2046100681838923,-0.9954122179431223,0.8879416435559359,1.1448772524574056,0.18442218938753333,1.1548788044762215,22.75915,-1.1959191094077157,1.1763794121739348,-0.07862565396776157,-1.20038325177822,LL
-1.8072631565498654,0.8636924215382886,0.15046145007328487,-0.2854876227592124,1.3581475739317412,-0.6869446427667822,0.8297206939617496,33.98508,0.11076074870281137,0.8136382832168624,1.6780422365618357,0.10528057689360348,0.018772659831653896,1.1813723070416053,-1.2133038102692986,2.2509764097542853,0.9678386235866332,-0.115612569279994,1.1581544628756095,22.76214,-1.1973036096922058,1.2304725471251492,-0.09478903434294181,-1.2553358625869133,LL
-1.8833824029058308,0.8974831608345116,0.15046145007328487,0.11872098109942315,0.7332888443455096,-1.4539373696823368,0.8302131859809605,33.99432,0.11018001251198578,0.8469545137454676,1.7443655917693994,0.1010303823171533,0.027309667144817737,1.2046100681838923,-1.0989093855686856,2.062971317174523,-0.6255098093194497,-0.8014067405403305,1.160955593463627,22.75598,-1.1986492922117093,1.2114037823983328,-0.0864066255655644,-1.2317330964782907,LL
-1.8969751652380364,0.9554088714133173,0.18640203859983728,-0.2854876227592124,0.1084300184575262,-2.275715368272493,0.8314405770043398,34.00015,0.11002811679297422,0.8985282225140694,1.7465896210544725,0.13511035840980526,-0.00043429538899278743,1.0128872351895755,-1.0172000384463693,1.7339630208756325,-0.6550163118870059,-1.872959229480313,1.1598843646357186,22.75699,-1.1980023294619453,1.0343559187082267,-0.06279062578251123,-1.0973987537025283,LL
-1.8072631565498654,0.8661056220831134,0.13608504641920377,-0.7570644890566993,0.43923746505106626,-2.76878173681504,0.8304446243240644,34.00151,0.1089316416492262,0.8060158572074424,1.6908137685114766,0.09487409981396376,0.03798048920828213,1.1813723070416053,-1.0771215650654384,1.4519559977216827,-0.03538078228492182,-1.1014415834319473,1.1614407450319688,22.75323,-1.199399769001431,1.1810057404309238,-0.09372530328804045,-1.2267491425844568,LL
-1.703957272007547,0.8443838513453542,0.15046145007328487,-0.7233803799003299,-0.6266977315908836,-2.549641367802545,0.8290208946115118,33.98597,0.10837280670160683,0.7806964415573115,1.5980349720365037,0.11508866387911945,-0.00470279904557495,1.1232743346373246,-0.9354906913240532,1.404954724576742,0.023632087563092923,-0.6728201386608105,1.161446056910454,22.76556,-1.1980411472269321,1.1026310266080972,-0.0429249931905774,-1.1035060339921232,LL
-1.812700484187136,0.7888703526999246,0.11554756726117388,-0.38653972959775895,-0.25913390471755443,-1.837433912561592,0.8274030199381567,33.98219,0.10701634260624818,0.7591066834418765,1.6806585355790806,0.06672574500852539,-0.00043429538899278743,0.7456351343104607,-1.044436487487142,0.9819435741301239,0.6432674818780791,0.39873291177310183,1.1554772761189205,22.77083,-1.1940170389234177,0.8216812521597218,-0.08043711773240426,-1.005260165654872,LL
-1.7528921072210404,0.8347290719431626,0.1412194162087116,0.08503702638444703,0.14518647096362897,-1.4539373696823368,0.8266209557740191,33.97587,0.10647446345982066,0.7819290785940207,1.6361534330193415,0.10055350709456261,-0.00470279904557495,1.070985207593856,-0.8374399210203967,1.0289448472750644,0.5547481674426931,0.35587099189356,1.1537579981157824,22.78992,-1.1909245569795608,1.0262549716416032,-0.03295088904498559,-1.0457257394975517,LL
-1.8045439359702593,0.8805877911864007,0.1514881557877263,0.8934542120386618,0.6965323918394067,-0.02952256685331719,0.8272373934461721,33.97828,0.1065253308633967,0.8214697977467182,1.6819596802710568,0.10903764716580519,0.005968023017889441,1.1465120957796116,-1.0553315133465742,0.6059343125441393,0.8203063040161344,0.05583614900194317,1.1542803328335225,22.80009,-1.190575197094693,1.1564831885057114,-0.0660305841239378,-1.169601526174853,LL
