xa_S1,ya_S1,za_S1,xgb_S1,ybg_S1,zbg_S1,tilt_x_S1,tilt_y_S1,tilt_z_S1,tilt_accx_S1,tilt_accy_S1,tilt_accz_S1,xa_S2,ya_S2,za_S2,xgb_S2,ybg_S2,zbg_S2,tilt_x_S2,tilt_y_S2,tilt_z_S2,tilt_accx_S2,tilt_accy_S2,tilt_accz_S2,Posture
1.2771424057166119,0.25231209923107845,-0.8656124855480297,0.03655062431308397,0.47001094790012865,1.4185931544341213,0.4192322198358387,-1.3846561054892685,-0.7317006643250443,0.32180155953054607,-1.2570024280783005,-0.6813868841533334,-0.8072515940524104,-0.7595085193295674,-1.4953140622527683,0.5266237592037218,1.5212530678144704,0.8493778978845391,-0.9658126230644432,0.8172838277834593,-1.5239729386101126,-0.976092535344952,0.8611483860556604,-1.4384482740034434,LB
1.33523532211712,0.25231209923107845,-0.9318536385488508,0.009812603845225351,0.8225483298747736,1.6895141182718751,0.41788341525964967,-1.3824435889122337,-0.7297735553499645,0.3479569657914413,-1.3090628872429015,-0.6949716383862472,-0.7574506491783052,-0.8279305991477419,-1.4716409157394823,0.5408957734584979,1.5212530678144704,0.7122671513733132,-0.9659560273437383,0.8184454049153087,-1.5212423319068404,-1.0173229066872662,0.7997083043837171,-1.4209624647840502,LB
1.3003795913126883,0.2582932802314659,-1.0292666294269615,-0.7923323885630574,0.4846999373312776,2.2559845938598007,0.4166880007845644,-1.3799273935893315,-0.7282729377054354,0.38246904370463114,-1.2724037184167878,-0.7343807210458075,-0.7455933044786651,-0.8322071433493693,-1.4858449006129104,0.3125439193082555,2.2273874158033546,0.5523047385095126,-0.9667482064046629,0.8200376496800672,-1.5189407975422615,-1.0344117195745737,0.7890883790378653,-1.4332808618785122,LB
1.2957321732293465,0.26128325828224297,-0.9435428782505187,-1.0597139943208513,0.6022124300606116,2.4283883009496967,0.41481904094932387,-1.3773395325351354,-0.7263063387923425,0.35560855379043094,-1.271707648204072,-0.70974515637472,-0.7847224448518612,-0.8535889885548844,-1.4917631872412318,0.01283208736567629,1.5004846505819103,0.34663869358225147,-0.9675179245543728,0.8214688317528434,-1.5170715555714482,-1.0132240820194274,0.8220961147239564,-1.444041483458321,LB
1.246934188174888,0.2672644392826305,-0.791577974073254,-0.631903390081401,0.7344140084344516,2.47764604205836,0.41221826465406675,-1.3738042275188826,-0.723423573317328,0.3047979371562801,-1.231543943464425,-0.6703126112726172,-0.7764226921045788,-0.8450367759542516,-1.4562534674713024,-0.05852784368588852,1.355103009260043,0.34663869358225147,-0.9680829028595472,0.8226557937654947,-1.5145607176270195,-0.9993944400547117,0.8128449104975142,-1.4106533490522226,LB
1.3375590311587913,0.31511266238689845,-1.0331641066732034,-0.09714019607930312,1.0722624009779476,2.2559845938598007,0.4125027647298578,-1.371514986453051,-0.7226969584578726,0.4250416244801822,-1.308996907949123,-0.7659611687098868,-0.8250376111018708,-0.8984913889680401,-1.517803745371303,0.1555519494688059,1.2304911455177088,0.20952805184643444,-0.9684828798554127,0.8245167681304623,-1.5135061495900843,-1.0062526211603298,0.8531975101792194,-1.475340800774118,LB
1.323616776908765,0.2822167793341832,-0.9708188349000949,0.009812603845225351,0.7344140084344516,2.47764604205836,0.4119594724164498,-1.3694343041624601,-0.7210462790488903,0.3808720881270986,-1.297515755055083,-0.7277643122484301,-0.8416380879526002,-0.8193783865471083,-1.4846614372181588,0.49807982417571345,1.4797148730023773,0.4837494400934774,-0.9674704110883422,0.8271305355123033,-1.5115145455264358,-0.9592467118525099,0.8806186820553507,-1.4383735586229058,LB
1.3515012854088175,0.2911879383853484,-1.2357834469033793,-0.25756908948001905,-0.1616187726800593,2.2559845938598007,0.413142032972448,-1.3687338961918045,-0.7212674227017688,0.4745077021191291,-1.3117824736201404,-0.8108604629247183,-0.8262236369786843,-0.8899383005647853,-1.5012323488810904,0.5837117227412825,1.9989321055512466,1.1693027236121403,-0.9670833923104857,0.8296550181409801,-1.5094496852098407,-0.9953621996694507,0.8544675379351798,-1.4597389438919401,LB
1.3398827402004623,0.2971691193857359,-0.9747163121463368,-1.273618683468423,0.22148665116998942,1.8619178253617714,0.4119200537312501,-1.3676273313119236,-0.7202564802886128,0.3935206830675873,-1.3131865553152369,-0.7360309128380605,-0.8108087003266862,-0.8407602317526243,-1.517803745371303,0.38390389710059214,1.5420214850470304,1.8091520757090318,-0.9671404084697232,0.8316254100956098,-1.5070853597713065,-1.0035780083549235,0.8509682521890372,-1.4679865578338784,LB
1.3491775763671463,0.324083821438063,-0.9786121933740494,-1.1934047971997483,0.22148665116998942,1.6895141182718751,0.4111976634785639,-1.3667376031741065,-0.7197273151192268,0.41405224787420014,-1.3227852955286992,-0.7527830968144007,-0.8143662922790439,-0.8621420769581393,-1.5035997604978752,0.25545595577069485,1.1058798259141638,2.1747808328584046,-0.9672777655806136,0.8331038605671198,-1.5042758617187075,-0.9989318090004297,0.8489805332199268,-1.4578847170287024,LB
1.2446103839538512,0.27025564223224097,-1.025370748199249,-1.0062377782502332,-0.1322406013910473,1.3200763816491352,0.4101007957164787,-1.3641845402397044,-0.7194429875655262,0.38634784518641446,-1.2208402579187254,-0.7475431513129307,-0.8226660450263263,-0.8343449775488719,-1.4834774889961255,-0.05852784368588852,-0.22778992646543839,2.1519293161849853,-0.967390070136688,0.8335170213856826,-1.5012361297282728,-0.9763424425873577,0.8601302860958723,-1.4374665299710014,LB
1.3840333071715782,0.3270737994888407,-0.8188539307228311,-0.3377837463422583,0.08809529842311468,0.4826851035444134,0.40903049272050646,-1.3643553116293545,-0.7186847807556587,0.36492440845557395,-1.363973606552145,-0.6979435477751412,-0.8487523005011514,-0.8065487539422259,-1.5166202819765515,-0.11561588200868418,0.6282006521426903,2.037670236026334,-0.9673745202750778,0.8353867491578235,-1.4988178683672388,-0.9663513412767645,0.8925398014824618,-1.4661580394886753,LB
1.3375590311587913,0.3420261395403934,-0.9435428782505187,0.1702414271919809,0.14685151592377457,-0.05915629177193557,0.40935012684180144,-1.3634435089133423,-0.7194903754911423,0.4141574214501703,-1.3141645301852198,-0.7548086876873573,-0.8487523005011514,-0.7851669087367099,-1.4858449006129104,-0.0727999140295909,0.31667072071746044,2.2661883963436367,-0.9669028411395653,0.8369518583603456,-1.4956670444767302,-0.9463760565031173,0.8938938051704794,-1.436181104069277,LB
1.239962965870509,0.362959660592333,-1.021473270953007,0.6515280723671486,0.35249835895743764,-1.0935806798800447,0.4107177838326515,-1.360386026537609,-0.7220493234744432,0.44896650954190004,-1.2193480526766118,-0.8056518006799722,-0.8475667603024201,-0.8065487539422259,-1.515436333754518,-0.5295036129819215,0.02590961462888268,2.037670236026334,-0.9674669555635388,0.8381598285502118,-1.4933373346302488,-0.9666790743040027,0.8913381664959091,-1.4650019595683115,LB
1.3166455546043858,0.30016032233534573,-1.09161190120007,0.6515280723671486,1.0135062508266377,-2.398925176824834,0.4117238172331894,-1.357974915404657,-0.724924190961857,0.4325283003120501,-1.286364649785249,-0.7776845691676524,-0.8783961479283341,-0.7317122957229214,-1.52135462038284,-0.8292153514429568,0.6074319628407355,2.540409590007777,-0.9676587371900666,0.8407770972949219,-1.4906493936567162,-0.9282357307896304,0.9350974186791166,-1.4646235623184924,LB
1.367767343879881,0.26128325828224297,-0.9279577573211373,0.758480854778187,1.3219769531479069,-3.211687584375224,0.4112079466138337,-1.356342776279341,-0.7266538502468652,0.35501285065613514,-1.3401995967375109,-0.69449456872119,-0.8321523093285043,-0.8514511543553818,-1.573435736642982,-1.1146551691307598,0.5243573416676136,2.700371703513267,-0.9699963997188146,0.842017455091328,-1.4890128006650443,-1.0164097508118997,0.8734374412675592,-1.5207131215402303,LB
1.3770621800465652,0.3181026404376755,-0.9279577573211373,0.11676486085156076,1.4688668474593964,-3.753529189408817,0.4110545565127296,-1.3547968659751,-0.7294260438954417,0.39497039563876135,-1.3513272729339532,-0.7286089601800094,-0.8368949558015112,-0.8193783865471083,-1.5142528703597666,-1.3144635556607132,1.0020365154390871,3.1802595408212913,-0.9717742672295933,0.8437952720881526,-1.4859030324767373,-0.9771890141801451,0.8788889510012208,-1.464499036684262,LB
1.3375590311587913,0.3181026404376755,-0.8773017252496977,-0.6586415856841605,1.3219769531479069,-3.408720162019452,0.40994397790361825,-1.3527443900899812,-0.7316927663374413,0.3752347844550919,-1.3163456257627193,-0.7184966474435914,-0.8025089475794038,-0.8108252981438534,-1.515436333754518,-1.457182763393036,1.1266483791814212,3.294518620979942,-0.9742000456408005,0.845045258632449,-1.4827135679253325,-1.0016998127476349,0.8487329340800466,-1.4619305950543793,LB
1.3979756566009707,0.309131481386511,-0.9825080746017629,-1.3538332702767018,1.5276233824641348,-3.433350645783357,0.40903049272050646,-1.3515361135251516,-0.7343070002339613,0.40834258478192625,-1.367820584825484,-0.7368755607696421,-0.8404525477538689,-0.8899383005647853,-1.5130689221377331,-1.2859189662618982,1.0020365154390871,3.1802595408212913,-0.976121317430873,0.8465534706883472,-1.4798670392393753,-0.9904349627586183,0.8685824203708822,-1.4713840991703728,LB
1.33523532211712,0.309131481386511,-1.0019906727773855,-0.7923323885630574,1.4688668474593964,-3.1378009727122285,0.40861231188621144,-1.3493054314098103,-0.7368264582792493,0.4105200984988149,-1.3080218050300718,-0.7528065592569454,-0.857052538926516,-0.9262876125746863,-1.5130689221377331,-1.4429109361013475,-0.22778992646543839,2.426150509849126,-0.9780132172601266,0.8470366587642937,-1.4778963655337127,-0.9864303937635202,0.876891708988269,-1.4765651689455108,LB
1.3329116130754493,0.2403497372303034,-1.0370599879009161,-0.23083099895820008,1.2485315249253768,-3.1870587138208926,0.40784964602038615,-1.3471518570224703,-0.7388404451179582,0.37476360683474497,-1.301709785925251,-0.721241753221227,-0.8546809728509716,-0.8963526789659163,-1.5533134651412324,-1.2145588949880175,-0.22778992646543839,1.7634490423621934,-0.9799552221990133,0.8476511479478344,-1.477021315567187,-1.00020123402414,0.8838772945116794,-1.5090310102671216,LB
1.3189692636460568,0.2672644392826305,-0.8422340061446946,-0.20409292594987116,0.9988170689687745,-2.669845979341631,0.4061409317097628,-1.3452646338824525,-0.7395591619898105,0.3266875031758212,-1.2982950362671695,-0.6776641766030366,-0.8404525477538689,-0.9091823115707987,-1.576986611654519,-1.1574715858212634,1.0020365154390871,1.9691156860060766,-0.9822756071037505,0.8491427285301038,-1.4764304354609956,-1.0249835581076008,0.8703268688564036,-1.5304518295281682,LB
1.3700910529215522,0.19848392002525572,-0.9552337139707143,-0.5249507828052635,0.7637921797234636,-2.6205882382329673,0.40412972183662704,-1.3445049771307382,-0.7399540613699516,0.3214321899317384,-1.3384588921621283,-0.6639933934141278,-0.8297807432529598,-0.9198732341735562,-1.5331911936394829,-1.0432950978568793,0.648969341444645,1.8091520757090318,-0.9841951511314213,0.8499576707379047,-1.4752011794362623,-1.0149812152947542,0.8548380709137421,-1.491693025026428,LB
1.3817095981299075,0.285207982283793,-0.9708188349000949,-1.0597139943208513,0.6022124300606116,-1.9063429261094778,0.40310483602142844,-1.3442275885943185,-0.7409729017707106,0.3867971467029598,-1.3521556796225067,-0.7208976373972495,-0.8606096452007914,-0.9049057673691713,-1.5485786419076626,-1.0004794290187262,0.1712901676731716,1.9919672026794957,-0.9856274661619706,0.8509599358592067,-1.4741417813167148,-0.9954780736157567,0.8872726925068232,-1.5061444257265626,LB
1.363119925796539,0.2582932802314659,-0.9045776818992738,-1.1666662513271868,0.5728342587715995,-1.3152427733624337,0.4011673219510574,-1.3436795565314834,-0.7408386359814633,0.3447378129781431,-1.3368423616757243,-0.6858134649799481,-0.7942087091540391,-0.9155966899719288,-1.515436333754518,-0.4866876636991369,-0.47253811240984833,1.4663760326663222,-0.9870666922421243,0.8500005624330523,-1.4728489292042581,-1.0321245062314444,0.8213844836296148,-1.4727418302790698,LB
1.3584725077131967,0.2403497372303034,-0.9123710403732284,-1.6212148760344958,-0.1616187726800593,-0.8965471343100728,0.3988056285508174,-1.343861365210231,-0.74020679697324,0.33471603327108773,-1.3313545924883718,-0.6778440553292057,-0.8451951942268756,-0.8664186211597666,-1.5556808767580175,-0.1727037988054729,0.02590961462888268,1.717746009015355,-0.9874329778711666,0.8507235938655375,-1.4721574223769842,-1.001592586110755,0.8811034915600114,-1.5073101463411889,LB
1.402623074684313,0.285207982283793,-1.0565425860765385,-1.5944763301619345,-0.4113328437832333,-0.1330435487187604,0.3981072322804271,-1.3450906432834826,-0.7404279406261185,0.41646114345822327,-1.3672868554180793,-0.7444539297113177,-0.8985532453752566,-0.8856617563631579,-1.574619200037734,-0.015711875706795254,-0.05716500654423916,1.9005596391942639,-0.9870338647565019,0.8523167139710132,-1.4717130547766883,-0.9739964275401325,0.9279360897102666,-1.5302373240808185,LB
1.3468538673254753,0.25530330218068825,-1.239679328131093,-1.5142626190281605,-0.8813830071272832,-0.18230211256430642,0.3981235139112709,-1.345690489286804,-0.7416126387665347,0.4511987135182932,-1.3060839183499144,-0.7906749415227878,-0.8665383175506117,-0.8493124443532569,-1.610129404634945,0.1555519494688059,-0.22331430738540264,2.1976323495318235,-0.9870312731129006,0.8533321092030745,-1.47145464535695,-1.0061687422588996,0.9086605832436991,-1.5560406422755555,LB
1.36544363483821,0.3181026404376755,-0.9903014330757174,-1.6479534219070575,-1.219231399670779,-0.305447465525901,0.39736770346895894,-1.347220610135808,-0.7420391300970857,0.41484567733132005,-1.3372764041547285,-0.7501944073203919,-0.9032963775263455,-0.8428980659521269,-1.5047832238926266,0.3125439193082555,0.1712901676731716,2.311891429690475,-0.9852810498005417,0.8552219698117128,-1.469369659696139,-0.9282858851843001,0.9345165130047818,-1.463877211904303,LB
1.3538249944504885,0.4287502017989307,-0.8695099627942707,-1.4875240731555988,-0.8520042585581291,-0.502481011095873,0.39755537068762814,-1.3481946508986762,-0.7432712161631201,0.45173972639308413,-1.3367034499438055,-0.784230590637398,-0.8866959006756164,-0.7894434529383374,-1.5615991633863393,0.21264000648791034,0.3997454779252795,2.494706556660939,-0.9842538950530605,0.8572588876608568,-1.468183069401144,-0.9544976095158493,0.9349190780399019,-1.5077423708006439,LB
1.4490973506970999,0.35099852349039073,-0.9591295951984278,-1.5677386599638776,-0.7491810439000152,-0.7734016522917123,0.39725030434129815,-1.3507823586571905,-0.7439346471217534,0.43360191217555466,-1.4190245224134608,-0.7466437576820827,-0.8914390328267054,-0.8514511543553818,-1.5308237820226978,0.4267198463833767,0.6905067200485545,2.1976323495318235,-0.9828665018449417,0.8593562040194942,-1.4667187493559635,-0.9513811191987834,0.9243311847506086,-1.4870598680419005,LB
1.3933281433382625,0.35099852349039073,-1.076025184252161,-1.0329754484482898,-0.45540000450339424,-0.1330435487187604,0.3980249671982708,-1.3517849124168944,-0.7450561613613474,0.4674206858759481,-1.3603900919879834,-0.7929273360070007,-0.8973677051765256,-0.8878004663652826,-1.5651500383978758,0.18409597797835814,0.8358871370581463,2.3347429463638942,-0.9822298214001192,0.8615743173971181,-1.4658742899126471,-0.9711350328511282,0.92562631871306,-1.5219198151054734,LB
1.4002993656426417,0.2941791413349582,-1.0994052596740245,-0.631903390081401,-0.3378875117740603,-0.5763682680426978,0.39843886339287,-1.352689050348811,-0.7458775520720371,0.43631875599001874,-1.363306104693436,-0.7636696701547662,-0.915153722225986,-0.9155966899719288,-1.5687009134094123,0.4267198463833767,0.711275273315812,2.129077799511566,-0.9811681114046163,0.8638545799656696,-1.4653558610456348,-0.9656543681370433,0.9366860355381399,-1.5292443325717364,LB
1.3770621800465652,0.30614027843690045,-1.079922661498402,-0.07040210555748411,-3.911923056434227e-05,-0.3793352064355978,0.39925465879092115,-1.352772443199771,-0.7466515548571108,0.43664184921539945,-1.3432435624147472,-0.7688235867002413,-0.9317541990767151,-0.8685564553592703,-1.588823184911162,0.5837117227412825,-0.22778992646543839,1.7634490423621934,-0.9796165807683883,0.8657286844413967,-1.465425897243507,-0.9507939668887694,0.9628215964956608,-1.543687699359985,LB
1.4281838741426942,0.312121459437288,-1.0058881500236265,-0.016925942027336206,-0.4260218332143823,-0.502481011095873,0.39976024627500706,-1.3544021295941766,-0.7469358824108091,0.42032143439063624,-1.3949667940778134,-0.7409345633297347,-0.8831387944013408,-0.8428980659521269,-1.5710683250261972,0.812063576891525,-0.22778992646543839,1.9691156860060766,-0.9782542401150854,0.8667388276291544,-1.4648881480460465,-0.9741909920022138,0.9219080029585618,-1.5215277602054476,LB
1.402623074684313,0.2822167793341832,-0.9941989103219584,-0.09714019607930312,-0.29382035105389925,-0.40396423831088696,0.3996616995620076,-1.3553461244033904,-0.746777922658755,0.3939775570816019,-1.3703977073209674,-0.7230483612971067,-0.9127821561504414,-0.7937199971399648,-1.5675174500146607,0.9405113312583345,-0.22778992646543839,2.220483866205243,-0.9760236988552081,0.8684702515679626,-1.4640428835889612,-0.9381567888938743,0.958595962223785,-1.515541692459355,LB
1.402623074684313,0.35099852349039073,-0.8811992024959387,-0.7388558222226372,-0.5582235078015794,-0.502481011095873,0.39933778080101684,-1.3567034043710386,-0.746825310584371,0.40417350423046433,-1.3794404227184742,-0.730134018945362,-0.889067466751161,-0.8578655327565118,-1.5651500383978758,1.1974070269550416,1.0851110005775118,3.2031110574947106,-0.9742518785128341,0.870624465073224,-1.462649404755423,-0.9704674605634556,0.9239000505839636,-1.5182185918996962,LB
1.4305075831843654,0.3779120006438857,-0.8695099627942707,-1.1131902103914695,-0.5729124972327283,-0.08378537204351194,0.39907470392370414,-1.358688583451798,-0.7467542286959458,0.4213470871034984,-1.4078895151843767,-0.7384475444200818,-0.915153722225986,-0.9006292231675438,-1.5426603552793412,1.1688633723716646,0.33743954605411247,2.723223220186686,-0.972036887114567,0.8723838999149855,-1.4612317755088244,-0.9504446155879671,0.9373760233510235,-1.504588256994288,LB
1.409594201809326,0.3420261395403934,-1.0175773897252944,-1.3538332702767018,-0.8373153653403372,-0.6009977838808588,0.39909355633836485,-1.3603430270988326,-0.7476230073322515,0.4434537313838422,-1.3782721433104217,-0.766461700817491,-0.9127821561504414,-0.8813852121615304,-1.5355586052562678,0.9975995752405267,-0.2025456276058767,2.6318171534930093,-0.9699799859760047,0.8736172549856535,-1.4597449150781214,-0.9444797015460349,0.9383707485668369,-1.4960940019574558,LB
1.3584725077131967,0.2672644392826305,-1.0721293030244476,-0.8992846455693928,-1.233920292888571,-0.10757714815030053,0.3986813739996438,-1.3613451976193316,-0.7476861912330736,0.4062635135321454,-1.324845844744713,-0.7451578029876357,-0.9127821561504414,-0.8407602317526243,-1.5012323488810904,1.4400308953600602,-1.012523218052489,2.1976323495318235,-0.9668544637923339,0.8741590908896587,-1.4579312190573468,-0.9189986748609685,0.9432751161452382,-1.4612517295000316,LB
1.3840333071715782,0.33604495854000593,-1.0682318257782066,-0.8190704090309161,-1.5423908989964832,-0.9704347138988123,0.3993069313952082,-1.3632294314935522,-0.7491236249767804,0.453934067882128,-1.3515148566764028,-0.7827211735004086,-0.9056679436018901,-0.8364836875509968,-1.5095180471261966,1.8396467336045281,-1.4902022557892651,2.5632611066811966,-0.9634110333268522,0.874139833393878,-1.455992745902429,-0.9271850826943927,0.9383750772231286,-1.4675928961514748,LB
1.3515012854088175,0.33903616148961574,-0.8422340061446946,-0.5516888032731222,-1.674591900090181,-1.4876468030942445,0.3985836842145831,-1.3648385762665816,-0.7496133002081535,0.37894110127228425,-1.3321744589017857,-0.7183558727883278,-0.8902534926279742,-0.7873056187388348,-1.5391094802678047,1.9252786321700974,-1.9263436428527372,2.494706556660939,-0.960194803617122,0.8736715261101256,-1.4545477461876968,-0.940883285555836,0.9366211056937657,-1.4875692180554583,LB
1.3189692636460568,0.27025564223224097,-0.9201643988471828,-0.5784268237409808,-1.8655503983221875,-1.2906140641290593,0.39722202571930704,-1.3671873727048363,-0.7501266694023334,0.3553207988865764,-1.294940673156315,-0.7047554769270509,-0.8060660538536795,-0.7573706851300639,-1.4420494825978745,1.968095048860601,-2.175567370337405,2.311891429690475,-0.9556654744825213,0.8703557354730148,-1.4504276857197311,-0.9495954498023511,0.8555427761580172,-1.3901580364404178,LB
1.2585527333832436,0.309131481386511,-0.8773017252496977,-0.6853796061520191,-1.483634363991745,-0.18230211256430642,0.3961680043541779,-1.3665061266944196,-0.7497475659974008,0.36418146231491966,-1.240743406920691,-0.7235332517763476,-0.7965802752295835,-0.7830290745372073,-1.4858449006129104,1.3686708240861798,-1.6355830809029483,1.8091520757090318,-0.954372244325264,0.8684921350858952,-1.4486027195061941,-0.9849223029996576,0.8458604377649298,-1.4317182660167282,LB
1.2097547483287852,0.3420261395403934,-0.7759928531438735,-0.44473602086208375,-1.1751637578838332,-0.10841446393019723,0.39499229922169277,-1.3647544169372121,-0.7492105028404117,0.3498517729361218,-1.198546436498884,-0.7175112248567486,-0.804880027976866,-0.7787525303355799,-1.4538860558545175,1.3686708240861798,-1.1371352178295204,1.3749687685394014,-0.9525062609320285,0.867162492536325,-1.4465000235424716,-0.961597915285391,0.8514842280189979,-1.4031810076072613,LB
1.2074309441077482,0.3689408415927205,-0.795475451319495,0.11676486085156076,-0.6610469148864072,0.75360590606121,0.39476778410164093,-1.3623921304789495,-0.7485549698693793,0.37554862240578696,-1.1963984439347581,-0.7416227949776896,-0.7930226832772259,-0.7445410525251815,-1.457436930866054,1.2259516163538566,-0.7632993545331234,0.5066012561252076,-0.9509210389289773,0.8661278398084831,-1.4450904444335597,-0.9640528864313804,0.8472473392407638,-1.4014103334276358,LB
1.2190495844954696,0.33903616148961574,-0.8071646910211631,0.8119570708488053,-0.20568593340022032,1.19693057698886,0.3947103699297193,-1.3597459404177856,-0.7472518019149219,0.35901028793161355,-1.2063610149847042,-0.7247141947177228,-0.8333378495272354,-0.7637850635311949,-1.4278454977244461,0.9690559206571495,-0.28562026238246824,0.27808338019830076,-0.9489125151376474,0.8661926150215629,-1.4434691467034926,-0.923823873520577,0.8783054481331108,-1.3804876167035078,LB
1.2306681297038249,0.37193081964349817,-1.052646704848825,1.0526001307340378,0.07340621277860868,0.9260097744720635,0.39698551360810724,-1.3568940275514962,-0.7481284785388306,0.4649604655868516,-1.2097239939483546,-0.822075510460698,-0.8368949558015112,-0.7616472293316913,-1.4503351808429807,0.5979837369960587,-0.11947099282928512,-0.43032170438417694,-0.9476115100495851,0.866532247219873,-1.4428460660465552,-0.9320146050087142,0.8841482683955344,-1.400678444054842,LB
1.2771424057166119,0.35398850154116845,-0.9084751591455157,-0.1785444567564641,0.4553217660422656,1.8126600842531075,0.3971517576282981,-1.354645563137053,-0.7470938421628655,0.40714528879308026,-1.2587153200762367,-0.7598218295775689,-0.8653527773518804,-0.7830290745372073,-1.4550695192492689,0.45526387489292885,0.12975278906926202,-1.0930234712294207,-0.9462595359706899,0.867558146540542,-1.4429402526574877,-0.9184193051294384,0.9067672289817462,-1.4097680119624099,LB
1.2608764424249144,0.3181026404376755,-0.8967843234253193,-0.1785444567564641,0.5140781086202897,1.9850637913430038,0.39670444124407256,-1.3520442887106894,-0.7454668567166922,0.3771868060250998,-1.2424927273488695,-0.7352253689773869,-0.8392665218770556,-0.8044109197427233,-1.4787431505898372,0.38390389710059214,0.8774245156620558,-1.0930234712294207,-0.9457533015871546,0.8687451085531933,-1.4434635116071126,-0.9545659232603129,0.8807606619817155,-1.4312073092207929,LB
1.328264194992107,0.30614027843690045,-0.9786121933740494,1.2665055204212134,0.5581452693404506,1.7634007299348706,0.397707046932854,-1.3506852458426994,-0.744305852539083,0.4002778749765252,-1.302423314576527,-0.7445868835523998,-0.8321523093285043,-0.7787525303355799,-1.498864937264305,-0.08707186284728635,1.2097227282851484,-1.0930234712294207,-0.9460798486809704,0.8701351496122566,-1.4442009042191983,-0.9636767284713582,0.8809407340834466,-1.4458121576379466,LB
1.3329116130754493,0.26128325828224297,-0.7759928531438735,0.6515280723671486,0.7784811691546125,1.6156258933993066,0.39628454655389933,-1.3493119464762915,-0.7412809232872181,0.3005304141377104,-1.3143967047447707,-0.6501192690565052,-0.8772101220515208,-0.8236540549461144,-1.4562534674713024,-0.3725117366240157,1.5212530678144704,-0.9102092423338898,-0.9459131196092597,0.872467932623846,-1.4442580601967725,-0.919974091364201,0.9099055047931679,-1.4164337486540388,LB
1.2144021664121274,0.309131481386511,-0.9630254764261404,0.8921713073872821,0.7784811691546125,1.9850637913430038,0.39690410545388966,-1.3455585017046778,-0.7401752050228279,0.3909064886632702,-1.1956972344414272,-0.7559348849294638,-0.8689098836261562,-0.7851669087367099,-1.4846614372181588,-0.3296956938596874,1.8743202418089124,-1.1387269536137257,-0.9459062085596555,0.8751394724930283,-1.4449020712116958,-0.9307045376307019,0.9124014080109142,-1.4367723999840705,LB
1.3398827402004623,0.3330549804892282,-0.8344406476707401,0.8386950913166639,0.22148665116998942,1.6648852477175435,0.39707377718583753,-1.3450778430940429,-0.7384850356758325,0.371295402993549,-1.3211912116061577,-0.713796338120631,-0.8985532453752566,-0.8386215217504994,-1.5355586052562678,-0.27260773032212676,1.7289399608340181,-1.0930234712294207,-0.946110948404191,0.8780517310594663,-1.4465732797954194,-0.9451420854480529,0.933785835822757,-1.4904879382435614,LB
1.3770621800465652,0.33604495854000593,-0.9201643988471828,0.8386950913166639,0.7784811691546125,1.1476723519173246,0.3979238497014537,-1.3445891364601077,-0.737671542952746,0.4048693326090839,-1.3524778671704771,-0.7374308385765127,-0.8724674755785139,-0.7979965413415923,-1.4917631872412318,-0.5295036129819215,1.9989321055512466,-0.9559128743973504,-0.9464478620724144,0.8807582845573406,-1.4471883103146699,-0.9345327015135139,0.9138307303184059,-1.4448480882116532,LB
1.3910044342965915,0.34800732054078093,-0.9474403554967598,0.8386950913166639,0.5728342587715995,1.2708181565775996,0.3990824162751563,-1.3446275370284269,-0.7371344797957569,0.42326966007223515,-1.3647632419031175,-0.7513284253766799,-0.8700959095029693,-0.8364836875509968,-1.5698848616314458,-0.4438717144163524,1.7912452125316987,-0.773098495822664,-0.9475821380887661,0.8830306690594367,-1.449078482643468,-0.9821560287143367,0.9110655846793212,-1.5188155115528092,LB
1.4002993656426417,0.2373597591795257,-0.9708188349000949,1.1862909336129348,0.5140781086202897,0.8274934856499495,0.39913297502356454,-1.3447620539893044,-0.7355864742256119,0.35530986083467503,-1.3674956009042378,-0.688253559004514,-0.8855103604768852,-0.8664186211597666,-1.5130689221377331,-0.40105567165202416,0.93973058356792,-1.0016162071024997,-0.9480460422934733,0.8846474233642792,-1.4502312623601792,-0.9511035405662137,0.9144081730677075,-1.4723682533763813,LB
1.3863570162132492,0.33604495854000593,-0.9396469970228053,-0.1785444567564641,0.6169015157051175,0.6304601014009349,0.3993557762877382,-1.3446268471978582,-0.7352942486843105,0.4120118805003767,-1.3602679584957198,-0.742099864642749,-0.8760245818527895,-0.8493124443532569,-1.515436333754518,-0.3011516653501352,0.08821554650004973,-1.2301340680614912,-0.948449474814141,0.8853214357165958,-1.4515313595965535,-0.9553173744494168,0.9092527434243923,-1.4718902356191765,LB
1.3398827402004623,0.27025564223224097,-0.9825080746017629,-0.1785444567564641,0.5434561836959447,0.18713526915232742,0.3988724689300694,-1.3436223772421303,-0.7349309412545816,0.3775679550644163,-1.3117983449279225,-0.7216484355586545,-0.9044819177250768,-0.8407602317526243,-1.5331911936394829,-0.27260773032212676,-0.18177695190739165,-1.0016162071024997,-0.9484857578245643,0.886317573452877,-1.4529071281271826,-0.9400626558913256,0.9385802555313512,-1.4890659358397786,LB
1.3886807252549203,0.2792268012834055,-1.0604400633227795,1.5071487554413467,0.16154060156828057,-0.23156027310745916,0.4003258187148328,-1.3439140989248084,-0.7353179426471174,0.41265638417392264,-1.3539022036774095,-0.7442427677284246,-0.8760245818527895,-0.8151018423454808,-1.5035997604978752,-0.21551976678456616,0.06744685719809494,-0.5217288188319423,-0.9484892133493664,0.8870519843146868,-1.45330882999774,-0.9416001475072368,0.914848830278194,-1.4576059402862664,LB
1.4281838741426942,0.2941791413349582,-1.025370748199249,0.758480854778187,-0.3085094366984053,-0.23156027310745916,0.40124530239351797,-1.3455453182760335,-0.7355311883123927,0.41432822333754615,-1.3930896718331633,-0.7359370630678863,-0.8511238665766958,-0.8578655327565118,-1.4799266139845886,-0.6722234750850511,-0.05716500654423916,-0.17895217707261085,-0.9494610797000107,0.8869802063758686,-1.4530624957845317,-0.958957026986745,0.8815597319331477,-1.4391994447647634,LB
1.363119925796539,0.2433409401799132,-0.9825080746017629,0.3574084461414961,-0.2644421797648873,-0.1330435487187604,0.4007654227476055,-1.345862793633273,-0.7349783291801977,0.3606627751572581,-1.3324730662210518,-0.7014707349709057,-0.8700959095029693,-0.8450367759542516,-1.5320077302447312,-0.6008635907742581,0.04667816789614019,-0.22465580913607136,-0.9504692290610781,0.8875054108062452,-1.4537894232176263,-0.966580494976549,0.906107541762904,-1.485769621793045,LB
1.3189692636460568,0.3330549804892282,-0.8656124855480297,0.8119570708488053,-0.08817344067088631,-0.8226602000051625,0.4010259288411013,-1.3453035709856584,-0.7354443104487616,0.3805195463004461,-1.2997401566295301,-0.7269665892019379,-0.8736530157772451,-0.8535889885548844,-1.5544974133632659,-0.7007675035946033,-0.7009934226619564,-0.40747003803160226,-0.9517875117731514,0.8873846137872587,-1.4550734201786284,-0.9763536840896112,0.9096717573534209,-1.507067522202238,LB
1.3515012854088175,0.27324562028301796,-0.9474403554967598,-0.1785444567564641,0.35249835895743764,-1.2659845482908982,0.4003283894986498,-1.3447406692416777,-0.7358865977545186,0.368677843034801,-1.3244517072681317,-0.710660191633931,-0.8843248202781543,-0.8044109197427233,-1.4728243791342337,-0.6008635907742581,-0.7425306652311685,-1.0016162071024997,-0.9517797368423462,0.8874703971775535,-1.4552497181939632,-0.9181002194116257,0.9217261993943138,-1.4296182014497865,LB
1.3491775763671463,0.2822167793341832,-0.8461298873724072,-0.1785444567564641,0.20560778153111295,-1.1920969687021588,0.39906870542813017,-1.3444205878578455,-0.7356812500768461,0.3404265377519696,-1.3274472276678055,-0.6839833944615237,-0.8902534926279742,-0.8086874639443508,-1.4704574523447307,-0.4438717144163524,-1.012523218052489,-0.9102092423338898,-0.9514359121245185,0.8874380095710136,-1.4552690385244103,-0.913575947120036,0.9261085310239463,-1.4284781893531948,LB
1.3700910529215522,0.23137857817913818,-1.0019906727773855,-0.1785444567564641,0.058717127134102653,-1.339872289200595,0.39822206062427035,-1.3444851253399306,-0.7359418836677376,0.35946463777980464,-1.3375510533570096,-0.6992026988583296,-0.8700959095029693,-0.8151018423454808,-1.464539165716409,-0.6436795400570426,-1.365590392046931,-0.978764540749925,-0.9516760710982777,0.8866116879338876,-1.4552754786345592,-0.9272300487034077,0.9058036700912326,-1.422254317815283,LB
1.3119981365210436,0.2373597591795257,-0.8539232458463617,0.9723858941955609,-0.45540000450339424,-1.1920969687021588,0.3972048871605245,-1.344186505351566,-0.7353732285603364,0.3095972177749557,-1.2900260093351972,-0.6636179943334264,-0.8475667603024201,-0.8557276985570091,-1.510701510520948,-0.5437756272366975,-1.2409783922698996,-0.43032170438417694,-0.9527498754305899,0.8854264766026712,-1.4557278963725429,-0.9759801203224163,0.8814445896757909,-1.4661202801028128,LB
1.198136107941064,0.26128325828224297,-1.021473270953007,0.7317423089056254,-0.7638699371178073,-1.0935806798800447,0.39740112365858465,-1.3419667072296404,-0.7363999669486985,0.37671226285032194,-1.177208823584068,-0.7456661559094191,-0.8653527773518804,-0.8813852121615304,-1.5047832238926266,-0.3725117366240157,-1.0540605966563985,-0.45317352041590714,-0.953365822726597,0.8846631794971905,-1.4561666288764585,-0.9658273143255593,0.8923320259804641,-1.4650228477392155,LB
1.3119981365210436,0.2433409401799132,-0.9045776818992738,0.4108844870772133,-0.9548284353498132,-0.10757714815030053,0.3964336520153082,-1.3422631810784582,-0.7354522084363646,0.33105851699314554,-1.2880477641866805,-0.6838191573637177,-0.8428236281513312,-0.8664186211597666,-1.4953140622527683,-0.08707186284728635,-0.9294485968793671,-0.20180399310434108,-0.9537580247916574,0.8836556623315849,-1.4561617987938473,-0.974617304356907,0.8736763830948563,-1.4531888955314665,LB
1.3515012854088175,0.2762355983337957,-0.9941989103219584,0.3306702505387365,-0.8373153653403372,-0.18230211256430642,0.39655276499884723,-1.3431121325648865,-0.7354522084363646,0.38632007936235846,-1.3223637233629522,-0.727365450725184,-0.8689098836261562,-0.8621420769581393,-1.4728243791342337,0.1555519494688059,-0.9294485968793671,-0.018989764208810232,-0.9531869993180795,0.883126956538339,-1.4556433699268339,-0.9433192326210901,0.8964113516696832,-1.4347944508777923,LB
1.3096744274793723,0.2822167793341832,-0.9240602800748963,0.62479005189929,-0.7344921506822233,-0.034527211500359214,0.3964336520153082,-1.3430948868006714,-0.735088901006638,0.3643211328238083,-1.2864321406321495,-0.7148130439642002,-0.8689098836261562,-0.8728329995608978,-1.4953140622527683,0.35535986859103996,-1.0540605966563985,-0.43032170438417694,-0.9526228848941047,0.8824914591775833,-1.4558840690436619,-0.9566464659081659,0.8963897083882254,-1.4559557747849283,LB
1.3119981365210436,0.2792268012834055,-0.9630254764261404,0.5980515060267285,-0.3672656830630723,0.38416849208038467,0.39652534330479494,-1.3426558479676753,-0.734646613700881,0.3754897252032435,-1.2868261269534187,-0.7250270272849761,-0.8534954326522403,-0.9006292231675438,-1.4751917907510186,0.35535986859103996,-1.1994411497006874,-0.08754506262484542,-0.9522358661162494,0.8813018711427802,-1.4555282529579163,-0.9649340472618724,0.875173232440497,-1.4399233002256722,LB
1.2608764424249144,0.24633091823069092,-0.8850950837236522,0.758480854778187,3.0846643440879165,0.18713526915232742,0.3956247120407699,-1.3374693951615493,-0.733572487386903,0.32343806037264344,-1.240611448333134,-0.6859229563784877,-0.8546809728509716,-0.8621420769581393,-1.4822940256013735,0.5694397084865064,-1.0332919073544438,-0.5217288188319423,-0.9514955199273585,0.8805271946079749,-1.4555274479441487,-0.9584684540041859,0.8842227212837501,-1.4420659445256083,LB
1.2980558822710173,0.2822167793341832,-0.75261277772201,0.8119570708488053,-0.8226264721225451,0.38416849208038467,0.3944430084127108,-1.3375943311423077,-0.7318586240770985,0.3046380733208054,-1.2827917160929418,-0.6605131311034503,-0.7965802752295835,-0.8215162207466109,-1.5130689221377331,-0.09270932343496992,-0.3271575457620897,-0.22465580913607136,-0.9525891935272828,0.8795109240351962,-1.4556997208906401,-1.0074952395248202,0.8409872365118285,-1.460519036736049,LB
1.2748186966749406,0.26427446123185344,-0.8928884421976067,0.14350288131941938,-0.32319852234291135,1.2461891247023105,0.39350981388699946,-1.3365502342528055,-0.7303106185069534,0.3392704698049045,-1.2541146814162305,-0.69806085998786,-0.7965802752295835,-0.8236540549461144,-1.5000488854863383,0.6550717005336192,0.0051409253269278895,-0.06469324659311516,-0.9525269940808414,0.8787975213506012,-1.455512152682544,-1.0015424317160855,0.839443637678238,-1.449056251257423,LB
1.323616776908765,0.18652155802448067,-0.783786211617828,-0.1785444567564641,-0.05879536559523131,1.4678512181846994,0.39056540948815177,-1.336192672074746,-0.7267960140237156,0.25103152234306053,-1.3021951456327499,-0.6070813286168245,-0.8345238754040487,-0.8813852121615304,-1.4669060925059123,0.5694397084865064,0.04667816789614019,0.23237983794233355,-0.9519594241320658,0.8785673067419527,-1.4546902336247491,-0.9704008762808765,0.8606748310573576,-1.4289184477245347,LB
1.3003795913126883,0.26427446123185344,-0.9513362367244733,-0.8992846455693928,0.35249835895743764,-0.10757714815030053,0.38939313206742304,-1.3348264243097057,-0.7266380542716614,0.3605676982445813,-1.2758613961835363,-0.713499147181743,-0.8866959006756164,-0.8600033669560154,-1.4811100773793404,0.6693437147883954,0.1712901676731716,0.5066012561252076,-0.9505322923887203,0.8795354335752803,-1.4539568660815054,-0.9335814974766727,0.9138515078686055,-1.4433561907744636,LB
1.3422064492421335,0.27025564223224097,-0.7993713325472086,-0.9527608616400111,0.26436404713845135,-0.10757714815030053,0.3873262218782433,-1.3345410643978266,-0.7254454581436399,0.31553489717993316,-1.3225488130427503,-0.6621555020815219,-0.9305681731999018,-0.8450367759542516,-1.4976814738695534,0.5979837369960587,0.31667072071746044,-0.17895217707261085,-0.9487224612735213,0.881485692693412,-1.4540945234359455,-0.9050436469095785,0.958310270908538,-1.4600024562017928,LB
1.3212930678670938,0.2941791413349582,-1.048749227602584,-0.7388558222226372,-0.3378875117740603,1.3693344453997136,0.3874367655823913,-1.3343505945130514,-0.7251927225403515,0.41472620014901784,-1.2923392902332222,-0.7600408123746458,-0.8594241050020605,-0.7744759861339524,-1.4787431505898372,0.4695357956661613,0.0051409253269278895,-0.11039687865657567,-0.9476071906435821,0.8820625422261092,-1.4535833396928508,-0.9323656857714022,0.9051786121227232,-1.4294880520772366,LB
1.3422064492421335,0.33903616148961574,-0.9318536385488508,-0.3110452354966769,-0.5288453365125673,-0.10757714815030053,0.38772640722581697,-1.3349283659381774,-0.7257692756353535,0.4084797311249914,-1.319001878064143,-0.7485051114572311,-0.8973677051765256,-0.7851669087367099,-1.476375738973052,0.7977916561182927,-0.07793369584619393,-0.08754506262484542,-0.9455304202374063,0.8832083632250474,-1.4531091865831147,-0.9054370994884535,0.9378106204427017,-1.4317198727991058,LB
1.3119981365210436,0.32109261848845316,-0.8695099627942707,-0.12387826908763203,-0.4994671652235553,0.8767517107214852,0.38741962702360877,-1.3348655913564345,-0.7251374366271325,0.3730295049141467,-1.2924635398998567,-0.7215936898593859,-0.8961821649777943,-0.8001343755410959,-1.4669060925059123,0.9690559206571495,0.5243573416676136,0.30093516629419986,-0.9433577590179673,0.8847550902725063,-1.4522051561209162,-0.9053990513269801,0.9328854753141007,-1.4248500747455783,LB
1.3027033003543596,0.3838931816442732,-0.8928884421976067,0.4108844870772133,-0.7198031612510744,0.8028639698117883,0.38858247823700653,-1.335037282520176,-0.725461254118846,0.4244602249522187,-1.284842062325382,-0.7705676282626708,-0.8677243434274249,-0.7466797625273064,-1.489395775624447,1.1260478904965991,1.0228050687063448,0.2552316090703171,-0.9411928727293333,0.8865933057788244,-1.45158127045021,-0.9246246143734079,0.9192874344396171,-1.4366149353111095,LB
1.284113628020991,0.27324562028301796,-1.0370599879009161,0.09002684038370215,0.22148665116998942,0.7782349379364991,0.3888489828260763,-1.3334734366211511,-0.7253980702180239,0.3943587061209184,-1.2574134193721926,-0.7482783078459726,-0.8250376111018708,-0.75523197512794,-1.4846614372181588,0.5694397084865064,1.1058798259141638,0.5751565545412428,-0.940572606027322,0.8875500531828273,-1.450584663404618,-0.956423365324979,0.8775695765635358,-1.4298045882055361,LB
1.3050270093960306,0.3181026404376755,-0.8071646910211631,-0.15061634209596092,-0.5582235078015794,0.655089133276224,0.3880160488692426,-1.3334224658069154,-0.724489801643703,0.34917193094105,-1.2884460584343473,-0.7004383874989757,-0.7906511172016814,-0.7637850635311949,-1.5024162971031234,0.041376022393684715,-0.22778992646543839,0.20952805184643444,-0.9414278484158887,0.8865775496459132,-1.4501821565202917,-0.9931458942636134,0.8454647985798763,-1.4440149715490975,LB
1.2957321732293465,0.362959660592333,-0.9474403554967598,0.25045566373045774,0.22029680271266977,1.3200763816491352,0.38908549493727546,-1.3322508269100626,-0.7246003734701434,0.4275220380958651,-1.2750873298297212,-0.7753852497983501,-0.857052538926516,-0.8471746101537543,-1.510701510520948,-0.6864955828213709,1.1058798259141638,-0.33891473961556695,-0.9427176230483437,0.8878240348273404,-1.4506603346988713,-0.9668433731830939,0.8918169158817619,-1.4659363035206283,LB
1.3445301582838045,0.30614027843690045,-0.7759928531438735,0.7317423089056254,0.29374214145677774,1.4432223476303676,0.38854734419150266,-1.3320769896067743,-0.7226258765694474,0.33264958285042373,-1.3273705919245162,-0.6768351702998181,-0.8594241050020605,-0.8471746101537543,-1.5024162971031234,-0.6579515543118187,1.0228050687063448,-0.9330609086864644,-0.9438285742722788,0.8889952407070804,-1.4514540782747636,-0.96109896553152,0.8932592241581286,-1.4587274743855208,LB
1.328264194992107,0.30614027843690045,-0.9630254764261404,1.8012680313971972,0.4846999373312776,-0.10757714815030053,0.39006153585994346,-1.3311913238045285,-0.7230760618628053,0.3950966039299257,-1.3031278494867267,-0.7396675914323647,-0.8736530157772451,-0.8386215217504994,-1.4834774889961255,-0.5437756272366975,1.0228050687063448,-1.6414658585577024,-0.9443270337250088,0.8904062899433586,-1.4524579304442735,-0.9393501175946379,0.9062651048519187,-1.4420450563547056,LB
1.3422064492421335,0.2582932802314659,-0.9903014330757174,2.2290788107715485,0.47001094790012865,-0.10757714815030053,0.3913846325979593,-1.3305439561398142,-0.7230523678999984,0.3721048188342161,-1.3131576090729489,-0.7163146402870103,-0.8938105989022499,-0.8728329995608978,-1.517803745371303,-0.1727037988054729,0.37897678862332485,-1.4358007117053744,-0.944496354440322,0.8914812083441961,-1.4539979217837073,-0.9485889029851856,0.9211686684639537,-1.477920489880641,LB
1.2515816062582303,0.2822167793341832,-0.9357511157950918,2.54993645746506,-0.01472820487507033,0.6304601014009349,0.39276514350789615,-1.3288117149342096,-0.7226890604702696,0.3649420776163366,-1.231044299579923,-0.7259811666150928,-0.9139681820272547,-0.8322071433493693,-1.5391094802678047,-0.4438717144163524,0.25436478884629343,-1.5729113085374444,-0.9447296023644757,0.8929902957408116,-1.4559412250212362,-0.9335417198533148,0.9494763491486077,-1.4941963919700358,LB
1.363119925796539,0.25530330218068825,-0.9864055518480039,2.3092940981194316,0.11747337349876966,0.1625062372770383,0.39393313628892906,-1.3290144484735382,-0.7223573449909529,0.37014690754395374,-1.3327670633032955,-0.7101283762696029,-0.8843248202781543,-0.8428980659521269,-1.5189872087660548,-0.6864955828213709,0.19205885697512637,-1.3900961815669808,-0.9455476978614183,0.8937544681870095,-1.4572340771336927,-0.9492149681876146,0.9184312262251356,-1.4750250680370072,LB
1.36544363483821,0.22240741912797296,-1.0370599879009161,1.5338871261790075,0.11747337349876966,-0.25618936951113125,0.39452698735074593,-1.3291895121422814,-0.7222309771893087,0.3646753574276762,-1.3312009431135128,-0.7054515293891873,-0.889067466751161,-0.8878004663652826,-1.5024162971031234,-0.6864955828213709,-0.3894634912367265,-1.0930234712294207,-0.9463882542695743,0.8938621350952367,-1.458157427926338,-0.9484738937698225,0.9125624340249621,-1.4654823874990817,LB
1.3979756566009707,0.24932212118030073,-0.9708188349000949,0.9456478737277023,-0.22037501904472628,-0.3793352064355978,0.3946589542533717,-1.33045941357124,-0.7220098335364302,0.3633181976033561,-1.3658461941374287,-0.696011806672361,-0.8807672283257962,-0.9305641567763137,-1.498864937264305,-0.4438717144163524,-0.7009934226619564,-0.38461822199987195,-0.9471735222808946,0.8933465594127502,-1.4585188791084638,-0.9630134798383974,0.8964624298139245,-1.4662849752964708,LB
1.3956519475592997,0.27324562028301796,-0.795475451319495,0.14350288131941938,-0.6316688398107524,-0.10757714815030053,0.39333242980359945,-1.3323487062029635,-0.7207540535075889,0.32019534867832816,-1.3738914356296774,-0.6544128960420379,-0.857052538926516,-0.9027670573670464,-1.5923745447499804,-0.20124784601133386,-1.0332919073544438,-0.13324869468830589,-0.9487077752931119,0.892358299742925,-1.4602480486835303,-1.0178296390196193,0.8880769568458056,-1.544773884246942,LB
1.3189692636460568,0.27324562028301796,-0.9435428782505187,-0.4714745667346454,-0.6316688398107524,-0.9211766501482339,0.3925072081982186,-1.3325801826826504,-0.7213148106273848,0.36526348806450215,-1.2940196082613777,-0.7141169915020639,-0.8700959095029693,-0.8664186211597666,-1.5118854587429815,-0.08707186284728635,-1.4071277706508407,0.11812093739866901,-0.9489436148608681,0.8912807553199358,-1.4602464386559926,-0.9621288600841353,0.9001885371497477,-1.4701002800510259,LB
1.2934084641876753,0.309131481386511,-0.9162669216009418,-0.5249507828052635,0.22148665116998942,-0.6256268157561481,0.3919484911819062,-1.3313679204300908,-0.7220019355488272,0.3793752577938892,-1.2723256466980326,-0.7315495863121771,-0.8546809728509716,-0.8001343755410959,-1.4834774889961255,-0.22979168755779847,-1.157903771096778,-0.20180399310434108,-0.9490127253569137,0.8903809050625571,-1.4598197813586071,-0.9443551802903029,0.8962563857744434,-1.4362204702375172,LB
1.4490973506970999,0.30614027843690045,-1.0058881500236265,-0.07040210555748411,0.22148665116998942,-1.2906140641290593,0.39255176845105283,-1.333057775379647,-0.7236526149578095,0.4178090480078584,-1.4142101501419932,-0.733504789857502,-0.8712814497017006,-0.8792473779620278,-1.4929466506359834,-0.22979168755779847,-0.9294485968793671,-0.20180399310434108,-0.9493980163723685,0.889378639941255,-1.4599357033412923,-0.9552559785524937,0.8971160569139585,-1.4547386371342326,LB
1.3119981365210436,0.30614027843690045,-0.9396469970228053,0.3306702505387365,0.22148665116998942,-0.9211766501482339,0.3927480049491136,-1.332170499972741,-0.7245687815197313,0.3862746443775392,-1.2888182783906585,-0.7345605997719767,-0.9222684204526194,-0.8749708337604003,-1.5118854587429815,-0.2583357160673507,-1.1163665285275655,-0.4988770028002121,-0.9491103439325786,0.8895650875140388,-1.4605298035025591,-0.9249679125576126,0.9461502096541298,-1.4751455767152932,LB
1.3538249944504885,0.312121459437288,-0.9747163121463368,0.8654331117845224,-0.6904249899620623,-1.0689511640418836,0.393652063924895,-1.3330695791471543,-0.7256981937469283,0.404775938473622,-1.3268751048110998,-0.7433277324692112,-0.8262236369786843,-0.8621420769581393,-1.5249054953943764,-0.1727037988054729,-0.8256052864042905,-0.29321110755210655,-0.9502109285821073,0.8883544913020209,-1.4609781961716983,-1.0003689918270013,0.8617838327992696,-1.4778578253679315,LB
1.2980558822710173,0.2792268012834055,-1.0058881500236265,0.8119570708488053,0.22148665116998942,-0.6256268157561481,0.39422706257205054,-1.3318393812998113,-0.726480094519605,0.38894016348693,-1.2719214573931896,-0.7404496728504938,-0.8558669987277848,-0.8728329995608978,-1.4538860558545175,-0.015711875706795254,-0.8048367331370329,-0.20180399310434108,-0.9500027332127695,0.8875325463684816,-1.460173182403046,-0.9462558589020983,0.8806905377497912,-1.418128904061937,LB
1.3491775763671463,0.22240741912797296,-1.0331641066732034,0.62479005189929,-0.7051141718199253,-0.5517392361674086,0.39411309115614607,-1.3326191197858561,-0.726511686470015,0.36231021405125685,-1.316306703269826,-0.70660900988802,-0.8677243434274249,-0.8065487539422259,-1.4420494825978745,-0.0014399268890998075,-0.9294485968793671,-0.4760253364476374,-0.94917254337902,0.8870633637440115,-1.459259491775624,-0.9159159090506636,0.9031649212158632,-1.4010528243487195,LB
1.2353155477871667,0.30016032233534573,-0.9396469970228053,0.9456478737277023,-0.5582235078015794,-0.20693119283588277,0.3945484105492236,-1.3311777571366792,-0.726969769750978,0.37784224775054653,-1.2160524134045498,-0.7405044185497625,-0.8665383175506117,-0.7723381519344498,-1.4964980104748018,-0.029983946050497628,-0.5140754910137579,-0.27035929152037624,-0.9487820690763613,0.8872121716659518,-1.459096878994356,-0.9351189890925838,0.9138142814244977,-1.4457607406018773,LB
1.3143218455627146,0.2911879383853484,-0.9708188349000949,0.9189096781249427,-0.3378875117740603,0.1625062372770383,0.39513283540371014,-1.3309889735044047,-0.7270408516394032,0.3864875156953031,-1.289105473483853,-0.7346935536130588,-0.8428236281513312,-0.8001343755410959,-1.5118854587429815,0.041376022393684715,-0.6179188014888345,-0.27035929152037624,-0.9489392954548651,0.8867351109750264,-1.4592385614176393,-0.9670336139904621,0.8878743757313579,-1.4607351489657765,LB
1.2934084641876753,0.30315030038612345,-0.9513362367244733,0.8119570708488053,-0.4700890901479003,0.18713526915232742,0.39563842288779605,-1.330584349551998,-0.7271830154162513,0.3870032869118612,-1.2706478983101843,-0.7389167932709597,-0.9127821561504414,-0.8578655327565118,-1.476375738973052,0.11273600018602142,-0.4517694231078936,0.026713867854650245,-0.9478862242713672,0.887430131504558,-1.4587475030187607,-0.9114322791133753,0.9376270854159373,-1.4410496546720581,LB
1.3119981365210436,0.3300650024384505,-0.9864055518480039,1.213029479485496,0.22029680271266977,0.334910267008849,0.396995796743377,-1.3297238242415854,-0.7277437725360495,0.4184459791839345,-1.287634732296073,-0.7644517515728975,-0.8523098924535091,-0.8386215217504994,-1.5118854587429815,0.041376022393684715,-0.3479262350640445,-0.31606292358383675,-0.9481125611459177,0.8872393072281878,-1.45900510742473,-0.9689645581852476,0.8892041389441422,-1.4656912692081119,LB
1.288761046104333,0.2433409401799132,-0.9825080746017629,0.9723858941955609,0.16154060156828057,-0.034527211500359214,0.3969478087787857,-1.3284486341116013,-0.7274831389451579,0.3559913856069629,-1.2629475176627372,-0.7118098513185822,-0.8321523093285043,-0.8813852121615304,-1.489395775624447,0.08419206515801302,-0.3479262350640445,-0.2475076251678016,-0.9485479572710056,0.8864628800119476,-1.4588899904558128,-0.9831885174597806,0.8604982218806596,-1.4487244506965402,LB
1.191164980816051,0.2074550790764209,-0.8811992024959387,0.9456478737277023,0.044028041489596666,0.4826851035444134,0.3956289966804657,-1.3255377024077757,-0.7259272353874099,0.2918708425866216,-1.173573765058444,-0.6676691760793375,-0.8795816881270653,-0.8086874639443508,-1.4787431505898372,0.1555519494688059,-0.3479262350640445,0.14097272349456816,-0.9477030814568453,0.8868392765203842,-1.4581952635734643,-0.9255109635895544,0.9170867455809594,-1.4349840511982963,LB
1.3491775763671463,0.2911879383853484,-0.8967843234253193,0.22371764326259916,-3.911923056434227e-05,0.5812018763293992,0.39521167277411007,-1.3257845851034946,-0.7251769265651454,0.36387856241612543,-1.3253831263019549,-0.7060302696386025,-0.8368949558015112,-0.8236540549461144,-1.4728243791342337,-0.27260773032212676,-0.11947099282928512,-0.2475076251678016,-0.9481116972647169,0.8865609181722846,-1.4576559043484671,-0.9579781515597423,0.87434559335754,-1.4278909103943442,LB
1.2957321732293465,0.2822167793341832,-0.9825080746017629,0.19697944765983955,-0.11755161195989834,0.5073142967406598,0.39519367728738813,-1.3250745961527195,-0.7250426607758982,0.38308746433133595,-1.270815831862047,-0.7352722938624762,-0.8416380879526002,-0.8343449775488719,-1.4704574523447307,-0.42959960668003255,0.23359623557903594,-0.13324869468830589,-0.9486991364811059,0.8866712111026639,-1.4570489239669022,-0.9558189183961139,0.8764631720153988,-1.4273670993393919,LB
1.3166455546043858,0.19848392002525572,-0.9045776818992738,0.009812603845225351,0.26436404713845135,0.655089133276224,0.39336156535352995,-1.32433617085295,-0.7231945316768464,0.30064568437697337,-1.2907602462642456,-0.6552106190885301,-0.830966283451691,-0.8792473779620278,-1.5189872087660548,-0.3439677081144635,-0.24408291098549814,-0.7502465301117781,-0.9499984138067665,0.8860435918083637,-1.4578917733826828,-0.9979192090666666,0.8623976362614209,-1.4747768201597367,LB
1.323616776908765,0.30614027843690045,-1.0955077824277826,0.5980515060267285,0.47001094790012865,0.7043476809896744,0.39479434886775383,-1.3234146338611366,-0.7238974525734949,0.43830779865876857,-1.2928826935806086,-0.7816419011433892,-0.8807672283257962,-0.8257927649482383,-1.5083345837314452,-0.0727999140295909,-0.7425306652311685,-0.7502465301117781,-0.9498031766554379,0.8860716027113172,-1.458489898612792,-0.9428211475981632,0.9175490460729041,-1.4633831263233286,LB
1.3050270093960306,0.21044505712719794,-1.0058881500236265,0.9991239146634195,0.19091870550794265,0.1378772054017491,0.3945321289183805,-1.3224968526135297,-0.7232814095404777,0.34235415905235306,-1.2760397594519413,-0.696660934249408,-0.9210823945758059,-0.8364836875509968,-1.4467843058314442,0.4409918606381528,-0.2648515866839832,-0.6588395653431682,-0.9477808307648969,0.887138643045699,-1.4579964251726079,-0.8861112276526864,0.9465839410145497,-1.4131623397341502,LB
1.2957321732293465,0.22838860012836049,-0.9474403554967598,0.14350288131941938,0.10278438406762068,0.6797186491143852,0.39349610303997334,-1.321586122967291,-0.7221598953008835,0.33436012589000436,-1.2703968293366075,-0.6904042829043711,-0.8404525477538689,-0.8450367759542516,-1.4799266139845886,0.48380780992093736,-0.3479262350640445,0.09526915130276989,-0.9472936017677742,0.8866414495182757,-1.4573926648461175,-0.9638704282024967,0.8741906274623001,-1.4369146002244482,LB
1.2910847551460043,0.2792268012834055,-0.8734058440219842,-0.8458084294987747,0.22148665116998942,0.21176446234857393,0.3919964791464975,-1.320564100655984,-0.7215912401934824,0.34392334880582964,-1.2708648061832024,-0.6991323115306979,-0.8202949646288641,-0.8193783865471083,-1.489395775624447,0.48380780992093736,-0.5348440442810154,0.4837494400934774,-0.9471415586764743,0.8857372225573107,-1.4565892611050018,-0.9775158824764417,0.8613094120697086,-1.4408994205197942,LB
1.2794661147582829,0.3420261395403934,-0.9240602800748963,-0.6051650193437402,-0.3378875117740603,0.08861865768829882,0.39189450472174103,-1.3199949904368862,-0.7222704671273217,0.4041280692456451,-1.2598882097213115,-0.7568108161177693,-0.8582385648033293,-0.7509563067289338,-1.4669060925059123,0.35535986859103996,-0.5140754910137579,0.5294529224777823,-0.9460020993729187,0.885785366296762,-1.4552537432628068,-0.9217926205364508,0.9075567758893369,-1.4161043582667214,LB
1.2515816062582303,0.2911879383853484,-0.9864055518480039,-0.12387826908763203,-0.04410627995072532,-0.009897727926389557,0.39181566735134105,-1.3184755236377752,-0.7228154282719138,0.38814336847537917,-1.2294375941888123,-0.7476995675965573,-0.83570941560278,-0.7530941409284364,-1.4929466506359834,0.3410878543362639,-0.09870230352733034,0.5523047385095126,-0.9455079593261916,0.8858440141248206,-1.4543633980346762,-0.9519838366657628,0.8886691170264986,-1.4378987544304564,LB
1.2608764424249144,0.2792268012834055,-0.7759928531438735,-0.3377837463422583,0.11747337349876966,-0.18230211256430642,0.3899604183631264,-1.317131886985817,-0.7219387516480051,0.308474805372201,-1.2459327955217459,-0.6711337967616517,-0.804880027976866,-0.7723381519344498,-1.4621717540996237,-0.015711875706795254,-0.28562026238246824,-0.11039687865657567,-0.9457533015871546,0.8850133157841084,-1.4534537324760977,-0.9642742575526817,0.8534658868692996,-1.4098780765552446,LB
1.2957321732293465,0.285207982283793,-0.9435428782505187,-0.284307162488348,0.3965656158909556,-0.08378537204351194,0.389477967933397,-1.3160280047803694,-0.7220888134124585,0.37210734300003956,-1.2725435370805798,-0.7248002236737177,-0.8250376111018708,-0.6504614591024859,-1.4740083273562672,-0.11561588200868418,-0.6179188014888345,-0.36176640596814175,-0.9453610995220944,0.8847638436796795,-1.4527260000292355,-0.9258067015719168,0.8969654196750104,-1.4081170430698828,LB
1.3050270093960306,0.285207982283793,-1.0058881500236265,0.7050042884377669,0.4112546053221046,-0.5517392361674086,0.3901506563656132,-1.3150529675955687,-0.722941796073558,0.39346262725365183,-1.2786598100560915,-0.7432651659557611,-0.8167373726765064,-0.8236540549461144,-1.4633552174943758,-0.6436795400570426,-0.47253811240984833,-0.5217288188319423,-0.9465420251232771,0.8838053455942422,-1.4523323482963637,-0.9682243484983971,0.8548536540763919,-1.4177963001098663,LB
1.284113628020991,0.2822167793341832,-0.9279577573211373,0.9189096781249427,0.6022124300606116,-0.20693119283588277,0.39036660220627345,-1.3135381763147558,-0.7230523678999984,0.36411078567186794,-1.2621095881895141,-0.7194664284020734,-0.8546809728509716,-0.8450367759542516,-1.418376336084588,-0.7578553736506201,-0.01562776397502686,-0.6588395653431682,-0.9469497770499465,0.8838386085414993,-1.45136633177398,-0.9229297417259472,0.8815796437520894,-1.3833830385471417,LB
1.363119925796539,0.2582932802314659,-0.7876820928455406,1.106076697074458,0.8078593404436245,-0.502481011095873,0.3895019619156923,-1.3134452791315172,-0.721922955672799,0.30466247359043047,-1.3425896645341373,-0.6476087877043097,-0.8404525477538689,-0.8086874639443508,-1.4692735041226972,-0.6436795400570426,0.02590961462888268,-0.818801978206969,-0.9477350450612668,0.8838823755773639,-1.4513462064297642,-0.9500347331211821,0.8801676360697641,-1.4233164009665833,LB
1.4630396049471261,0.2822167793341832,-0.8383365288984527,0.9991239146634195,0.5287670980514386,-0.3793352064355978,0.3893759935086405,-1.3155983936318112,-0.7210146870984804,0.3466048542987676,-1.4359362322091827,-0.6623275599935117,-0.8606096452007914,-0.8535889885548844,-1.4728243791342337,-0.6151356050290342,-0.09870230352733034,-0.5674326005745584,-0.9483674061000864,0.8840066739592197,-1.4512858303971143,-0.9474517817956905,0.890443000374803,-1.4331699938944875,LB
1.3189692636460568,0.3270737994888407,-0.9552337139707143,1.1328148926772175,0.6315906013496236,-0.08378537204351194,0.3906228236600734,-1.3147151805604755,-0.7217255059827297,0.4064528259688922,-1.2954826405282351,-0.75175857015665,-0.8262236369786843,-0.8044109197427233,-1.494130598858017,-0.5723195622647059,-0.11947099282928512,-0.681691231695743,-0.9494645352248128,0.8837055567524706,-1.4515716102849865,-0.971883025116462,0.8700835983728148,-1.4439458799068807,LB
1.3050270093960306,0.26427446123185344,-1.0370599879009161,1.106076697074458,0.30843121747994806,-0.33007698136406216,0.39147889467126357,-1.3138454575091483,-0.722365242978556,0.38940713416423794,-1.2766186087200404,-0.7399413199287104,-0.830966283451691,-0.8664186211597666,-1.4822940256013735,-0.47241555596281704,-0.14023966852777017,-0.7045431974066287,-0.9505072398339031,0.8832188673136547,-1.451803454250359,-0.9771008116240021,0.8616063578913132,-1.440650369251335,LB
1.328264194992107,0.25231209923107845,-0.8656124855480297,1.0526001307340378,0.38187653024644963,-0.25618936951113125,0.39096730869160307,-1.3134928007929099,-0.7216149341562915,0.32497780152484856,-1.3054929010791827,-0.6745593133730605,-0.8440096540281447,-0.9754656813868483,-1.4976814738695534,-0.40105567165202416,-0.05716500654423916,-0.818801978206969,-0.9518937691608222,0.882675280728215,-1.4526543538038255,-1.0001260024321361,0.8544043395533222,-1.467225746378295,LB
1.3305879040337782,0.24932212118030073,-0.7993713325472086,1.239767499953355,0.22029680271266977,-0.18230211256430642,0.39009581297750917,-1.313440220374014,-0.720343358152244,0.30021068646676036,-1.3106129093919343,-0.6506354427924724,-0.8025089475794038,-0.8193783865471083,-1.4858449006129104,-0.3439677081144635,0.10898423580200452,-1.1615787696454558,-0.9529520236315229,0.8820993065362354,-1.453138972092554,-0.98903582809352,0.8444995082268458,-1.4363000059651865,LB
1.323616776908765,0.22838860012836049,-0.9591295951984278,0.9189096781249427,-0.05879536559523131,0.7289767128649635,0.3898224529649266,-1.3134199086961609,-0.7192455378754569,0.3400159401113817,-1.2960357933932587,-0.690419924532732,-0.8451951942268756,-0.8428980659521269,-1.5308237820226978,-0.386783657397248,0.19205885697512637,-0.9102092423338898,-0.9539541258241869,0.8824021744244193,-1.4543424676766903,-0.9843783872367727,0.8834885811766922,-1.4825496299092256,LB
1.3538249944504885,0.24633091823069092,-0.998094791549672,0.49109924902039304,0.33780936952628865,0.6797186491143852,0.3898010297664483,-1.3134861324307467,-0.7185900049044266,0.3672735654484455,-1.323181246869027,-0.7096513066045436,-0.8274091771774152,-0.8942148447664128,-1.5142528703597666,-0.586591576519482,0.0051409253269278895,-0.9102092423338898,-0.9555557615700481,0.881963628725055,-1.4553084841990742,-1.0017733148777543,0.8558812770800217,-1.4718958593574971,LB
1.3096744274793723,0.28819796033457074,-0.7876820928455406,0.5178372694882516,0.33780936952628865,0.5073142967406598,0.38887383373631096,-1.3129316619492715,-0.7173658168259952,0.3217990353647226,-1.292645001852162,-0.6743325097618043,-0.8511238665766958,-0.8792473779620278,-1.4976814738695534,-0.6436795400570426,-0.5140754910137579,-1.1844305856771862,-0.9566200632091534,0.8815119529149311,-1.4561795090967575,-0.9725652978301595,0.879066425909177,-1.4573544788442419,LB
1.323616776908765,0.22838860012836049,-0.9357511157950918,0.8654331117845224,-0.1322406013910473,0.40879784659758844,0.3883751016757378,-1.3130007983018137,-0.7164259563012644,0.33212119080474933,-1.2970636495162704,-0.682927584547049,-0.8380809816783245,-0.8557276985570091,-1.5118854587429815,-0.10134381540424355,-0.431000869840636,-1.0016162071024997,-0.957146166860302,0.8810331415425708,-1.4570094782922383,-0.9836762257113969,0.8728115175677914,-1.4664360128399234,LB
1.3166455546043858,0.25231209923107845,-0.9513362367244733,0.9456478737277023,-0.1322406013910473,0.5812018763293992,0.38842651735208544,-1.3129674564909977,-0.7157862193054381,0.35333764593808037,-1.290722684169162,-0.7038091584111136,-0.8368949558015112,-0.8706942895587729,-1.4905797238464804,-0.04425589486819308,-0.36869493796946895,-0.6359878989905936,-0.9574666667857141,0.8804930563200005,-1.457246152340223,-0.9777398477905703,0.8669894748555674,-1.4489735019649996,LB
1.3445301582838045,0.32109261848845316,-0.8967843234253193,0.8119570708488053,-0.23506410468923233,0.531943328615949,0.3890126560624495,-1.3136930816013277,-0.7156282595533816,0.38436300946070356,-1.3221679772336432,-0.7256057675343914,-0.8404525477538689,-0.9049057673691713,-1.4822940256013735,-0.3439677081144635,-0.3063889380809533,-0.818801978206969,-0.9582139240242095,0.8799433423495396,-1.4575560826411544,-0.9790395383972709,0.8630521290927131,-1.4456595133121164,LB
1.3027033003543596,0.23137857817913818,-0.8344406476707401,0.4643612285525345,0.07340621277860868,0.9013807425967743,0.38758072947616506,-1.313224609997405,-0.7137801304543322,0.2981576982638206,-1.2818237174735645,-0.6547335494234706,-0.7787937725020413,-0.8535889885548844,-1.464539165716409,-0.029983946050497628,-0.18177695190739165,-0.7502465301117781,-0.9590147418971401,0.8785349191354128,-1.4572759378496623,-1.0038668284897465,0.8142015113793067,-1.419227139816723,LB
1.3189692636460568,0.24932212118030073,-1.1422663372529822,0.2771936841983163,-0.01472820487507033,0.8767517107214852,0.38838881252276336,-1.312906291513915,-0.714190825809677,0.4143988999805982,-1.2845826798096338,-0.761354709157103,-0.8392665218770556,-0.7894434529383374,-1.4787431505898372,-0.04425589486819308,-0.14023966852777017,-0.9102092423338898,-0.9587685357549761,0.878591816282037,-1.4572759378496623,-0.9510066907006445,0.883638352684382,-1.4295209911159685,LB
1.2957321732293465,0.27324562028301796,-0.9201643988471828,0.38414646660935475,0.11747337349876966,0.1625062372770383,0.38808974467200735,-1.3122250455034983,-0.7140091720948114,0.3559585714512599,-1.2731025094251234,-0.7097920812598071,-0.809623160127955,-0.8086874639443508,-1.4929466506359834,-0.029983946050497628,-0.2025456276058767,-0.8645054605912738,-0.9591771515628477,0.8779895818685386,-1.4575472274896988,-0.9847424389635999,0.8537628326909047,-1.4420378258340083,LB
1.3422064492421335,0.26128325828224297,-0.9669229536723823,0.1702414271919809,-3.911923056434227e-05,0.6304601014009349,0.38785323256080817,-1.312531636867322,-0.7135194968634407,0.3663564518659848,-1.3143477304236153,-0.7107618622182891,-0.8416380879526002,-0.8300693091498658,-1.4728243791342337,-0.10134381540424355,-0.16100834422625523,-0.681691231695743,-0.9591002661359969,0.8779195546111549,-1.457408765121491,-0.9559719757729516,0.8774951236753201,-1.428997983452204,LB
1.3212930678670938,0.21941744107719596,-1.1539555769546492,0.14350288131941938,0.044028041489596666,0.6304601014009349,0.388266271827468,-1.312202817629621,-0.7137248445411108,0.39811045792293,-1.285185033728781,-0.7462136129021104,-0.8155518324777752,-0.8471746101537543,-1.540293428489838,-0.41532768590680025,0.08821554650004973,-0.9102092423338898,-0.9606068749497945,0.8776735838695952,-1.458718522523089,-1.0123757809647542,0.8560829924632111,-1.4892290242510602,LB
1.3212930678670938,0.2822167793341832,-0.9825080746017629,0.5178372694882516,0.08809529842311468,0.75360590606121,0.388615041498694,-1.3120000840902923,-0.7136142727146727,0.38462299854050214,-1.2948161211790559,-0.7317842107376172,-0.8191089387520509,-0.8471746101537543,-1.5071506355094118,-0.27260773032212676,-0.07793369584619393,-0.7959503118543941,-0.9614690283879654,0.8772542956660112,-1.4592119959632732,-0.9936301435914595,0.8565063350485311,-1.4597863439720664,LB
1.3189692636460568,0.18652155802448067,-1.0877144239538281,0.7317423089056254,0.30843121747994806,0.03936043261676317,0.3885250640650849,-1.311348270850803,-0.7134563129626164,0.3541983864838217,-1.284684180601781,-0.7058425700982518,-0.857052538926516,-0.8578655327565118,-1.498864937264305,-0.2868797445769029,-0.14023966852777017,-1.2529857344140658,-0.9617523814217536,0.877444244601664,-1.4600435751862928,-0.9636879699736117,0.8887063434706064,-1.4565406435702124,LB
1.2632001514665856,0.30016032233534573,-1.0331641066732034,0.5713134855588698,0.23498588547077504,0.2610230100620242,0.3894676847981272,-1.3098662848459197,-0.7143724795245403,0.41044353213550816,-1.2388691566269732,-0.766594654658573,-0.8285947173761465,-0.8685564553592703,-1.5047832238926266,-0.2583357160673507,0.31667072071746044,-1.1844305856771862,-0.9625229634526643,0.8775037677704403,-1.4608888396433781,-0.9903484896643597,0.8610038089355203,-1.4607520201807362,LB
1.374738471004894,0.18652155802448067,-0.756510254968251,0.8119570708488053,0.22029680271266977,0.334910267008849,0.3871968257594351,-1.3107274233390598,-0.711663469776786,0.24511656043049265,-1.3520833518056155,-0.5905872315084669,-0.8499383263779645,-0.8557276985570091,-1.5012323488810904,-0.22979168755779847,0.1712901676731716,-0.7502465301117781,-0.9628261857540644,0.8778644081459656,-1.4613163019545323,-0.9696494250917725,0.8827882045887087,-1.4578549915547259,LB
1.372414761963223,0.23137857817913818,-1.0565425860765385,0.2771936841983163,0.29374214145677774,0.531943328615949,0.3872645230666265,-1.3111866972020678,-0.7114265301487014,0.37765630086823126,-1.3370823207338538,-0.7160409117906646,-0.8487523005011514,-0.8942148447664128,-1.4740083273562672,-0.2440637952941184,0.08821554650004973,-0.5445807845428281,-0.9630637530842224,0.8778994217746573,-1.461131148787743,-0.966366906433731,0.871940591921918,-1.4377870830552442,LB
1.4839530815015316,0.2762355983337957,-0.9318536385488508,0.43762268267997284,0.014649966413941671,0.28565204193731336,0.38742733937506096,-1.3142417268468904,-0.7107157112644521,0.37567146514252037,-1.449673075827296,-0.6850470251901821,-0.8428236281513312,-0.8685564553592703,-1.464539165716409,-0.08707186284728635,0.0051409253269278895,-0.590284266927133,-0.9629713177957613,0.8778469013316198,-1.4607890179360654,-0.9600967423690675,0.8705095381519097,-1.426043110660616,LB
1.4630396049471261,0.33604495854000593,-0.9123710403732284,0.1702414271919809,-0.2644421797648873,0.3102812351335599,0.38807089225734664,-1.317248698295434,-0.7107078132768491,0.4088869632111484,-1.434202102889881,-0.7198183650402302,-0.8760245818527895,-0.8535889885548844,-1.5000488854863383,-0.10134381540424355,0.08821554650004973,-0.27035929152037624,-0.9626801898311681,0.8786128244592523,-1.4608550290650941,-0.9490437514609831,0.9070451287156679,-1.4586366911812112,LB
1.3398827402004623,0.21044505712719794,-0.9941989103219584,0.19697944765983955,-0.07348445123973735,0.5073142967406598,0.38733050651793904,-1.3174320399310007,-0.7099180145165715,0.34060996046846204,-1.308983077238056,-0.6882222757477877,-0.8428236281513312,-0.8706942895587729,-1.4834774889961255,0.08419206515801302,0.02590961462888268,-0.06469324659311516,-0.962558382581888,0.878591816282037,-1.460446082070619,-0.969869066751188,0.8718081350393947,-1.4431199937650223,LB
1.363119925796539,0.25530330218068825,-1.0292666294269615,0.2771936841983163,-0.3085094366984053,0.18713526915232742,0.3875533077821127,-1.3183277466004122,-0.7100917702438317,0.38434365752272487,-1.3307189844005387,-0.7236505639890666,-0.8368949558015112,-0.9027670573670464,-1.4716409157394823,0.25545595577069485,-0.3063889380809533,-0.17895217707261085,-0.9623285901825352,0.8780027119792978,-1.4599856141949497,-0.9759697435511046,0.8592489716748991,-1.4356950524001872,LB
1.328264194992107,0.2582932802314659,-0.9123710403732284,-0.284307162488348,-0.04410627995072532,0.4826851035444134,0.3865678406521144,-1.3183461420822413,-0.7094362372728016,0.3450306162136446,-1.3036085989572028,-0.6934387588067131,-0.830966283451691,-0.9049057673691713,-1.52135462038284,0.35535986859103996,-0.5140754910137579,-0.4760253364476374,-0.9625471521262794,0.8771991492008219,-1.4606513605816256,-1.0049901139841597,0.8577443307479333,-1.4796461741537057,LB
1.3189692636460568,0.309131481386511,-0.9279577573211373,-0.3110452354966769,-0.22037501904472628,0.3595392988841382,0.38639988277604476,-1.3183824731588545,-0.7096731769008839,0.3848627942937145,-1.2960382874559102,-0.731752927480891,-0.809623160127955,-0.8386215217504994,-1.4799266139845886,0.21264000648791034,-0.4517694231078936,-0.1561003610408806,-0.9625894823051087,0.876266035996186,-1.4601120013566282,-0.9852924078430821,0.8469374074502841,-1.4337323677264924,LB
1.4328313874054024,0.3420261395403934,-0.9552337139707143,0.03655062431308397,-0.4407110150722453,-0.15767262899033677,0.3872919447606782,-1.3208906971062975,-0.7104866696239706,0.42479341484089245,-1.403518027977677,-0.7427724546623408,-0.8416380879526002,-0.8771095437625251,-1.4692735041226972,0.22691202074268643,-0.5140754910137579,-0.5217288188319423,-0.9621843220220393,0.8757084439592695,-1.4598374916615173,-0.9653076110290671,0.8682283362862282,-1.4311117056693525,LB
1.4839530815015316,0.27025564223224097,-0.8266472891967855,0.0632886447809426,-0.5141563470814183,-0.05915629177193557,0.386381030361384,-1.3244954450664563,-0.7092782775207451,0.3361741597283397,-1.4558169346472858,-0.6471473596676135,-0.8392665218770556,-0.8621420769581393,-1.4905797238464804,0.32681593356303157,-0.5348440442810154,-0.31606292358383675,-0.9618249474426013,0.8751946189582179,-1.4597497451607337,-0.9739713503427982,0.8707969609296732,-1.448216707465359,LB
1.3212930678670938,0.26427446123185344,-0.8928884421976067,0.3574084461414961,-0.4700890901479003,0.08861865768829882,0.3860254052666458,-1.3252099562398478,-0.7088201942397844,0.3420924871953391,-1.2981233238325016,-0.6918980584129975,-0.8262236369786843,-0.8984913889680401,-1.5142528703597666,0.25545595577069485,-0.3063889380809533,-0.13324869468830589,-0.9619104716814582,0.8745276093316393,-1.4601361517696876,-1.0036506457541001,0.853983594161777,-1.4722670260866204,LB
1.2632001514665856,0.22539739717875068,-0.9747163121463368,0.19697944765983955,-0.4407110150722453,-0.10841446393019723,0.38530644272571596,-1.3242390580384589,-0.7087728063141683,0.339680226056885,-1.238724803303815,-0.7012752146163734,-0.8380809816783245,-0.8557276985570091,-1.4586208790880875,0.21264000648791034,-0.36869493796946895,-0.20180399310434108,-0.9613860957927113,0.8741389580531608,-1.4593649485793179,-0.9576573363800432,0.8680439355282052,-1.418952380030229,LB
1.33523532211712,0.21941744107719596,-0.8695099627942707,0.49109924902039304,-0.20568593340022032,0.4826851035444134,0.3840904619800918,-1.3244707644616687,-0.7073511685456675,0.3041492265396952,-1.310625077394567,-0.6542643005725928,-0.8428236281513312,-0.8749708337604003,-1.4751917907510186,0.14128002869557363,-0.4517694231078936,-0.2475076251678016,-0.9611519839873555,0.8737240465531634,-1.458992227204431,-0.9668278080261273,0.8702550131619627,-1.4362260939758378,LB
1.3305879040337782,0.2941791413349582,-0.998094791549672,0.4643612285525345,-0.29382035105389925,0.6304601014009349,0.38477257661963893,-1.3246117964890278,-0.7076828840249841,0.39861865664201823,-1.3032813477062735,-0.7428741252466965,-0.8368949558015112,-0.8407602317526243,-1.4751917907510186,0.08419206515801302,-0.47253811240984833,-0.5217288188319423,-0.9609437886180178,0.8733345199339673,-1.4587201325506267,-0.9631838318340861,0.8712999507907591,-1.4319279511169474,LB
1.284113628020991,0.2792268012834055,-0.8110621682674041,0.38414646660935475,-0.45540000450339424,-0.034527211500359214,0.3838548067968313,-1.3242397478690273,-0.707169514830802,0.32205397611287473,-1.2668121811076045,-0.6797445131752619,-0.809623160127955,-0.7530941409284364,-1.476375738973052,0.3696318828458161,-0.3063889380809533,-0.29321110755210655,-0.9603382078964171,0.8729239851375562,-1.458087391728465,-0.9633204593230144,0.8628616682158822,-1.420833922193878,LB
1.3212930678670938,0.27324562028301796,-0.9591295951984278,0.7852188752460456,-0.4994671652235553,0.11324768956358797,0.3842327120179873,-1.3245089350864647,-0.7073511685456675,0.37063743710227876,-1.295518313181916,-0.718754734311574,-0.7870940109274057,-0.7680616077328224,-1.52135462038284,0.5123518384304896,-0.2025456276058767,-0.11039687865657567,-0.9604081822736635,0.8722175851786996,-1.4581348875408155,-1.0062759688957794,0.8430000616874298,-1.4613392991395868,LB
1.3073507184377016,0.17456042092253846,-0.8734058440219842,0.22371764326259916,-0.5729124972327283,0.3595392988841382,0.38221207593752055,-1.3245940908377667,-0.705582019322644,0.2730456138765504,-1.2824670344823204,-0.6314275231632034,-0.8250376111018708,-0.8920761347642889,-1.5035997604978752,0.6122557512508346,-0.14023966852777017,0.09526915130276989,-0.9601740704683078,0.87179041890866,-1.4580310407646595,-0.9978941318693311,0.8531793298227948,-1.4619900460023347,LB
1.325940485950436,0.21941744107719596,-1.0409558691286296,0.4643612285525345,-0.4407110150722453,0.38416849208038467,0.38220436358606835,-1.324762792735711,-0.7054319575581907,0.3613897349143646,-1.294300001365523,-0.7104881337219435,-0.8214805048275954,-0.8749708337604003,-1.4811100773793404,0.5408957734584979,0.0051409253269278895,0.0038620518229200173,-0.9597956905024574,0.871469168865413,-1.457557692668691,-0.9855596097043401,0.851150055753285,-1.4397963644178764,LB
1.2794661147582829,0.28819796033457074,-0.9279577573211373,0.14350288131941938,-0.39664375813872726,0.975268483506471,0.38210067530543373,-1.3241384960711244,-0.7051318340292863,0.3679820146561814,-1.2579170688724686,-0.7238382635294173,-0.8226660450263263,-0.8578655327565118,-1.489395775624447,0.7121596640711798,0.08821554650004973,-0.018989764208810232,-0.959175423800446,0.8713343663949499,-1.4572228069409314,-0.9847666514299925,0.8562033291081178,-1.4453751128313597,LB
1.2771424057166119,0.23137857817913818,-0.8967843234253193,-0.12387826908763203,-0.3378875117740603,0.7043476809896744,0.38078700477474886,-1.3233559982628051,-0.7041524835665401,0.3180809391070214,-1.2550461004500535,-0.6783211249942651,-0.8214805048275954,-0.8749708337604003,-1.4550695192492689,0.38390389710059214,0.12975278906926202,0.23237983794233355,-0.9588151853398071,0.8710691381576094,-1.4561223531191834,-0.9726370704983933,0.8488221043996539,-1.4166353998423709,LB
1.3189692636460568,0.2762355983337957,-0.9084751591455157,-0.15061634209596092,-0.6904249899620623,0.38416849208038467,0.3802462832451584,-1.3238698453885738,-0.7039155439384578,0.3554983318828138,-1.295681409763788,-0.7047632977412325,-0.8321523093285043,-0.8771095437625251,-1.4799266139845886,0.5266237592037218,0.6697378947119025,0.3694905096139817,-0.9583227730554817,0.8715794617957923,-1.4553978407273955,-0.9775582542926282,0.8604661898241016,-1.4398244831094764,LB
1.3050270093960306,0.2822167793341832,-1.052646704848825,-0.5516888032731222,-0.3819546724942213,0.334910267008849,0.38047251222108847,-1.3236248788888787,-0.7047527306243513,0.40682892667656173,-1.2765856568619791,-0.7560052722570956,-0.8119947262034994,-0.8044109197427233,-1.4680900407279458,0.6407996862788431,0.6697378947119025,0.5523047385095126,-0.9575262745885542,0.8719584843263807,-1.4541355791381472,-0.96957159930694,0.8545333335108124,-1.4194520893495242,LB
1.286437337062662,0.18353157997370298,-0.9357511157950918,-0.016925942027336206,-0.20568593340022032,0.06398946449205234,0.3788880524616387,-1.3228542614959073,-0.7038286660748266,0.2992792692779679,-1.2606046859011757,-0.6599109284114905,-0.8321523093285043,-0.8279305991477419,-1.5047832238926266,0.3125439193082555,0.9604990008004803,0.826526081852809,-0.9573630010416457,0.8729589987662479,-1.4534255569941952,-0.9781799958403442,0.8720228363914589,-1.4565751893913208,LB
1.363119925796539,0.22240741912797296,-0.998094791549672,-0.17735484506047172,0.029339052058447685,0.7782349379364991,0.3782856321204309,-1.3232493811160355,-0.7030862552401651,0.35158419207950403,-1.3308906212575506,-0.6934700420634393,-0.8262236369786843,-0.8471746101537543,-1.5012323488810904,-0.09270932343496992,0.8151185837908886,0.7808224497893483,-0.957898607386,0.8736102522599151,-1.45273485518069,-0.9854065523275036,0.8625603937379857,-1.455048746133024,LB
1.3050270093960306,0.28819796033457074,-0.8266472891967855,-0.284307162488348,0.16154060156828057,0.655089133276224,0.37727959871989364,-1.3225809352950584,-0.7023280484302976,0.3349777051281017,-1.2864766558715948,-0.6877530268969099,-0.7965802752295835,-0.8706942895587729,-1.52135462038284,0.5266237592037218,0.6905067200485545,0.7122671513733132,-0.9583314118674865,0.8735218428474683,-1.4524796658160273,-1.0229540345853603,0.8324485291109861,-1.4733395533233706,LB
1.3027033003543596,0.2911879383853484,-0.8344406476707401,-0.7388558222226372,-0.1616187726800593,0.7043476809896744,0.37606190411839124,-1.3222546454361086,-0.7016488214964582,0.33959692858471646,-1.2840275619255512,-0.6925080819191389,-0.8119947262034994,-0.8215162207466109,-1.487028364007662,0.1555519494688059,0.93973058356792,0.598008370572973,-0.9584635856911743,0.8740864376101233,-1.4516174960697994,-0.9830467015851964,0.8530009891835801,-1.4383558840167574,LB
1.3398827402004623,0.2911879383853484,-0.8617166043203162,-0.3912599799263665,0.47001094790012865,0.7289767128649635,0.37536693555975736,-1.3219082738428287,-0.701080166389057,0.35134776188072314,-1.3182265268901745,-0.6960900148141743,-0.8475667603024201,-0.8322071433493693,-1.5012323488810904,0.1555519494688059,-0.22331430738540264,0.4608976240617471,-0.9582718040646477,0.8741897278147638,-1.451231089460847,-0.9658938986081383,0.8851178874048564,-1.455088112301264,LB
1.286437337062662,0.25530330218068825,-0.8032688097934496,0.8119570708488053,0.38187653024644963,0.3595392988841382,0.3745537109455238,-1.3206441210019422,-0.7000534280006973,0.3028619019698194,-1.2685065565797955,-0.6617018948590071,-0.8523098924535091,-0.8642799111576428,-1.5083345837314452,0.49807982417571345,-0.8256052864042905,-0.20180399310434108,-0.9577439726510976,0.8736969109909271,-1.451568390229912,-0.9732882128981578,0.8839586732499617,-1.4653080516111598,LB
1.2632001514665856,0.1566168779213759,-1.00978403125134,0.9991239146634195,0.23498588547077504,0.3595392988841382,0.37393329511759404,-1.318902528759741,-0.6992083433271984,0.3049132073955437,-1.2352374235182175,-0.6697729750941075,-0.8700959095029693,-0.9027670573670464,-1.4467843058314442,0.9690559206571495,-0.7009934226619564,0.3694905096139817,-0.9559108167434831,0.8734010458284815,-1.4504647163530884,-0.939395083603653,0.8873549369763639,-1.416379921444403,LB
1.2515816062582303,0.26128325828224297,-0.9162669216009418,0.30393223007087783,-0.2791313616227503,0.6797186491143852,0.3736196594918731,-1.3177141806335595,-0.698900321810691,0.3438829621526568,-1.2311146623777556,-0.7065151601178435,-0.8179233985533196,-0.8108252981438534,-1.4621717540996237,1.1260478904965991,-0.14023966852777017,0.9864884947166094,-0.9543860664244739,0.8730535355637158,-1.448876424187536,-0.9637242886731994,0.8582724268155105,-1.4153692553291723,LB
1.325940485950436,0.24633091823069092,-0.8928884421976067,-0.8725469753713363,0.22148665116998942,0.6304601014009349,0.3721834482658922,-1.3173977016982523,-0.6980868290876043,0.33002276761699034,-1.3018347913684467,-0.6799869584148813,-0.8297807432529598,-0.8044109197427233,-1.4964980104748018,0.555167787713274,0.12975278906926202,1.3521171021868268,-0.9538003549704853,0.8732776227873431,-1.447650388217877,-0.970375799083541,0.873592407162799,-1.4463544466902363,LB
1.2701712785915988,0.309131481386511,-0.8695099627942707,-0.7923323885630574,-0.4407110150722453,0.28565204193731336,0.37148847970725896,-1.3168551116321252,-0.6983395646908928,0.3621739090967992,-1.252135302602872,-0.7195759198006108,-0.8285947173761465,-0.7830290745372073,-1.4337637843527677,0.45526387489292885,0.33743954605411247,0.18698476945798004,-0.9526539846173254,0.8736373878221512,-1.4461941183103835,-0.9349296130161585,0.8707978266609315,-1.3876377982818489,LB
1.2957321732293465,0.2672644392826305,-1.025370748199249,-0.7923323885630574,0.4553217660422656,-0.25618936951113125,0.3713436588855458,-1.315624837136941,-0.6993742010668579,0.38705208745111136,-1.2685342180019294,-0.739378221307656,-0.8321523093285043,-0.7659228977306975,-1.464539165716409,0.16982396372358205,0.8151185837908886,0.18698476945798004,-0.9521166505105695,0.874567875004635,-1.445285257765574,-0.9436590718815245,0.8802585378518879,-1.4135166352483135,LB
1.2817898237999539,0.2911879383853484,-0.768199494669919,-0.284307162488348,0.9988170689687745,-0.15767262899033677,0.3700771193915128,-1.313729106086577,-0.698995097661923,0.3153523158520488,-1.2667909437862395,-0.6735582491578546,-0.8416380879526002,-0.7723381519344498,-1.4609878058775907,-0.2583357160673507,0.711275273315812,1.1921545396438704,-0.9520026181920945,0.8755928989845867,-1.4435673583832684,-0.9363754431521564,0.887483930933854,-1.4118560256615227,LB
1.286437337062662,0.2911879383853484,-0.8928884421976067,-0.20409292594987116,0.22148665116998942,-1.044322454808509,0.3697746238290004,-1.312766715795534,-0.7000692239759011,0.35858454529608585,-1.2660584451432815,-0.7136008177660988,-0.8321523093285043,-0.8257927649482383,-1.4408660192031226,-0.12988783082637964,0.44128258445979457,0.7351189674050433,-0.9519101829036335,0.8759202764128547,-1.4419927514517832,-0.9460932894848929,0.8666215390707801,-1.3992427840008537,LB
1.2957321732293465,0.22539739717875068,-0.8071646910211631,0.03655062431308397,0.22148665116998942,-0.8965471343100728,0.3681336068255684,-1.3120279072565595,-0.6995874467321334,0.28411660517748527,-1.2761301503286415,-0.6429084783813495,-0.83570941560278,-0.8407602317526243,-1.4562534674713024,-0.5009595844723692,0.6905067200485545,0.5523047385095126,-0.9524958943576208,0.8765146327598975,-1.4409075928916386,-0.9547008212873555,0.8684819955449168,-1.4149530986934895,LB
1.3561487034921598,0.2672644392826305,-0.9396469970228053,0.4108844870772133,0.22148665116998942,-0.6995140727029729,0.36838640056761135,-1.312375275271772,-0.7002034897651483,0.3622588893461832,-1.3289529613103614,-0.7037387710834818,-0.8167373726765064,-0.8493124443532569,-1.494130598858017,-0.3296956938596874,0.8358871370581463,0.8493778978845391,-0.9535325517983076,0.8769164141491357,-1.4402756570832456,-0.9895209421523089,0.8527629130875413,-1.448188588773759,LB
1.328264194992107,0.2971691193857359,-0.9435428782505187,0.4643612285525345,0.9694389938931195,-0.8472889092385372,0.3690522335763148,-1.3113854450536664,-0.7013644939427577,0.38237817373499267,-1.3036733690084836,-0.727834699576062,-0.8594241050020605,-0.8600033669560154,-1.4408660192031226,0.027104101620452403,0.8981932049640106,0.9636368283640347,-0.9529701651367357,0.8779536928991296,-1.4387509610054163,-0.9341989153696769,0.885188877368039,-1.4054264859793362,LB
1.3143218455627146,0.21044505712719794,-0.8967843234253193,0.25045566373045774,0.7784811691546125,-0.3793352064355978,0.36802563390523796,-1.3102902240542469,-0.7008353287733716,0.30599607453373356,-1.2893572982339907,-0.660434922961637,-0.8345238754040487,-0.8428980659521269,-1.4491512326209475,0.0556480366484608,0.8358871370581463,0.826526081852809,-0.9527351894501792,0.8786014450299272,-1.4373904877363932,-0.9525459117784414,0.8663323848305,-1.4087790374092708,LB
1.33523532211712,0.25530330218068825,-0.9006818006715612,-0.284307162488348,0.6462795907807726,0.03936043261676317,0.3673160975716391,-1.3098026671379261,-0.7005510012196711,0.33946062363025875,-1.3106028575636723,-0.6868067083809726,-0.8641672371531495,-0.8535889885548844,-1.4799266139845886,-0.029983946050497628,0.8151185837908886,0.7579707834367737,-0.9525356328928475,0.8797831549982746,-1.436732791487403,-0.9482499284556927,0.894353508468649,-1.439773869464596,LB
1.3096744274793723,0.2672644392826305,-0.9201643988471828,0.03655062431308397,0.5581452693404506,-0.305447465525901,0.3671215749294565,-1.3089302614121654,-0.7008748187113869,0.3526779972695953,-1.2860568219919382,-0.7041610950492725,-0.8594241050020605,-0.8642799111576428,-1.4976814738695534,0.08419206515801302,0.4620514097964466,0.8036742658210786,-0.9524768889712083,0.880509687793629,-1.4363850255393456,-0.9628543693449622,0.8895469685224384,-1.4563751449853652,LB
1.325940485950436,0.2403497372303034,-1.048749227602584,0.03655062431308397,0.6169015157051175,0.2363934942238631,0.3674394951948733,-1.3082130675643402,-0.7012460241287165,0.3781914240227681,-1.2947222537301748,-0.7258794960307371,-0.8451951942268756,-0.8535889885548844,-1.4917631872412318,0.3125439193082555,0.35820809932137,0.895081380268844,-0.952250552096659,0.8808528213548082,-1.4358577415208773,-0.9681171218615173,0.8779885904925645,-1.448798362685889,LB
1.2260207116204827,0.27324562028301796,-0.9201643988471828,0.3306702505387365,0.3965656158909556,0.06398946449205234,0.3674429229066303,-1.3059609240535313,-0.70156984162043,0.3521496052239203,-1.2071404473521026,-0.718238560575609,-0.8167373726765064,-0.8664186211597666,-1.5272729070111615,0.19836799223313423,0.7320438265830697,0.826526081852809,-0.9529779400675409,0.881062903126959,-1.4359768835586382,-1.0096579316122187,0.8524131576591787,-1.4797112488399806,LB
1.3189692636460568,0.18353157997370298,-0.8344406476707401,-0.3912599799263665,0.30843121747994806,0.28565204193731336,0.3651909162825989,-1.3056547159289122,-0.6998164883726127,0.26639191276636726,-1.2954348754495775,-0.6226525696517873,-0.8108087003266862,-0.8557276985570091,-1.4680900407279458,0.26972797002547094,0.7943497584542366,0.8493778978845391,-0.9530841974552107,0.8810882880077605,-1.4350181121601722,-0.9825097036698532,0.8437601737322378,-1.425186695653592,LB
1.3050270093960306,0.2911879383853484,-0.8811992024959387,-0.6051650193437402,0.9106827475284526,0.6058309082046883,0.36463905468979935,-1.3044150137492905,-0.6995637527693241,0.35573139652716435,-1.28421302949363,-0.7073519872352413,-0.8428236281513312,-0.8300693091498658,-1.5118854587429815,-0.04425589486819308,0.5035885163309616,0.826526081852809,-0.953412472311428,0.8816773923104997,-1.4348393991035318,-0.9740941421366446,0.8821025454321165,-1.464011378232796,LB
1.2539053152999013,0.31511266238689845,-0.8344406476707401,-1.0062377782502332,0.9106827475284526,0.5565728444541101,0.36376241740807025,-1.3022658082888852,-0.699476874905693,0.35343692979379676,-1.2381487504089919,-0.7140857082453398,-0.8866959006756164,-0.8621420769581393,-1.4846614372181588,-0.04425589486819308,0.12975278906926202,0.5294529224777823,-0.9529701651367357,0.8825422289391863,-1.4345528142018906,-0.935780508263659,0.9137614718177398,-1.4467448948078845,LB
1.328264194992107,0.27025564223224097,-1.0058881500236265,-0.20409292594987116,0.7931702547991186,0.7289767128649635,0.36411632864693083,-1.301548997680265,-0.6996111406949402,0.38459859827087706,-1.299869621154436,-0.7306971175664163,-0.8523098924535091,-0.8471746101537543,-1.4775592023678037,0.4409918606381528,-0.01562776397502686,0.4151939919982867,-0.9522488243342573,0.8826595245953037,-1.43414708726249,-0.9544016243812218,0.884478977736214,-1.4359971274870924,LB
1.3445301582838045,0.22240741912797296,-0.9006818006715612,-0.49821258720250394,0.42594378717996767,0.6058309082046883,0.36288406627046293,-1.3016458039033927,-0.6985054224305522,0.3174894429157646,-1.318068947477198,-0.6649397119300651,-0.8463812201036891,-0.8236540549461144,-1.4467843058314442,0.4695357956661613,0.5243573416676136,0.34663869358225147,-0.9511767477643468,0.8832083632250474,-1.4331907309053296,-0.9380720452615015,0.8806914034810498,-1.40544657075905,LB
1.3329116130754493,0.2074550790764209,-0.9045776818992738,-0.20409292594987116,0.3231202838817826,0.6058309082046883,0.3616912225791953,-1.3016318539963385,-0.6973207242901337,0.30782020503536167,-1.3063819966255878,-0.6585579275581255,-0.8451951942268756,-0.8578655327565118,-1.4740083273562672,0.25545595577069485,0.44128258445979457,0.20952805184643444,-0.9508968502553621,0.8835226105425559,-1.4329242713479053,-0.9604711708672065,0.8755766632068759,-1.4334560011576218,LB
1.2632001514665856,0.26427446123185344,-0.9201643988471828,0.49109924902039304,0.13216243990060428,0.1625062372770383,0.36183861418472535,-1.3005290448606641,-0.6974470920917779,0.3478997513661139,-1.2420497667064452,-0.708259201680273,-0.8108087003266862,-0.8557276985570091,-1.457436930866054,0.19836799223313423,0.586663409573478,0.23237983794233355,-0.9510013798806314,0.8833475423990972,-1.432289115484438,-0.9771717195612942,0.8428026749605322,-1.4156922185869816,LB
1.3305879040337782,0.17156921797292796,-0.8383365288984527,0.1702414271919809,0.5140781086202897,0.9013807425967743,0.35996879742154575,-1.3002935060454066,-0.6951645736745745,0.26036757033478963,-1.305766341038966,-0.6149412468690295,-0.8274091771774152,-0.7766146961360773,-1.4680900407279458,0.14128002869557363,0.7528126519197217,0.23237983794233355,-0.9506696494996107,0.8839664082862241,-1.431703065460859,-0.9515125583020558,0.8741334891992508,-1.4175368047559558,LB
1.3886807252549203,0.21941744107719596,-1.1071970221294507,0.03655062431308397,0.7344140084344516,0.6797186491143852,0.36062520422291877,-1.3006841800907591,-0.6952435535506027,0.38722709628152646,-1.349132422223043,-0.7220160138251744,-0.8297807432529598,-0.8065487539422259,-1.476375738973052,0.21264000648791034,0.33743954605411247,0.2552316090703171,-0.9504364015754571,0.8841239696153373,-1.4313319541135097,-0.9609761737376736,0.8713614177100998,-1.428558528472053,LB
1.3700910529215522,0.3330549804892282,-0.8889925609698932,-0.12387826908763203,0.6022124300606116,0.28565204193731336,0.3612464769787873,-1.301185150379247,-0.6956937388439606,0.39185136806978693,-1.347321808315764,-0.7266928607055924,-0.830966283451691,-0.8257927649482383,-1.4976814738695534,0.041376022393684715,0.4828200990984013,0.14097272349456816,-0.9507223462528464,0.884402327963437,-1.4314857117433222,-0.9751058773394661,0.8707025962225159,-1.449884547572846,LB
1.3027033003543596,0.24633091823069092,-0.8656124855480297,0.14350288131941938,0.5728342587715995,0.21176446234857393,0.36056779005099715,-1.3003660915507915,-0.6951408797117654,0.319215130950285,-1.2810416398882025,-0.6743090473192596,-0.8404525477538689,-0.8193783865471083,-1.4740083273562672,-0.1727037988054729,0.35820809932137,0.026713867854650245,-0.9508899392057578,0.8847165752809456,-1.4313037786316072,-0.9549040330588628,0.8785539130042493,-1.428755359313254,LB
1.3422064492421335,0.26427446123185344,-0.9903014330757174,0.09002684038370215,0.4846999373312776,-0.4532227860243373,0.3610125356514051,-1.300343250494187,-0.6959780663976611,0.37620574690844916,-1.313386911681568,-0.7200451686514887,-0.8368949558015112,-0.8493124443532569,-1.4444168942146594,-0.0014399268890998075,-0.01562776397502686,0.07241736520687074,-0.9507309850648524,0.8844207101185001,-1.4306162968731764,-0.9499595015291782,0.866864809554369,-1.4054979877951195,LB
1.2980558822710173,0.30016032233534573,-0.8656124855480297,-0.043664032549155206,0.7197249227899456,0.1378772054017491,0.3609585491912399,-1.2993190820433334,-0.6961676181001275,0.3562337055259982,-1.27857584328016,-0.7089552541424093,-0.830966283451691,-0.8963526789659163,-1.5260894436164099,-0.2583357160673507,0.2751334781482482,-0.11039687865657567,-0.9520207596973063,0.8842754035594291,-1.4316459094832845,-1.0052849872355805,0.8597666789673765,-1.4829505221123251,LB
1.3422064492421335,0.3420261395403934,-0.9747163121463368,-0.043664032549155206,0.5581452693404506,0.03936043261676317,0.36230221219979464,-1.2992858168803583,-0.6975339699554092,0.4247858423434226,-1.317093920135803,-0.7639355778369302,-0.8641672371531495,-0.8322071433493693,-1.4822940256013735,0.01283208736567629,0.2751334781482482,0.0038620518229200173,-0.9516993958906932,0.8849205296680752,-1.431694210309403,-0.9443283736310829,0.8986864934165572,-1.4395103571547434,LB
1.3840333071715782,0.22539739717875068,-0.8811992024959387,0.0632886447809426,0.33780936952628865,0.4580560716691241,0.36147270595471737,-1.3003067661218917,-0.6963571698025938,0.31569055407236957,-1.3563102589561884,-0.6545302082547568,-0.8451951942268756,-0.8343449775488719,-1.5249054953943764,0.041376022393684715,0.5035885163309616,0.2552316090703171,-0.9520484038957248,0.8854842490900126,-1.4322802603329832,-0.9795531885771654,0.8846174947375457,-1.4763265617625028,LB
1.2771424057166119,0.21941744107719596,-0.8850950837236522,-0.3110452354966769,0.23498588547077504,0.21176446234857393,0.3601915986857194,-1.2993748050237084,-0.6956384529307414,0.3058665006881377,-1.2551028592697875,-0.667027869316472,-0.8345238754040487,-0.8600033669560154,-1.4964980104748018,0.01283208736567629,0.4828200990984013,0.026713867854650245,-0.9524362865547821,0.8856680706406446,-1.4325660402208544,-0.9798904336447726,0.8673608735653882,-1.4528844102709948,LB
1.4769819543765186,0.23137857817913818,-0.9396469970228053,-0.09714019607930312,0.16154060156828057,0.655089133276224,0.3599259510245891,-1.3023063549967508,-0.6945011427159413,0.3469094369747773,-1.44042123705535,-0.6613499582208503,-0.8546809728509716,-0.8022722097405984,-1.4491512326209475,0.0556480366484608,0.31667072071746044,0.1866762614098398,-0.9517218568019078,0.8862020284781942,-1.4317755167000377,-0.9280186833230423,0.892655809471077,-1.4057944391437038,LB
1.3166455546043858,0.27025564223224097,-0.8500273646186491,-0.3912599799263665,-0.05879536559523131,0.9260097744720635,0.35913500653677327,-1.3025049495526677,-0.6936165681044295,0.3312873746944572,-1.2958500235145558,-0.682411410811084,-0.8534954326522403,-0.8450367759542516,-1.5047832238926266,-0.015711875706795254,0.295902167450203,0.3923423256457119,-0.9518816748240141,0.8866213166817781,-1.4319268592885446,-0.9661775303573056,0.888429309467943,-1.4601366225302856,LB
1.33523532211712,0.2792268012834055,-0.9552337139707143,-0.3377837463422583,-0.1909969439690713,0.43342703979383496,0.35927554271879003,-1.3031216580809994,-0.6938535077325119,0.3743403883650402,-1.309027441322189,-0.7192787288617205,-0.8440096540281447,-0.8535889885548844,-1.4976814738695534,0.01283208736567629,0.08821554650004973,0.2552316090703171,-0.9521131949857673,0.8866125632746051,-1.432060491574141,-0.9718709188832657,0.8774249994433961,-1.4539834494169697,LB
1.323616776908765,0.2433409401799132,-0.8928884421976067,-0.3912599799263665,-0.20568593340022032,0.40879784659758844,0.3584271840590526,-1.303550502751148,-0.6932690566499068,0.32781496391022225,-1.299526725328693,-0.678438437206984,-0.8333378495272354,-0.8343449775488719,-1.4609878058775907,0.3125439193082555,0.5243573416676136,0.4837494400934774,-0.9516415158502549,0.8868252710689074,-1.4312949234801513,-0.9572872315366187,0.867946973627273,-1.418249412740224,LB
1.3329116130754493,0.22539739717875068,-1.013681508497581,-0.016925942027336206,-0.07348445123973735,0.43342703979383496,0.35844860725753036,-1.3038470532478068,-0.6932374646994947,0.35683109143750946,-1.3021912155946325,-0.7046147022717874,-0.8463812201036891,-0.8300693091498658,-1.4728243791342337,0.45526387489292885,0.23359623557903594,0.18698476945798004,-0.9509374526717884,0.8870108433009739,-1.4310018984683612,-0.9524481971819293,0.8818662007985942,-1.4293828078315327,LB
1.3143218455627146,0.24932212118030073,-0.9786121933740494,0.14350288131941938,-0.14692968703555329,0.1625062372770383,0.3587862368655472,-1.3041737263459612,-0.693403322439154,0.3602984538900974,-1.2872540476422785,-0.7109417409444583,-0.8428236281513312,-0.8706942895587729,-1.5343751418615164,0.45526387489292885,0.04667816789614019,0.14097272349456816,-0.9506376858951904,0.8870703664697499,-1.431955839784216,-0.9943426818881472,0.876276174063601,-1.4885156128756027,LB
1.3143218455627146,0.21642623812758546,-0.8889925609698932,-0.12387826908763203,-0.39664375813872726,-0.20693119283588277,0.35772450314896653,-1.3046103124480464,-0.6929373411705901,0.3074180212808516,-1.2899167996221275,-0.6616315075313752,-0.8214805048275954,-0.8257927649482383,-1.4349472477475196,0.16982396372358205,-0.41023218053868127,0.7351189674050433,-0.9502627614541421,0.8861521340573084,-1.4304891046977302,-0.9509401064180667,0.8562232409270594,-1.3930872007139712,LB
1.2678475695499276,0.22539739717875068,-0.9006818006715612,-0.284307162488348,-0.5582235078015794,0.18713526915232742,0.3567193266763681,-1.3043348401076507,-0.6925029518524363,0.3147810129873781,-1.2459176799905252,-0.6769681241409001,-0.8072515940524104,-0.7766146961360773,-1.4929466506359834,0.2982719050534794,-0.3271575457620897,0.23237983794233355,-0.9502809029593537,0.8853608260488741,-1.4303546673983647,-0.9789625773433812,0.8576629520096509,-1.438244212641545,LB
1.2910847551460043,0.2672644392826305,-0.8734058440219842,-0.07040210555748411,0.22148665116998942,-0.05915629177193557,0.35631742747291617,-1.3036493018181405,-0.6925503397780545,0.33563651240798,-1.2704419491973016,-0.6915695842173831,-0.830966283451691,-0.8386215217504994,-1.4834774889961255,0.49807982417571345,-0.7009934226619564,0.18698476945798004,-0.9498169987546465,0.8843891978526774,-1.4302653108700445,-0.9711635689722339,0.8669851461992759,-1.438607345458782,LB
1.3073507184377016,0.2762355983337957,-0.9474403554967598,-0.5784268237409808,-0.6904249899620623,-0.20693119283588277,0.3562291638951859,-1.304229219382813,-0.6932532606747007,0.3679180691219915,-1.2830154259550093,-0.7188329424533872,-0.8226660450263263,-0.8108252981438534,-1.4420494825978745,0.4409918606381528,-0.9709859754832766,0.27808338019830076,-0.949121574388186,0.8831348346047946,-1.4292920492237426,-0.9501056410584743,0.860807287939881,-1.3977798086464541,LB
1.3422064492421335,0.2941791413349582,-0.8344406476707401,-0.9794992323776716,-0.4994671652235553,0.2610230100620242,0.35535424046933556,-1.3054327437815036,-0.6929926270838093,0.3442666353577968,-1.3218503999226952,-0.6887697327404789,-0.8013229217025906,-0.8343449775488719,-1.4313963727359829,0.16982396372358205,-0.5556127335829701,-0.08754506262484542,-0.949074924803355,0.8817421675235795,-1.4284532248768065,-0.9659051401103919,0.8356586606168488,-1.3892558281356453,LB
1.3096744274793723,0.22539739717875068,-0.8811992024959387,-0.6051650193437402,-0.3378875117740603,0.3595392988841382,0.3540799886238504,-1.3056999381550762,-0.6922028283235317,0.31060099438401595,-1.2862014020480648,-0.6653229318249481,-0.8475667603024201,-0.8300693091498658,-1.5024162971031234,0.19836799223313423,-0.991754528750534,-0.1561003610408806,-0.9489919922080996,0.8809753690552294,-1.4290199545699374,-0.9659622123526019,0.8856347289660754,-1.4559115882695561,LB
1.3119981365210436,0.30315030038612345,-0.8266472891967855,-0.25756908948001905,-0.4994671652235553,0.4826851035444134,0.3537989162598157,-1.3063030800155586,-0.6919658886954472,0.3458518114948205,-1.2937017286398051,-0.6962855351687066,-0.8380809816783245,-0.8557276985570091,-1.4976814738695534,0.21264000648791034,-0.5971501121868797,-0.40747003803160226,-0.949108616170177,0.8803127361322378,-1.4297315867414273,-0.9768050736416397,0.8715570729744808,-1.4537496625810935,LB
1.3003795913126883,0.24633091823069092,-0.9162669216009418,0.14350288131941938,-0.6316688398107524,0.6797186491143852,0.35360353668969435,-1.3066376478413313,-0.6915157034020893,0.33637356882837927,-1.2766990233461346,-0.6910143064105103,-0.830966283451691,-0.8642799111576428,-1.4349472477475196,0.21264000648791034,-0.8048367331370329,-0.4988770028002121,-0.9487768857891575,0.8792238122799235,-1.4293540352839293,-0.9530984748507509,0.8577183588101837,-1.3983229010899325,LB
1.3375590311587913,0.2762355983337957,-0.8928884421976067,-0.12387826908763203,0.22148665116998942,0.3102812351335599,0.3535418378780769,-1.3067890273272196,-0.6914288255384582,0.3514218040782064,-1.313975283734336,-0.6970910790293803,-0.8440096540281447,-0.8343449775488719,-1.4467843058314442,0.5694397084865064,-0.8256052864042905,-0.43032170438417694,-0.9477238146056596,0.878478897329506,-1.4291294364424747,-0.9423611107367085,0.8764700978654655,-1.4064749114804294,LB
1.2585527333832436,0.2822167793341832,-0.9045776818992738,-0.17735484506047172,0.22148665116998942,0.7782349379364991,0.35351098847226825,-1.305413045286378,-0.6913735396252391,0.3547553857421601,-1.2388251704311206,-0.7151806222307223,-0.8108087003266862,-0.8343449775488719,-1.494130598858017,0.7264316783259559,-0.8048367331370329,-0.40747003803160226,-0.9474404615718715,0.8772359135109481,-1.4296840909290764,-0.9904548515702979,0.8501059838557472,-1.4460587987328395,LB
1.2724949876332696,0.234369781128748,-0.7798887343715861,0.1702414271919809,-0.6022906685217403,0.7289767128649635,0.3521947471577664,-1.3053652170336216,-0.6898887179559162,0.2793467731600818,-1.2553865777908013,-0.6424783336013771,-0.8380809816783245,-0.8493124443532569,-1.413641512851018,0.7549757068355081,-0.9086799075774123,-0.27035929152037624,-0.94598827727371,0.8762222689603214,-1.4287615451502,-0.9336402991807685,0.8650891947435478,-1.3782903418027481,LB
1.2353155477871667,0.23137857817913818,-0.8422340061446946,0.5178372694882516,-0.6757359043175563,0.6304601014009349,0.35148006925653236,-1.3045649369262002,-0.6890041433444044,0.29696124366358323,-1.217452942949809,-0.6654949897369379,-0.8855103604768852,-0.7958578313394684,-1.476375738973052,0.7977916561182927,-0.6594560440580467,-0.1561003610408806,-0.9442527399417606,0.876700204991964,-1.4288235312103865,-0.9168688425493886,0.9248194571803029,-1.431928754508136,LB
1.2539053152999013,0.2792268012834055,-0.9045776818992738,0.22371764326259916,-0.6316688398107524,0.655089133276224,0.3517311491426971,-1.3041412276613957,-0.6890594292576235,0.35243147040752104,-1.2343208177049907,-0.7138432630057204,-0.8594241050020605,-0.8236540549461144,-1.4373146593643045,0.5266237592037218,-0.2648515866839832,0.026713867854650245,-0.942977651289715,0.8768472622324696,-1.4280805035019195,-0.9237823664353323,0.8918004669878538,-1.3981100024249593,LB
1.2655238605082566,0.27324562028301796,-0.8071646910211631,0.5178372694882516,-0.1909969439690713,0.9506389676683099,0.35143550900369747,-1.3035068901296443,-0.6881511606833048,0.31543982026725637,-1.2489624014443228,-0.6770150490259895,-0.808437619929224,-0.8215162207466109,-1.4669060925059123,0.5266237592037218,0.3997454779252795,-0.04184158024054048,-0.9427642726331735,0.8767308419170694,-1.4278462444952416,-0.9756489283714067,0.8478940404907314,-1.420054632740958,LB
1.24228667491218,0.17456042092253846,-0.8656124855480297,0.6515280723671486,0.17622961986343666,-0.009897727926389557,0.3502460930241862,-1.30189736211741,-0.687148116257752,0.26653999716133314,-1.2214616574072106,-0.6366831102930365,-0.8274091771774152,-0.7979965413415923,-1.4882123122296955,0.0556480366484608,0.7528126519197217,-0.018989764208810232,-0.9430130704189387,0.8774363665352087,-1.4279589464228533,-0.9665657945505242,0.8718765278088023,-1.4380128359792341,LB
1.2748186966749406,0.23137857817913818,-0.8578191270740751,0.19697944765983955,0.8959936618839466,-0.3793352064355978,0.3495279874111964,-1.3001451924731566,-0.6870138504685046,0.30455141029420585,-1.254392429302412,-0.6659485969594526,-0.8119947262034994,-0.8044109197427233,-1.4716409157394823,-0.10134381540424355,0.9189617582312681,0.11812093739866901,-0.943565954387305,0.8779414381290874,-1.4276522361769963,-0.971349486124889,0.8548562512701671,-1.4226335184562924,LB
1.3212930678670938,0.21343626007680844,-0.9591295951984278,-0.5249507828052635,0.5875233444161057,0.18713526915232742,0.3488158802937799,-1.2995785349849691,-0.6867927068156261,0.32966938440173044,-1.2933069109643192,-0.6814494506667836,-0.83570941560278,-0.8151018423454808,-1.4858449006129104,-0.6294074323207227,-0.22778992646543839,0.11812093739866901,-0.9446630835120313,0.8777795000963878,-1.4276683364523688,-0.963241768807239,0.8760683985616036,-1.4384763926950435,LB
1.3143218455627146,0.27324562028301796,-1.0955077824277826,-0.25756908948001905,0.5728342587715995,0.08861865768829882,0.3500575688775782,-1.2988608812500984,-0.6882933244601551,0.4152386058111451,-1.2831039273903069,-0.7624339815141223,-0.7942087091540391,-0.8471746101537543,-1.5296403186279464,-0.45814363518958473,0.12975278906926202,0.1866762614098398,-0.9466741989469649,0.8771142411512441,-1.428423439367366,-1.0233760232853404,0.8353738350328604,-1.4780393917765506,LB
1.195812398899393,0.22838860012836049,-0.9708188349000949,0.14350288131941938,0.5581452693404506,0.7782349379364991,0.3499675914439697,-1.2959698013370804,-0.6881748546461117,0.33707865248168417,-1.1757452622736182,-0.7092055201962103,-0.8736530157772451,-0.8257927649482383,-1.5024162971031234,-0.3011516653501352,-0.7217619759292139,-0.36176640596814175,-0.9469065829899177,0.8771982738601046,-1.4291857874062799,-0.9453617271074685,0.9104777531549197,-1.4575264045585972,LB
1.3793858890882362,0.26427446123185344,-0.9240602800748963,0.9991239146634195,0.5140781086202897,-0.009897727926389557,0.3508913597623507,-1.2967519159061953,-0.688309120435359,0.35658288179821973,-1.351444418300914,-0.6932979841514495,-0.8866959006756164,-0.8664186211597666,-1.5118854587429815,0.2982719050534794,-0.6386873547560921,-0.4760253364476374,-0.9464055318935863,0.8774582500531408,-1.4303023415034029,-0.9496577104302171,0.9153881808521293,-1.4714082009060299,LB
1.3561487034921598,0.21642623812758546,-0.9708188349000949,0.7852188752460456,-0.1616187726800593,0.40879784659758844,0.3512624095599939,-1.297782292832166,-0.6879142210552203,0.3379166755350153,-1.3254446465140235,-0.6821220406863753,-0.8368949558015112,-0.8215162207466109,-1.4834774889961255,0.6693437147883954,-0.9709859754832766,-0.018989764208810232,-0.9456712328731001,0.8765960394466059,-1.4303490323019845,-0.9627116887394364,0.8757221060582742,-1.4371716854047936,LB
1.325940485950436,0.2074550790764209,-0.9903014330757174,0.009812603845225351,-1.0870294364435111,0.531943328615949,0.35102846823261163,-1.2991776667767696,-0.6875667096006975,0.3363828241030646,-1.2960646640578906,-0.687064795248955,-0.8108087003266862,-0.8813852121615304,-1.4598043424828389,0.5694397084865064,-0.5140754910137579,0.2552316090703171,-0.9455796614658398,0.8754432157219294,-1.429850728779188,-0.9843515805775528,0.8382212251414854,-1.4207142169067797,LB
1.3119981365210436,0.2911879383853484,-0.9435428782505187,-0.5784268237409808,-1.630525220436805,0.5812018763293992,0.35121613545128083,-1.3011222991496634,-0.6879616089808362,0.3772221443466257,-1.2881052032053193,-0.726364386509978,-0.8416380879526002,-0.8129631323433559,-1.4349472477475196,0.5266237592037218,-0.8879112182754575,1.0550439428118001,-0.9444635269546997,0.874731563718769,-1.4281771051541576,-0.9331050307273099,0.8772535846542479,-1.3932784078168527,LB
1.2562290243415726,0.30016032233534573,-1.079922661498402,-1.220142467397805,-1.1898536132351951,0.3102812351335599,0.3519213871451839,-1.3013456509582086,-0.6896596763154347,0.4254210907422829,-1.2305981646759423,-0.7819156296397348,-0.8191089387520509,-0.8343449775488719,-1.4467843058314442,0.5979837369960587,-0.7217619759292139,0.8036742658210786,-0.9438242548662757,0.8737109164424038,-1.4269591193221856,-0.9606778415624828,0.8535143678197658,-1.4044270673407457,LB
1.2934084641876753,0.234369781128748,-0.9513362367244733,-0.8992846455693928,-0.7785597924691693,0.2363934942238631,0.3510953086118636,-1.3018468511902201,-0.6896359823526278,0.33963142551763487,-1.2682642546143268,-0.6956833324767467,-0.8250376111018708,-0.8407602317526243,-1.4550695192492689,0.45526387489292885,-0.991754528750534,0.18698476945798004,-0.9434182307020068,0.8725572173770101,-1.4264253951935684,-0.9619818558238964,0.8585356091180406,-1.413028976796846,LB
1.3027033003543596,0.24633091823069092,-0.9006818006715612,-0.17735484506047172,-0.35257659741856634,0.08861865768829882,0.35063342445267254,-1.3020232178722597,-0.6895254105261873,0.33121164971975847,-1.2795501148449944,-0.6856805111388661,-0.857052538926516,-0.7873056187388348,-1.4006214761996232,0.38390389710059214,-0.8671426650082,0.20952805184643444,-0.9418900248581943,0.8722823603917795,-1.4248435431381652,-0.8983947306920649,0.8930696290125556,-1.3610415329839862,LB
1.2748186966749406,0.3181026404376755,-0.9435428782505187,0.38414646660935475,-0.05879536559523131,0.1378772054017491,0.3518853961717406,-1.3013982313771046,-0.6906311287905776,0.39371167828154957,-1.2538898378893217,-0.7483486951736044,-0.8368949558015112,-0.7787525303355799,-1.4124580494562664,0.06992005090323691,-0.7840680438350782,-0.13324869468830589,-0.9411324010452925,0.8716976327926269,-1.423736649206267,-0.9170132526168002,0.8772596447730562,-1.3688207698629835,LB
1.2701712785915988,0.234369781128748,-0.8811992024959387,-0.15061634209596092,0.17622961986343666,-0.1330435487187604,0.35108331162071565,-1.3003893924944423,-0.6904494750757143,0.31439060867337687,-1.249169333066735,-0.676006163996602,-0.8214805048275954,-0.8364836875509968,-1.4787431505898372,-0.22979168755779847,-0.5140754910137579,0.0038620518229200173,-0.9419660464038454,0.87104637929896,-1.4238107104729838,-0.9753860501648619,0.8582040340461031,-1.4333796789947066,LB
1.2678475695499276,0.2582932802314659,-0.8617166043203162,0.3574084461414961,0.11747337349876966,-0.33007698136406216,0.350860510356542,-1.299460114070692,-0.6906074348277685,0.3240590051651717,-1.2485284345429746,-0.6850548460043615,-0.8250376111018708,-0.8300693091498658,-1.476375738973052,-0.2868797445769029,-0.22331430738540264,-0.22465580913607136,-0.942766864276776,0.8707531401586663,-1.4240224290941392,-0.970061037020442,0.8624945981623531,-1.4308281085797847,LB
1.3189692636460568,0.2672644392826305,-0.8383365288984527,0.14350288131941938,0.058717127134102653,-0.2808184336506119,0.3505151683970729,-1.299631115403865,-0.6905442509269464,0.32534717112365624,-1.2984695450751131,-0.676389383891485,-0.8404525477538689,-0.8257927649482383,-1.4953140622527683,-0.21551976678456616,-0.16100834422625523,-0.08754506262484542,-0.9433897226223887,0.870862557748328,-1.4244764568596595,-0.9668451026449784,0.8792551553234914,-1.448520389334642,LB
1.2539053152999013,0.22240741912797296,-0.7409235380203419,-0.09714019607930312,-0.11755161195989834,0.08861865768829882,0.3485956498134239,-1.2987924347281248,-0.6891700010840639,0.2562228900529534,-1.2386784742006234,-0.6241619867887789,-0.8807672283257962,-0.8600033669560154,-1.4491512326209475,-0.20124784601133386,-0.2648515866839832,0.32378693742218345,-0.9430960030141942,0.8714026429708988,-1.4239145572491398,-0.9225795256942009,0.9054842152569111,-1.4145329251018637,LB
1.3050270093960306,0.20147389807603341,-1.0448533463748706,-0.15061634209596092,0.014649966413941671,-0.1330435487187604,0.34857079890318915,-1.2985345147433078,-0.6895727984518056,0.34926869063094285,-1.2741181219678464,-0.7034181177020491,-0.8404525477538689,-0.8963526789659163,-1.457436930866054,-0.0727999140295909,-0.36869493796946895,0.5751565545412428,-0.9434787023860477,0.8709632219308171,-1.4233285072255608,-0.9648665982483504,0.8624435200181119,-1.4226769015804757,LB
1.2957321732293465,0.24932212118030073,-0.768199494669919,-0.17735484506047172,-0.29382035105389925,-0.08378537204351194,0.34726055608426065,-1.2987351787909307,-0.688759305728719,0.2870370650350282,-1.2786629843176478,-0.6450983063521121,-0.8511238665766958,-0.8514511543553818,-1.457436930866054,-0.3011516653501352,-0.9086799075774123,0.07241736520687074,-0.9437966106678585,0.8703916244424238,-1.4230668777507478,-0.9464409113238118,0.8807355557752241,-1.4184783792289684,LB
1.323616776908765,0.26427446123185344,-0.9006818006715612,-0.25756908948001905,-0.35257659741856634,0.1378772054017491,0.34709602591994804,-1.299432827439312,-0.688798795666732,0.3448901043161486,-1.2999725579220494,-0.6940878863837624,-0.8131802664022307,-0.8514511543553818,-1.4834774889961255,-0.08707186284728635,-0.5348440442810154,0.30093516629419986,-0.944635439313614,0.8695259124730198,-1.4230338721862328,-0.9874101339214657,0.8481277879304784,-1.4386266268473071,LB
1.3143218455627146,0.24633091823069092,-0.9903014330757174,-0.3912599799263665,-0.1322406013910473,-0.25618936951113125,0.3471902879932517,-1.2995881926129296,-0.6894859205881744,0.3621604468790749,-1.2866436069139282,-0.712779632277062,-0.8238520709031398,-0.8364836875509968,-1.4550695192492689,-0.18697573827501396,-0.6594560440580467,0.11812093739866901,-0.9450829297755102,0.8687643660489737,-1.4226209001229142,-0.9618486872587395,0.8582490520715357,-1.412444108011562,LB
1.4769819543765186,0.2762355983337957,-0.8188539307228311,-0.5516888032731222,0.19091870550794265,0.2610230100620242,0.34665642188717466,-1.3026755676466357,-0.6885223661006344,0.33704667971458924,-1.450012570658514,-0.6496030953205402,-0.9068534838006213,-0.7723381519344498,-1.5012323488810904,-0.5295036129819215,-0.991754528750534,0.07241736520687074,-0.9448902842677828,0.8695871863232303,-1.4230717078333601,-0.9070005330326417,0.9513948096170519,-1.4533166347304498,LB
1.3840333071715782,0.20147389807603341,-0.9201643988471828,-0.6051650193437402,0.5581452693404506,-0.05915629177193557,0.34557669268387203,-1.3032837682646212,-0.6878589351420011,0.312601816493274,-1.3533221451668127,-0.6524029467974444,-0.8582385648033293,-0.8322071433493693,-1.4929466506359834,-0.7578553736506201,-1.6355830809029483,-0.5217288188319423,-0.9460090104225243,0.8685385281439115,-1.4239242174143631,-0.9539000804345247,0.8942020054984426,-1.4485372605496016,LB
1.325940485950436,0.25231209923107845,-0.9357511157950918,-0.7655938426904959,0.7784811691546125,0.014731352345186799,0.3451859335436287,-1.302612869712734,-0.6880721808072766,0.3486713047194316,-1.3001453284439026,-0.6975368654377135,-0.8558669987277848,-0.8514511543553818,-1.510701510520948,-0.45814363518958473,-1.9263436428527372,-0.27035929152037624,-0.9469013997027151,0.8673454387462395,-1.424857228372232,-0.9687397281401762,0.889902784069609,-1.4663074702497514,LB
1.363119925796539,0.2792268012834055,-0.9941989103219584,-0.9794992323776716,0.4993889267624266,0.1378772054017491,0.3454455827091851,-1.3029123328273486,-0.6887908976791289,0.38915051063887035,-1.3333509762743532,-0.7274749421237214,-0.8380809816783245,-0.992571858193358,-1.4598043424828389,-0.2440637952941184,-1.8640383911550564,-0.5445807845428281,-0.9479441043118054,0.865170217063763,-1.4253893424733126,-0.9900570753367104,0.8425568072831685,-1.4352941601970877,LB
1.284113628020991,0.24633091823069092,-0.8811992024959387,-1.1131902103914695,0.2790530654336075,0.18713526915232742,0.34426559293700415,-1.3020323389653337,-0.6885381620758405,0.3234346948182125,-1.262777694669472,-0.681793566490761,-0.8333378495272354,-0.9006292231675438,-1.40890717444473,-0.2440637952941184,-1.8432699739224963,-0.018989764208810232,-0.94810219457151,0.8632234593085003,-1.424382270248727,-0.9468162045528924,0.8506903524551155,-1.379703506903456,LB
1.3515012854088175,0.2762355983337957,-0.8773017252496977,-1.6479534219070575,0.044028041489596666,0.334910267008849,0.3432055730763017,-1.3027663186903276,-0.6883565083609773,0.34707014219886007,-1.3279136929612783,-0.6899897797527619,-0.8380809816783245,-0.8343449775488719,-1.465722629111161,0.0556480366484608,-1.9886502548973903,0.18698476945798004,-0.9480365396002666,0.8616233364772866,-1.4240972953746236,-0.9561215742260178,0.8727526478422253,-1.4228560578155283,LB
1.2701712785915988,0.312121459437288,-1.2318859696571383,-1.3003570542060836,-0.05879536559523131,0.38416849208038467,0.3451867904715681,-1.301786146100183,-0.6910339261583194,0.48304443093348426,-1.2381850276839217,-0.8337285235908316,-0.8404525477538689,-0.8343449775488719,-1.4384986075863377,0.041376022393684715,-1.3240530134430215,0.14097272349456816,-0.9476858038328345,0.8606779685026084,-1.423371977969067,-0.9408452373943627,0.8724262671578374,-1.3988113629325876,LB
1.4374788054887446,0.21642623812758546,-0.9006818006715612,-1.139927880589526,-0.1909969439690713,0.06398946449205234,0.3439750943656397,-1.30433238737674,-0.6901256575839986,0.3203123016948072,-1.4050373655983317,-0.6465842610465591,-0.8214805048275954,-0.8493124443532569,-1.4456003576094107,0.24118394151591874,-0.22778992646543839,0.11812093739866901,-0.9475208025235257,0.8603908567473358,-1.422805248275936,-0.9618703055323035,0.8527776305189328,-1.4052874993037114,LB
1.323616776908765,0.23137857817913818,-0.8305447664430265,-0.5249507828052635,0.014649966413941671,0.18713526915232742,0.34273254885390203,-1.3045263064143586,-0.6892173890096799,0.29816106381825214,-1.3018557263791875,-0.6506119803499277,-0.8333378495272354,-0.7851669087367099,-1.4432329459926259,-0.029983946050497628,-1.4071277706508407,0.16382447965463617,-0.9471959831921105,0.859456868201983,-1.4220461202920953,-0.9367239297220169,0.8756718936452915,-1.3967506645338859,LB
1.3003795913126883,0.23137857817913818,-0.8734058440219842,-0.17735484506047172,-0.11755161195989834,-0.3547061745603086,0.3420358664393899,-1.3043865774002956,-0.6890673272452266,0.3114541624322868,-1.2779669896825883,-0.6677708466636955,-0.8677243434274249,-0.8600033669560154,-1.4373146593643045,-0.029983946050497628,-1.1371352178295204,-0.13324869468830589,-0.9466698795409619,0.8591364934994533,-1.4216629337382172,-0.926366182491768,0.8924558255504046,-1.4029705191158544,LB
1.284113628020991,0.21343626007680844,-0.9123710403732284,0.2771936841983163,0.14685151592377457,-0.5517392361674086,0.34168109827259047,-1.303583384674918,-0.6891305111460486,0.31152736324116204,-1.260384377033633,-0.6712589297885545,-0.8119947262034994,-0.8322071433493693,-1.4408660192031226,-0.18697573827501396,-0.9086799075774123,0.07241736520687074,-0.9470871341608382,0.8581149708823705,-1.4210309979298241,-0.9624098976404752,0.8467988904489524,-1.3983220976987436,LB
1.2934084641876753,0.27324562028301796,-0.9045776818992738,0.1702414271919809,0.29374214145677774,-0.5517392361674086,0.34205129114229427,-1.3028507846110613,-0.68987292198071,0.350537504651448,-1.2715561905812398,-0.7050995927510283,-0.8250376111018708,-0.8086874639443508,-1.4195597994793399,-0.11561588200868418,-0.6179188014888345,-0.17895217707261085,-0.9468815304351018,0.8576825525680274,-1.420197003665499,-0.9364610515154709,0.8612972918320919,-1.3776789611082405,LB
1.3027033003543596,0.22838860012836049,-0.8889925609698932,0.22371764326259916,0.058717127134102653,-0.305447465525901,0.34172651545336474,-1.302567187599524,-0.6897307582038598,0.31488871072917174,-1.279396389892479,-0.670648906282413,-0.8202949646288641,-0.8535889885548844,-1.4976814738695534,-0.18697573827501396,-0.4517694231078936,0.04956559407888717,-0.9478387108053353,0.8572991533338524,-1.4206904771056834,-0.9896048210537389,0.855554896395634,-1.4521155649035262,LB
