xa_S1,ya_S1,za_S1,xgb_S1,ybg_S1,zbg_S1,tilt_x_S1,tilt_y_S1,tilt_z_S1,tilt_accx_S1,tilt_accy_S1,tilt_accz_S1,xa_S2,ya_S2,za_S2,xgb_S2,ybg_S2,zbg_S2,tilt_x_S2,tilt_y_S2,tilt_z_S2,tilt_accx_S2,tilt_accy_S2,tilt_accz_S2,Posture
1.2365257305071415,-1.3812889323335955,-0.3182225328857858,0.21455839885462838,0.03930096344904031,-1.5842093233220191,-1.3068344877237161,-1.0807805165244253,-0.41210633133767094,-1.311905357692808,13.91299,-69.37091,0.4174196324330826,-1.315342112964036,-0.12681860763910538,3.0577419204169116,2.438098389436031,-1.42071778537605,-1.264177423117352,-0.42021130046515454,0.1347422453993401,-1.2912040655816694,16.08541,-139.0013,LR
1.2866548730591978,-1.3901960253595487,-0.39953307736481564,-0.660148562236739,0.5256140486823004,-1.7029581778899987,-1.3097969875219178,-1.0826896749178738,-0.4131199802419488,-1.409545873179409,13.63153,-70.39631,0.4304216353407103,-1.293772852182159,0.1521593041758046,2.868559731724229,2.324967849720264,-1.3505317841325004,-1.2649460443546046,-0.4190670461802543,0.13481923904752874,-1.4269673123218236,16.36451,-137.8683,LR
1.2329449203273306,-1.3924223425903852,-0.38679782141118696,0.08518920094561855,1.2550839950673776,-2.0888918580101454,-1.311169577933342,-1.0830237196428514,-0.41406416418472164,-1.378162190849772,14.00382,-70.27116,0.44775793509418393,-1.306714055259612,0.054939833777429996,3.0847676944860725,2.6805218818962953,-1.2803459361278071,-1.2626757396324697,-0.41674693193967643,0.13332748711386974,-1.3912258436518976,15.97308,-138.3381,LR
1.2078807157121847,-1.439183212899686,-0.4014924401104697,0.08518920094561855,-0.25772704634674737,-2.3857649666879697,-1.3128225192307181,-1.0845512783331137,-0.4163106475514197,-1.3934682898570776,14.13777,-70.56633,0.41958633704105086,-1.414560359168995,-0.012690650492075118,2.9496370539317107,2.4219370349881917,-1.3271369611808381,-1.2630833003596964,-0.4157768313509,0.13305800934520806,-1.422758418811997,16.11111,-138.0356,LR
1.2347356920781185,-1.4057829821293153,-0.37700140894499834,0.08518920094561855,1.960238239410514,-2.5342015210268816,-1.3140248294060446,-1.0840826878161314,-0.4173600405621014,-1.3726915805916553,13.9615,-70.17062,0.45642652878587514,-1.3843630406826941,0.033805091022890275,2.787480639308189,2.1471908336322483,-0.718860071523399,-1.2642198203742108,-0.4156794342838087,0.13324086925965714,-1.4396689365831132,15.73687,-138.1114,LR
1.2132515643210187,-1.450316623156476,-0.3456528088007788,-1.3424201477257935,1.6927658354843493,-2.3857649666879697,-1.316270458818019,-1.0839145055761252,-0.41782403952826486,-1.345773893629333,14.01986,-69.87291,0.44775793509418393,-1.293772852182159,0.033805091022890275,1.8145417975253448,1.9209297542007133,-0.9996030038256032,-1.2648174849305802,-0.41537821289088406,0.13238431492355524,-1.3705494033572052,15.95677,-138.4966,LR
1.2329449203273306,-1.3946495718725254,-0.40737012708535,-1.464878856437653,1.2307686115606238,-1.495147585170247,-1.3197851934150584,-1.0840942865913041,-0.41881138616556474,-1.3980775341324008,14.02428,-70.53994,0.4304216353407103,-1.319655258337064,0.054939833777429996,1.1118633517469445,1.6300211398160405,-0.8826267437233041,-1.266681596578935,-0.4150499009230069,0.1322110792151301,-1.3940081296954354,16.18477,-138.2045,LR
1.2669615170528858,-1.4659035799262434,-0.37994025243243856,-1.0450195426145825,1.2064527502510891,-1.5248347015864543,-1.3227834426550924,-1.0851602140296877,-0.41947636142811706,-1.4011531724513997,13.65198,-70.3051,0.42608733849486474,-1.3325982283728839,-0.08454912213002402,0.9226809860334061,1.2583057531921695,-0.6720696594257931,-1.2674543207765294,-0.4153491872748634,0.13119091337662966,-1.3286786080497586,16.01672,-138.7675,LR
1.223993261538686,-1.4347296663867093,-0.3818996151780926,-0.8001016668444292,1.1578215054348004,-0.931089456488681,-1.324932172264204,-1.0855383341003222,-0.4197778258727033,-1.3800852840330973,14.00541,-70.29676,0.4304216353407103,-1.3671086922322129,-0.021144893866402954,1.4632028401674284,1.5168906001002733,-0.6954652485717367,-1.2687508562443501,-0.41534209212428064,0.1309599324320637,-1.3883016998302855,16.01448,-138.3372,LR
1.2383165022579294,-1.3746090685897812,-0.39071614564041324,-0.8875723858708877,1.328031101193201,-1.22796198181178,-1.3272069656945156,-1.085653161974533,-0.4202438480901714,-1.3796967330734677,13.99366,-70.28314,0.38924714675004046,-1.362793779900818,-0.03382539324661579,0.7875505224999003,1.2098216898486507,0.030582904374458573,-1.27026758391715,-0.4149421836368861,0.13158550582359688,-1.3628449200706978,16.53251,-138.2409,LR
1.19892905692354,-1.4169163923861052,-0.4014924401104697,-0.940054886038728,0.7687709098341176,-0.8123406019207013,-1.3296050006216722,-1.0858085855618491,-0.4208198002952628,-1.384949193033768,14.23297,-70.52927,0.38924714675004046,-1.177298490568352,-0.01691863786051891,0.32810705269849477,0.7734599327106206,-0.2977460561672336,-1.2697041106969575,-0.4146596676409524,0.13043060110076427,-1.2359999774162291,16.78357,-139.0161,LR
1.2329449203273306,-1.261047736739739,-0.38777730215297296,-0.3277598528535186,0.20951055920744074,-0.04047149161623337,-1.3304422901803887,-1.0867016912501573,-0.42030184796094194,-1.3480611948206005,14.18588,-70.02367,0.39574903583376336,-1.3671086922322129,0.021124591642677437,-0.8340148628813111,0.22396752999873404,-0.46151272836713864,-1.2737455266330464,-0.4151634233323319,0.13108504711036922,-1.3971330156558308,16.52717,-137.9957,LR
1.263380706873075,-1.3412088378194105,-0.388757184156841,-0.2752774672722869,0.574245612033776,0.6126481807655297,-1.3318590970067121,-1.0879230422758568,-0.4196732912218957,-1.379286647964268,13.85454,-70.17587,0.400083332679609,-1.2894597068091298,-0.03382539324661579,-0.9691453264148167,0.27245212263269786,-0.555093399323494,-1.2760787434137462,-0.4156858844207022,0.13046909792485997,-1.3138384108699632,16.48072,-138.6233,LR
1.2956072651696078,-1.4191427096169429,-0.40345180285612375,-0.590172009932894,0.7201395057502356,0.10796477104531621,-1.3344575169630892,-1.0897800061810274,-0.41974680268601194,-1.423232229632113,13.53246,-70.49755,0.4542598241779069,-1.492211111550444,-0.12681860763910538,-0.6718579171952216,0.6603291812786753,-0.017002817387317008,-1.2805031023150133,-0.4172165019055205,0.13086369037182718,-1.4311601464605463,15.41198,-138.3424,LR
1.2705423272326968,-1.450316623156476,-0.40443128359790975,-0.8001016668444292,0.4283515590497233,-0.5748423094300169,-1.33728830829138,-1.0915151829468834,-0.4202890340360041,-1.422086238368047,13.67382,-70.58591,0.41525204019520523,-1.315342112964036,-0.14372709438776105,0.3010809245876225,0.3855829799227321,0.053182724139663635,-1.280698676757945,-0.41810984586526473,0.1299301423875366,-1.2817517874068214,16.08801,-139.0681,LR
1.157750839838363,-1.425822573360756,-0.3848384586655329,-0.43272462401598183,-0.27680265343989424,-0.6639040475817892,-1.338249780121726,-1.0920568457474549,-0.4205324986098198,-1.3560522368457637,14.49761,-70.36031,0.4174196324330826,-1.405932301464571,-0.17331608051662858,1.0848374006569281,0.3047752549607331,-0.32114133883546475,-1.2810187076645587,-0.4192644203691943,0.12917945431769515,-1.332483340720167,15.91305,-138.7953,LR
1.2060899439613968,-1.3412088378194105,-0.39659423387737536,-0.2577834151362822,-1.3223762804209436,-0.04047149161623337,-1.3392103111772875,-1.0942130580520846,-0.4204198709537887,-1.3653540531925688,14.2805,-70.3145,0.38924714675004046,-1.3325982283728839,0.016896604274234606,0.40918543703111165,-0.2608787139151711,-0.7656512498152863,-1.2828130689871131,-0.41995587504417325,0.1292949447899795,-1.3673923986546048,16.64705,-138.145,LR
1.2401065406869523,-1.3812889323335955,-0.3818996151780926,0.337017336739705,-1.6627954719377442,0.6423354916333123,-1.3395988511635237,-1.097430558285029,-0.41978187237531456,-1.3735763532587648,13.96146,-70.18179,0.40225003728757724,-1.328283316041488,-0.09722962151023685,-0.6178058379943328,-0.3255247668550635,-1.0229985929715468,-1.2845157975287143,-0.42110270938383076,0.12808229483100608,-1.3101327109880212,16.30997,-138.7433,LR
1.2544290480844305,-1.4302761198737326,-0.38287909591987884,-0.04785375822474707,-1.2494291742951202,1.2063934258633033,-1.3407861089422883,-1.1004613182376906,-0.41903933914603375,-1.391158518248867,13.79297,-70.28115,0.4217539292789282,-1.3973060107185138,0.012670348268349601,-0.2934930087472887,0.046190609182998506,0.030582904374458573,-1.288181108766859,-0.4221334412594058,0.12921795114179085,-1.4245490386899458,16.14124,-138.0064,LR
1.2777032142705533,-1.3612493411021547,-0.3593675454961937,-0.7301249999539754,-1.0305881744528378,0.6720228025010947,-1.3421144829388147,-1.1034514824772472,-0.41795420202894723,-1.3611080806578162,13.6897,-69.82842,0.4542598241779069,-1.306714055259612,-0.11836609562733537,0.5713418516546337,0.3209367152666617,-1.5142976901381238,-1.2883260800322478,-0.42355505143072464,0.12668678495758082,-1.302698560448409,15.63225,-139.159,LR
1.3063489623872753,-1.3412088378194105,-0.3672049964788099,-0.8875723858708877,-0.544274929951984,0.7907718515206493,-1.3439367636975046,-1.1063186996999719,-0.4168704137460632,-1.3742279953500955,13.51667,-69.87036,0.44775793509418393,-1.2808316491047058,0.1563872915442474,0.5172894184120331,1.0643674885144034,-1.6780655882488793,-1.291061386926386,-0.42360536249849357,0.12632106512868538,-1.426601961629237,16.15744,-137.9828,LR
1.2436873508667632,-1.4235962561299194,-0.3956143518735075,-0.9750429903107374,-0.2281713608433276,0.4345247044619853,-1.3462990491828277,-1.1079146911637539,-0.41675508842162523,-1.3976946007770057,13.8939,-70.4381,0.4434245258782474,-1.2808316491047058,0.03803307839133311,0.5443159005646172,0.6441675092565688,-1.2335555240302012,-1.2924208344527728,-0.4242226405991978,0.1254163897624666,-1.361665894575576,16.03529,-138.519,LR
1.2454773892957858,-1.3701555220768045,-0.37112332070803616,0.08518920094561855,0.13656361234921105,-0.30765690052312517,-1.3466320834567445,-1.109044411865588,-0.41643811238369427,-1.362723141875556,13.92518,-70.018,0.4217539292789282,-1.319655258337064,0.033805091022890275,0.7334984432990116,0.514875297518695,-1.3271369611808381,-1.2938664441463237,-0.42461158385387343,0.12485818581309814,-1.3794891199376937,16.26601,-138.2658,LR
1.1971382851727521,-1.3924223425903852,-0.37700140894499834,-1.010031438342573,-0.6172218768102138,0.018902955112913938,-1.348137323112865,-1.1101729726899046,-0.4161804850507373,-1.3556693034903688,14.25127,-70.16901,0.36540984554275296,-1.298085997555188,-0.021144893866402954,0.1659505141603736,0.24012909616275166,-1.0697888518302965,-1.294574888631906,-0.4243709937477475,0.12432885448179871,-1.3132616117911926,16.93838,-138.3735,LR
1.220412451358875,-1.3768353858206188,-0.41716653955153843,-0.6776426143727438,-0.6658532808940958,-0.010784297419395971,-1.3500715560709795,-1.1115648257106447,-0.41657906555800794,-1.3984379970708527,14.15086,-70.63988,0.4087510387413914,-1.233378215209558,0.03803307839133311,0.1659505141603736,0.09467522298858011,-0.8124415086740359,-1.2952792301571465,-0.42477283727621,0.1236936568842416,-1.313474398458303,16.5469,-138.5896,LR
1.2956072651696078,-1.4102356165909895,-0.4014924401104697,-0.5726777286236718,-0.544274929951984,0.10796477104531621,-1.352208055607884,-1.1141896285322572,-0.4166566235247354,-1.419316759479889,13.54207,-70.45503,0.413085335587237,-1.3671086922322129,0.012670348268349601,-0.34754491092732154,0.07851366741037141,-0.7890459195280923,-1.2983345679578984,-0.42551008792313266,0.12391501362278365,-1.399436197128139,16.28975,-138.1084,LR
1.2812840244503643,-1.3612493411021547,-0.38777730215297296,-0.7651133333992022,-0.6658532808940958,0.13765200413246861,-1.3540566780605563,-1.1165847756054474,-0.4163652753366802,-1.3896155496188194,13.69603,-70.19135,0.44775793509418393,-1.24631941828701,0.10566356266083918,0.05784604508699409,0.514875297518695,-0.5784889884694376,-1.300314930149254,-0.4260854401340294,0.12388614100471187,-1.3739044736367387,16.12203,-138.3839,LR
1.2920264549897968,-1.450316623156476,-0.38777730215297296,-0.835090000289656,-0.34974971178543934,0.25640107259718076,-1.3563032482473159,-1.1190123992491217,-0.4162479267609357,-1.414112049155592,13.50024,-70.35928,0.40441674189554555,-1.3110289675910067,-0.1056838648845647,0.32810705269849477,0.8542676576726197,-1.2101607010785391,-1.3003176654561481,-0.42610221048995245,0.12229814701081908,-1.2941108117512536,16.28955,-138.87,LR
1.2418965791159748,-1.5015301279274507,-0.3956143518735075,-0.695136895681966,-0.10659299397445642,0.0782774990678488,-1.358425636162445,-1.1204367288403456,-0.41652983310956304,-1.414903195085441,13.8023,-70.58921,0.400083332679609,-1.315342112964036,0.0845288199062985,0.6524198819455388,0.48255216519065974,-0.1339790774896161,-1.3020080851167255,-0.4260106185460653,0.12350117276376858,-1.3946317686065894,16.63198,-137.9562,LR
1.2132515643210187,-1.367929204845968,-0.37994025243243856,-0.415230571879977,0.23382626124938177,-0.07015880248401579,-1.3590380805475293,-1.1206107104679381,-0.4162877173699518,-1.3586550601415988,14.172,-70.14793,0.3827461452962266,-1.250634330618406,-0.05496013600115647,0.1659505141603736,0.49871373135467734,-0.22756020816254038,-1.3016265098049935,-0.42579324893275566,0.12291409619632836,-1.2679661555961006,16.71913,-138.8222,LR
1.2401065406869523,-1.4191427096169429,-0.3681844772205961,-0.7476192812631975,0.5256140486823004,0.10796477104531621,-1.360256383894202,-1.1211129374329218,-0.41586822993251976,-1.3694474141455877,13.8946,-70.08068,0.4065843341334229,-1.207495809054652,0.05071357777154595,-0.40159734416992204,0.3855829799227321,-0.08718872668755276,-1.3025195875059294,-0.4258203395077081,0.12283710254813969,-1.3001518118477098,16.62681,-138.6416,LR
1.2705423272326968,-1.3835161616157345,-0.3838589779237467,-0.6776426143727438,1.0848743993089773,-0.010784297419395971,-1.3616590790987488,-1.1214609006881069,-0.4156618582993143,-1.3871306960119312,13.73993,-70.19173,0.41525204019520523,-1.315342112964036,0.1267983054153789,0.11189848806574165,0.676490641584604,0.006392358013714666,-1.3053615713689388,-0.4257319726322678,0.12440584812998738,-1.4231304609092092,16.4986,-137.823,LR
1.2741231374125077,-1.4035557528471752,-0.3838589779237467,-0.5376896243516623,-0.25772704634674737,-0.5451549985622346,-1.3630467219067337,-1.1232645102274825,-0.41578797429738446,-1.393095655442782,13.68721,-70.22887,0.4542598241779069,-1.276516736773311,0.025350847648562443,0.8956548579225336,0.9350753826346186,-0.3445364682648395,-1.3058812796788248,-0.4262131528445199,0.12404012830109193,-1.3558938889450902,15.87914,-138.6439,LR
1.1810257393462509,-1.4414095301305225,-0.4220647457846327,-0.5376896243516623,1.0362431544926887,-1.0795258163760182,-1.3646046449508178,-1.1221069524652338,-0.41702485526241695,-1.4029283353898547,14.35159,-70.85152,0.4542598241779069,-1.211808954427681,-0.008464394486191075,0.8416024246799332,0.6603291812786753,-0.08718872668755276,-1.3051140260950196,-0.42689880239629474,0.12303921087463664,-1.2904559665444701,15.90395,-139.1038,LR
1.223993261538686,-1.3167147880236905,-0.41324821532231215,-0.17031258152321505,0.30677320810761144,-0.8717148347531161,-1.3652678911742964,-1.122095353690061,-0.4176156446437527,-1.3820598719219161,14.20375,-70.47018,0.42392063388689644,-1.380049895309666,-0.1352728510134332,0.22000254025500554,0.3855829799227321,0.28713524434426185,-1.3060098391028494,-0.4278218169857491,0.1230295866686127,-1.3358678531800563,15.91507,-138.7698,LR
1.1971382851727521,-1.3901960253595487,-0.37700140894499834,0.1095935016468956,0.3554046121914936,-0.7529657857335614,-1.3650411644510934,-1.121959648020539,-0.4176911793591746,-1.3551459300290842,14.25435,-70.16466,0.38708044214207216,-1.1945546059771999,-0.08877710949846782,0.40918543703111165,0.3047752549607331,0.3105303737736366,-1.3041115361183175,-0.42779601643817533,0.12212491130239392,-1.2111614834440938,16.67724,-139.2537,LR
1.2311548818983076,-1.3835161616157345,-0.3525103777795272,-0.48520723877043076,0.30677320810761144,-0.5451549985622346,-1.3652914105439227,-1.1224491163328325,-0.4172204362219921,-1.3430109686127827,13.98912,-69.81574,0.42608733849486474,-1.328283316041488,-0.03382539324661579,0.6524198819455388,0.22396752999873404,0.099973074941727,-1.3048514366331816,-0.428591318317139,0.1223943890710556,-1.3519325774064304,16.09744,-138.5561,LR
1.2436873508667632,-1.4080092993601518,-0.3848384586655329,-0.3277598528535186,0.20951055920744074,-0.7529657857335614,-1.3661682126436128,-1.1232331935345161,-0.4174767147207447,-1.3839061911806891,13.90273,-70.2696,0.38708044214207216,-1.2808316491047058,-1.0151111863238729e-05,0.679446010056411,0.595682916622605,0.006392358013714666,-1.3049417017606886,-0.4282765516367381,0.12276973310597496,-1.3200587406103992,16.71221,-138.4507,LR
1.2042999055323738,-1.3590221118200145,-0.40443128359790975,-0.2053009149684419,0.4526672610916643,-0.1295334242195807,-1.3667025727215352,-1.122922346359884,-0.4176459934133419,-1.3762250536558573,14.27784,-70.45154,0.4304216353407103,-1.2808316491047058,-0.16908809314818576,0.5443159005646172,0.3694213079006255,0.006392358013714666,-1.3036902988566208,-0.4291937611029881,0.12129722958436379,-1.2492824155990654,15.89453,-139.4058,LR
1.2383165022579294,-1.2766346935095065,-0.41324821532231215,-0.2577834151362822,0.23382626124938177,-0.4264059495426798,-1.367347944224097,-1.123085889089821,-0.41787866731352535,-1.3780451574281969,14.15487,-70.38211,0.44125693364037005,-1.319655258337064,0.1267983054153789,0.24702902240758967,0.41790600639267833,-0.6018841178988125,-1.3066444303022895,-0.4297387976704858,0.12220190495058257,-1.4365855373313996,16.15111,-137.9138,LR
1.182815777775274,-1.396875889103362,-0.3956143518735075,-0.6426545101007343,0.8660333994666948,-0.4857805712782447,-1.3682012269541595,-1.1221510278108906,-0.4181740620041928,-1.3687264882686836,14.37026,-70.42568,0.41525204019520523,-1.285144794477735,0.07607457653197067,0.760524394389028,0.7411368003825853,-0.3445364682648395,-1.3076633321203557,-0.4295678690428089,0.12273123628187926,-1.374069082190541,16.45756,-138.2008,LR
1.182815777775274,-1.519343401928055,-0.3985535966230294,-0.5551837910742758,0.7930864526084651,-0.5451549985622346,-1.369612389131772,-1.121616324275423,-0.4188828743783744,-1.3997497076598686,14.20455,-70.69753,0.40225003728757724,-1.3412245191189411,0.10566356266083918,0.6524198819455388,0.49871373135467734,-0.22756020816254038,-1.3098365334477482,-0.42942790107222084,0.12424223662758613,-1.4255514111029373,16.60423,-137.7475,LR
1.2526390096554074,-1.3612493411021547,-0.388757184156841,-0.3802422384347502,0.5012985059079529,-0.782653291052919,-1.3703875875546738,-1.1220988333226127,-0.4190568739906851,-1.3800178727822698,13.90556,-70.2224,0.41091863097926873,-1.1945546059771999,0.11834406204105107,1.0848374006569281,0.3047752549607331,-0.46151272836713864,-1.3095561644910994,-0.429364689730665,0.12426148503963398,-1.3278475355951957,16.69261,-138.4054,LR
1.2060899439613968,-1.3501150187940612,-0.37798088968678456,-0.2752774672722869,0.25814196329132283,-0.6045296202977994,-1.3703875875546738,-1.1220779555273015,-0.4189354789123293,-1.3499440285069044,14.24619,-70.09237,0.4065843341334229,-1.328283316041488,0.054939833777429996,0.40918543703111165,0.3047752549607331,-0.22756020816254038,-1.3112629959930409,-0.429554968769022,0.1251276635817571,-1.3910077038610864,16.48558,-138.0629,LR
1.220412451358875,-1.3701555220768045,-0.3789603704285707,-0.2577834151362822,-0.05796168545113042,-0.5748423094300169,-1.3706161958274474,-1.1226613739184954,-0.41888557204678223,-1.3609124007769426,14.11593,-70.13502,0.4304216353407103,-1.276516736773311,-0.09722962151023685,1.0307853214560394,0.3694213079006255,-0.25095533759191524,-1.3100950199492445,-0.43032060001827593,0.12396313465290328,-1.2829950503863534,16.00659,-139.1028,LR
1.2580098582642414,-1.4080092993601518,-0.3838589779237467,-0.3977365197439723,0.28245766533326394,-0.1295334242195807,-1.3715193396211187,-1.1236449500531516,-0.41875136304348853,-1.3882392365810932,13.79798,-70.24787,0.4542598241779069,-1.35416748915476,-0.1521813377620889,0.6253939308555224,0.6926522077486216,-0.3913268803624454,-1.3101264759785265,-0.4314151882490961,0.12273123628187926,-1.3195180751166087,15.53012,-139.0908,LR
1.2490581994755967,-1.428049802642896,-0.4210852650428465,-0.2402892484136688,0.7930864526084651,-0.30765690052312517,-1.372960606591854,-1.1239140416371614,-0.4194095941350218,-1.4247349387651393,13.87751,-70.77052,0.4325892275785877,-1.345539431450336,-0.050733879995271465,0.7875505224999003,0.6118444827866226,0.4509019165441668,-1.3107186699211077,-0.4319576447618363,0.12326056761317869,-1.3580431681109983,15.9678,-138.5812,LR
1.1774449291664402,-1.2699548297656924,-0.3750420461993443,-0.2927716339949004,0.7444552077921764,-0.3373442113909076,-1.3723039457918718,-1.1225639442070434,-0.41893075799261487,-1.3173048116306068,14.56339,-69.91448,0.47593042077722586,-1.3412245191189411,-0.03382539324661579,0.8686289068325173,0.5471983239886411,0.053182724139663635,-1.3117115863236801,-0.4332644424964515,0.1231739497589661,-1.3798089690788218,15.43416,-138.7038,LR
1.2257840332894738,-1.3835161616157345,-0.35348985852131337,-0.04785375822474707,0.20951055920744074,-0.18890785150357048,-1.3718495515706806,-1.1230870489673384,-0.41826308506165377,-1.3419857558397823,14.02907,-69.83181,0.44125693364037005,-1.2592623883228298,-0.008464394486191075,0.9767328882134388,0.15932139237237045,-0.5083031404647445,-1.3112903490619823,-0.43410941042949497,0.12232701962888812,-1.3205472131481055,16.01903,-138.825,LR
1.2830747962011524,-1.3901960253595487,-0.39659423387737536,0.1445818236334616,0.28245766533326394,0.0782774990678488,-1.3724572920818394,-1.1243571148487637,-0.41819699218565975,-1.4054234879378396,13.65428,-70.36072,0.42825493073274207,-1.2808316491047058,-0.08877710949846782,0.3010809245876225,0.3047752549607331,-0.6954652485717367,-1.3110140830656751,-0.4347769995979681,0.12093150975546561,-1.2897051909454205,16.04236,-139.0352,LR
1.265171478623863,-1.3278481982804804,-0.38777730215297296,-0.2402892484136688,0.20951055920744074,-0.15922054063578803,-1.3729239163752365,-1.125204985313898,-0.41795082994343724,-1.3758730171237588,13.85846,-70.13557,0.39791574044173167,-1.2290650698365289,-0.1056838648845647,0.8416024246799332,0.49871373135467734,-0.8592319207716418,-1.3089489263606005,-0.4347066931058293,0.1190547895808633,-1.2319610455839065,16.4697,-139.219,LR
1.2741231374125077,-1.3812889323335955,-0.3809197331742248,-0.6076661766555075,-0.03364598340918933,-0.30765690052312517,-1.3740095704772126,-1.126633954415191,-0.4178004349296947,-1.385115848626091,13.71357,-70.14729,0.3914147389879178,-1.285144794477735,0.1267983054153789,0.5713418516546337,0.6926522077486216,-1.3973221962301063,-1.310531301398859,-0.4340113683487142,0.1194301336157854,-1.391438630319008,16.84936,-137.8588,LR
1.2973973035986306,-1.3657019755638278,-0.3583880647544075,-0.8175957189804339,-0.25248705173653707,-0.21859516237135293,-1.3749174181448107,-1.128671859213058,-0.4171422038381615,-1.3682752073950897,13.53958,-69.81206,0.3827461452962266,-1.293772852182159,0.025350847648562443,1.2199678641904337,0.06366122706141598,-1.0463940288786342,-1.3102755502042576,-0.4339294516101674,0.11926652211338416,-1.3409948074045843,16.79226,-138.2552,LR
1.288445644809986,-1.3701555220768045,-0.3838589779237467,-1.010031438342573,0.5012985059079529,-0.5154678821460271,-1.3765581293699811,-1.129657755102749,-0.41712264574220453,-1.390550880724048,13.62761,-70.15394,0.44992552733206126,-1.436129619950872,0.029578835017005273,1.5713069985692059,0.06366122706141598,-1.1633702889809332,-1.3124213984627087,-0.4351878733180816,0.11982472606275262,-1.4721771185376997,15.75469,-137.8657,LR
1.2042999055323738,-1.3924223425903852,-0.3838589779237467,-0.7826073855352069,-0.1309086960163975,-0.9014023400724738,-1.3773041637745458,-1.129965122644829,-0.4173971335027106,-1.3647585871435948,14.20758,-70.25215,0.4065843341334229,-1.392991098387118,0.07184832052608567,1.5983329496592222,0.06366122706141598,-1.1633702889809332,-1.313860169889025,-0.43554714594304733,0.1206331593687349,-1.4468207098475032,16.43212,-137.6874,LR
1.2723323656617198,-1.4124628458731285,-0.4014924401104697,-0.695136895681966,0.30677320810761144,-1.1982746709439975,-1.378934526477081,-1.1309463790244507,-0.4181524806569293,-1.4112760952839782,13.70803,-70.47389,0.4542598241779069,-1.405932301464571,0.11411780603516702,0.43621138812112803,0.8865906841425658,-0.7656512498152863,-1.3176266874822533,-0.43590383851325576,0.12191317876987305,-1.4975174678567944,15.85709,-137.6273,LR
1.2902356832390087,-1.4592228041311266,-0.3956143518735075,0.08518920094561855,0.9389803463249243,-1.138900243660008,-1.3798244994237623,-1.1316910203905468,-0.4188680372021309,-1.42296164836143,13.51008,-70.47797,0.4542598241779069,-1.293772852182159,-0.15640759376797292,0.22000254025500554,0.06366122706141598,-0.8358363316256981,-1.316901831155306,-0.437333833862536,0.11934351576157282,-1.273679276865877,15.5913,-139.3901,LR
1.2723323656617198,-1.4436367594126627,-0.40737012708535,-0.9925370424467421,0.9389803463249243,-0.5451549985622346,-1.3826251859589305,-1.1314451263568828,-0.4196139425169217,-1.4240037139471375,13.67298,-70.60965,0.4737628285393485,-1.345539431450336,-0.050733879995271465,0.679446010056411,0.06366122706141598,-0.46151272836713864,-1.3177908058959011,-0.4389386279216291,0.11876606340015651,-1.3732232886458,15.43321,-138.7521,LR
1.19892905692354,-1.4480893938743369,-0.3848384586655329,-0.6251602287915122,0.574245612033776,-1.1092131272438004,-1.3833674572643535,-1.131036849470799,-0.4201474064445882,-1.3766501190430194,14.17095,-70.37637,0.46076082563172077,-1.4102472137959658,-0.02959913724073079,1.5713069985692059,0.06366122706141598,-0.32114133883546475,-1.3188480020104858,-0.44034927286022896,0.11921840108326454,-1.42625668515053,15.55884,-138.3019,LR
1.2078807157121847,-1.4636763506441033,-0.39953307736481564,-0.5551837910742758,-0.05796168545113042,-1.6732710614737916,-1.3843750270591693,-1.131488041825022,-0.42118128786192516,-1.3972845156678062,14.10206,-70.58821,0.46076082563172077,-1.362793779900818,0.0803025639004135,1.6253592547909503,0.7088137739126391,-0.6954652485717367,-1.320206081883425,-0.44087689405811425,0.11984397447480047,-1.4505906472138563,15.77355,-138.0127,LR
1.222203223109663,-1.3991022063341985,-0.3818996151780926,-0.3977365197439723,-0.5929063340358662,-1.435772963434682,-1.3846977128104507,-1.1325702075486475,-0.4216506821649033,-1.371128950346782,14.06678,-70.2284,0.45209223194002957,-1.4275033292048138,-0.0634143793754843,0.49026346732201675,0.2562906623267693,-0.8124415086740359,-1.32218234111444,-0.4420314685620436,0.11977660503263299,-1.4175832864741609,15.60272,-138.3421,LR
1.2830747962011524,-1.4480893938743369,-0.3789603704285707,-0.2752774672722869,-0.3740653182668243,-0.723278474865779,-1.3854569180620053,-1.1345675166334095,-0.42174375172497647,-1.4019639799960741,13.55813,-70.24778,0.4174196324330826,-1.35416748915476,-0.059188123369599305,-0.42862347228079434,0.6441675092565688,-0.6486748364741308,-1.3238358341319463,-0.4421088702047652,0.11946863043987836,-1.3541875807654316,16.14125,-138.5162,LR
1.2848648346301752,-1.3768353858206188,-0.39659423387737536,-0.6426545101007343,-0.17954006824676091,-0.5451549985622346,-1.3866940369043799,-1.13609159569112,-0.42188942581900457,-1.4029882565017004,13.65907,-70.3334,0.44992552733206126,-1.371421837605242,0.06339407715175784,-0.42862347228079434,0.3532598475946969,-0.36793159769421424,-1.3272836884720063,-0.4427822644964425,0.12041180263019284,-1.4436289098408472,15.88042,-138.0069,LR
1.308139000816298,-1.3879687960774085,-0.30744663967781116,-0.660148562236739,0.23382626124938177,-0.24828247323913535,-1.3864249753158486,-1.137802415029113,-0.4203524292435903,-1.3281945374413469,13.37458,-69.20024,0.3632431409347847,-1.276516736773311,-0.025372881234846746,-0.6448323201469168,0.48255216519065974,-0.8358363316256981,-1.3278074997422338,-0.44192439628961233,0.12003645859527075,-1.2945256788380732,16.98626,-138.4816,LR
1.2920264549897968,-1.3812889323335955,-0.3838589779237467,0.08518920094561855,0.3797201549658411,-0.30765690052312517,-1.3865924332275916,-1.1388764616101175,-0.4201743831286674,-1.3944438804593304,13.58679,-70.17367,0.400083332679609,-1.2204370121321049,0.029578835017005273,-1.239406253481828,0.8219445253445844,-0.5316982698941193,-1.3290821527549024,-0.4411723103278346,0.11957449670613879,-1.2961530284431444,16.66293,-138.6504,LR
1.2508482379046195,-1.3456623843323872,-0.37798088968678456,-1.132490605400867,1.133505644125266,-0.6639040475817892,-1.38764327866252,-1.1382860839538202,-0.4200354532056593,-1.3654486161972021,13.92731,-70.05399,0.44992552733206126,-1.32397017066846,-0.012690650492075118,-1.482640875417111,0.8057829591805669,-0.32114133883546475,-1.3319761074489005,-0.4415760888973653,0.11947825464590228,-1.3688270358064436,15.82391,-138.5795,LR
1.2347356920781185,-1.367929204845968,-0.41618705880975243,-1.3074322726270016,1.4009780480514304,-0.21859516237135293,-1.3894834341421265,-1.1372363948006787,-0.4203969407723217,-1.4008666746353828,14.05796,-70.60084,0.4174196324330826,-1.2722035914002818,-0.021144893866402954,-1.455614393264527,0.8219445253445844,-0.08718872668755276,-1.3337868806128192,-0.44130389312046125,0.11930501893747712,-1.3144192247915099,16.29559,-138.7202,LR
1.2544290480844305,-1.3612493411021547,-0.4377392464877833,-1.6048315026989082,1.6198196849640873,0.25640107259718076,-1.392286943001651,-1.1361101537313967,-0.4208643118239942,-1.4271608075275535,13.94802,-70.85458,0.46509512247756635,-1.177298490568352,0.23670000655652415,-2.185318436091232,1.0320445679025463,-0.2977460561672336,-1.3381414891882872,-0.4410033167412259,0.12000758597720171,-1.4001508391422086,16.17676,-138.1643,LR
1.2705423272326968,-1.3590221118200145,-0.4387187272295695,-1.6573144612131832,1.6198196849640873,0.28608832512949073,-1.3952306273041504,-1.135269242531366,-0.42130470619158755,-1.4337025076599268,13.8345,-70.85293,0.4585932333938434,-1.1945546059771999,0.1267983054153789,-1.8339798327750272,0.9835599752685825,-0.25095533759191524,-1.3410067231598966,-0.440885924249765,0.11994984074105816,-1.3510118401298776,16.07297,-138.5759,LR
1.1935574749929412,-1.4191427096169429,-0.4279428340215949,-1.9022318786369017,1.0119272931831542,-0.3967188331264725,-1.3978939607206982,-1.134020054445252,-0.42211670438237237,-1.4080506541853632,14.29892,-70.87689,0.462927530239689,-1.233378215209558,-0.059188123369599305,-0.5367274536617159,0.06366122706141598,-1.1165792639279022,-1.3409506493685663,-0.44208887478039555,0.11775552176767728,-1.2830111097574555,15.68952,-139.2711,LR
1.2383165022579294,-1.4614500334132667,-0.39365539038993513,-1.4823727939870488,0.8174023139179997,-1.1982746709439975,-1.3998865217154859,-1.1339759790995951,-0.4227985400724748,-1.402580980194618,13.87949,-70.48956,0.49110001592273117,-1.285144794477735,0.17329577829290307,-0.48267537446082714,0.06366122706141598,0.030582904374458573,-1.344368415332792,-0.44338212722753434,0.11898742013869856,-1.455880871711262,15.60097,-138.0646,LR
1.2472681610465741,-1.490396717670661,-0.42696295201772705,-1.6223265861143912,0.11224791030726997,-1.3467112252829099,-1.4028367914414819,-1.1348424076050059,-0.42418379279994317,-1.4437542741721876,13.81289,-70.96535,0.4455912304862157,-1.436129619950872,0.05916782114587379,0.05784604508699409,1.2421443987443301,-1.2335555240302012,-1.3477260045453459,-0.44333826629665885,0.11978622923865692,-1.4863267627600807,15.85399,-137.7104,LR
1.2794939860213415,-1.4703562143879165,-0.4014924401104697,-1.3599140852751896,0.16087915512355858,-1.138900243660008,-1.4049610609061816,-1.1362110630754,-0.42487372149527,-1.4271579987254348,13.57944,-70.58128,0.42392063388689644,-1.3412245191189411,-0.050733879995271465,0.32810705269849477,1.1290138590285628,-1.3271369611808381,-1.3479571379779012,-0.4430280147120834,0.11876606340015651,-1.3516769657497134,16.08505,-138.5646,LR
1.288445644809986,-1.4725834436700567,-0.42402410853028677,-1.499866731536445,0.11224791030726997,-1.0498383110566605,-1.407834187099801,-1.1376748285022118,-0.42593660284799173,-1.4523211206315005,13.53619,-70.86895,0.41091863097926873,-1.302400909886583,-0.03805338061505863,-1.0231974056157054,0.8865906841425658,-1.4909036333807433,-1.349177084852686,-0.44264036148478647,0.11747641979299168,-1.3251937245204792,16.31837,-138.63,LR
1.2293641101475197,-1.4725834436700567,-0.3985535966230294,-1.3774080228245857,0.5012985059079529,-0.6935913584495716,-1.4095802651008995,-1.137768778581112,-0.4264059971509699,-1.4064149950854263,13.9344,-70.57915,0.45209223194002957,-1.423188416873419,-0.021144893866402954,-0.48267537446082714,0.06366122706141598,-1.0463940288786342,-1.3519985539139898,-0.4438355718511447,0.11759191026527605,-1.4367809263464824,15.6684,-138.1683,LR
1.2956072651696078,-1.4748097609008932,-0.42598347127594083,-1.55234969005072,-0.25772704634674737,-0.931089456488681,-1.4123922409334884,-1.1397196925651825,-0.4273737856923128,-1.4573320236096698,13.48356,-70.89404,0.47593042077722586,-1.35416748915476,-0.08454912213002402,0.3821589548785276,1.2421443987443301,-1.3505317841325004,-1.3523035406326858,-0.44436641811747657,0.1159942920653566,-1.3624688631307096,15.34694,-138.8746,LR
1.2401065406869523,-1.5037573572095908,-0.46027091490760064,-1.6398205236637873,1.0605588565346298,-1.3467112252829099,-1.4157442214927118,-1.1392940175163395,-0.42928373492512206,-1.4751388927691975,13.8824,-71.42223,0.49760101737654505,-1.436129619950872,-0.16908809314818576,1.1929419131004173,1.4684065367567545,-1.1867651119325953,-1.352221481425862,-0.4453965049793623,0.11448329171965246,-1.3846602374327548,14.8595,-138.9611,LR
1.218622412929852,-1.4703562143879165,-0.4690878466320028,-1.149984542950263,0.7930864526084651,-1.5842093233220191,-1.4181864728347664,-1.138752354715768,-0.4313056373968611,-1.467558872120607,14.09257,-71.48737,0.5582785103286568,-1.328283316041488,-0.1310465950075482,1.2199678641904337,1.1451752134764024,-1.2101607010785391,-1.351269594626702,-0.44741346278594746,0.11180776244508905,-1.3477798916954637,14.23775,-139.5348,LR
1.2562198198352184,-1.4169163923861052,-0.44361693346266384,-1.097501584435988,0.25814196329132283,-1.435772963434682,-1.4201846784782648,-1.1392441427830964,-0.43266121577184247,-1.4461380109028332,13.86551,-71.03561,0.49760101737654505,-1.306714055259612,-0.09722962151023685,0.4632375162320004,0.9350753826346186,-1.09318444097624,-1.3508155336822747,-0.4484667701406497,0.10984442441627415,-1.3291336235643352,15.09954,-139.2429,LR
1.2669615170528858,-1.4525429403873136,-0.44067808997522356,-0.9225606047295057,0.4526672610916643,-0.9904640782242458,-1.4221198522111649,-1.1398182821541516,-0.4337935620860683,-1.4555109835699573,13.73628,-71.05835,0.47159612393138023,-1.345539431450336,-0.06764236674392714,0.49026346732201675,0.7249752342185678,-1.1399748530738458,-1.3510767554906653,-0.4492910976356342,0.10877613754765413,-1.3635421644327386,15.4371,-138.8203,LR
1.2920264549897968,-1.3991022063341985,-0.4387187272295695,-0.8175957189804339,-0.17954006824676091,-1.5248347015864543,-1.4237266955440724,-1.141324963049103,-0.4349265828173953,-1.450979449486561,13.62362,-70.91639,0.469429419323412,-1.4102472137959658,0.06339407715175784,0.24702902240758967,0.2562906623267693,-0.6486748364741308,-1.3539378865019331,-0.45029538394994606,0.109863672828322,-1.4791147668540556,15.57962,-137.9067,LR
1.2866548730591978,-1.539383905210798,-0.4152075780679662,-0.7651133333992022,0.11224791030726997,-0.8420277183369087,-1.4254577211486104,-1.1428815186772971,-0.4357021624846741,-1.4583132318161574,13.45224,-70.88358,0.47809712538519433,-1.3110289675910067,-0.059188123369599305,-0.42862347228079434,0.595682916622605,-0.7656512498152863,-1.3547735227580922,-0.45120291821085606,0.10877613754765413,-1.3452960422982512,15.40345,-138.9699,LR
1.3403655591128307,-1.4213690268477792,-0.48378246533128555,-0.9925370424467421,0.5256140486823004,-0.723278474865779,-1.4286140205525375,-1.1443429643490741,-0.4372539962363318,-1.5173317819155303,13.28864,-71.51526,0.48893242368485385,-1.2808316491047058,0.025350847648562443,-0.5097015025716994,1.2583057531921695,-0.5784889884694376,-1.3562300736792212,-0.4514802740972747,0.10826605462840255,-1.3719572748905395,15.41799,-138.7691,LR
1.3153006211759197,-1.4369559836175458,-0.45145438444528,0.08518920094561855,1.2064527502510891,-1.3170241088667025,-1.429665806762251,-1.1447477616026063,-0.4385704584193984,-1.4804128868790678,13.41744,-71.13914,0.49110001592273117,-1.3110289675910067,0.10143730665495418,0.40918543703111165,1.4360827692801852,-0.7422556606693426,-1.357945111101845,-0.45161379193096934,0.10860290183922895,-1.4357879218999665,15.4652,-138.2813,LR
1.2562198198352184,-1.4369559836175458,-0.4387187272295695,-0.8875723858708877,-0.25772704634674737,-1.1685877489793655,-1.4311023698590606,-1.1457487359000218,-0.43956522364481954,-1.446075280988869,13.83299,-71.01024,0.5257726154296781,-1.35416748915476,0.06339407715175784,0.8686289068325173,1.5653757220246822,-0.2743506202601463,-1.3595616774762804,-0.4522723509077917,0.1091033605524566,-1.459496906771214,14.90286,-138.3949,LR
1.2401065406869523,-1.3835161616157345,-0.44753565895397196,-0.7651133333992022,0.8174023139179997,-1.3467112252829099,-1.4322378850246469,-1.1451142828980678,-0.4407070117984732,-1.4360459848935512,14.03274,-71.03313,0.46509512247756635,-1.302400909886583,0.016896604274234606,0.760524394389028,0.8542676576726197,-0.5316982698941193,-1.3595835599314336,-0.4525806674512992,0.10897824587414832,-1.3744143586692488,15.69423,-138.6074,LR
1.1649124601979846,-1.3991022063341985,-0.46712848388634876,-0.835090000289656,0.3554046121914936,-1.1685877489793655,-1.4332106461524146,-1.14376418546795,-0.4421354272204686,-1.4285006061377472,14.57906,-71.36385,0.4932667205306994,-1.3110289675910067,-0.1310465950075482,0.4632375162320004,0.8704291179785483,-0.9528125917279973,-1.358634408439168,-0.45358366373823245,0.1069860352272644,-1.3130662227761098,15.10342,-139.3572,LR
1.2866548730591978,-1.4814896246447076,-0.4455762962083179,-0.7126309478179707,0.16087915512355858,-0.9607765729048884,-1.4350056444423365,-1.1449692982084074,-0.4432057271613126,-1.4740528226169785,13.56035,-71.16398,0.5149373171300186,-1.431816474577843,0.09720931928651134,0.5713418516546337,0.06366122706141598,-1.2101607010785391,-1.3620576450171815,-0.45541550261597524,0.10782334115131571,-1.5301193294761468,15.00529,-137.8284,LR
1.2544290480844305,-1.439183212899686,-0.4543932279327201,-0.9750429903107374,-0.17954006824676091,-0.782653291052919,-1.4367263215242394,-1.1458241279386452,-0.4442038644722438,-1.4606417287718192,13.86002,-71.21794,0.5192716139758641,-1.3843630406826941,-0.1521813377620889,0.7334984432990116,0.06366122706141598,-1.1867651119325953,-1.361793687901897,-0.45765886022752106,0.10591774835864436,-1.3639449869912301,14.65815,-139.2118,LR
1.2669615170528858,-1.4191427096169429,-0.4592914341658144,-0.7126309478179707,0.59856099554053,-1.0498383110566605,-1.438279540694398,-1.1459598336081676,-0.4453760013954866,-1.4655243631199413,13.80147,-71.23619,0.46726182708553465,-1.3325982283728839,0.0845288199062985,0.0848724838694685,0.06366122706141598,-0.7656512498152863,-1.3636892555795348,-0.45847415753085463,0.10646632810198889,-1.4333830310773414,15.72997,-138.1607,LR
1.2615906684440523,-1.4993038106966141,-0.4583115521619466,-0.957548823588124,0.8660333994666948,-0.6045296202977994,-1.440398165510387,-1.1459691126283056,-0.4464854175282445,-1.4805289840332703,13.73131,-71.37598,0.5062687234383273,-1.3843630406826941,-0.1056838648845647,0.32810705269849477,0.9997214355745111,-0.4381175989377638,-1.3642595670669628,-0.45951843469390585,0.10578300947431216,-1.3838880493389005,14.89035,-138.9512,LR
1.2383165022579294,-1.5015301279274507,-0.4612507969114685,0.08518920094561855,0.9146648035505769,-0.6045296202977994,-1.4411028058244086,-1.1455353184368418,-0.44764878702916167,-1.4748664389637702,13.89937,-71.43181,0.4845981268390082,-1.336911373745912,0.004216104894021765,0.7875505224999003,0.8865906841425658,-0.8826267437233041,-1.3646821719821072,-0.46005960117926736,0.1054654106755336,-1.4000384235444894,15.38045,-138.5847,LR
1.2401065406869523,-1.4659035799262434,-0.4730061708612293,0.08518920094561855,0.5012985059079529,-0.782653291052919,-1.44186671494989,-1.145495882601254,-0.4489618771267182,-1.4785478422728424,13.94751,-71.51683,0.3914147389879178,-1.362793779900818,-0.050733879995271465,0.9226809860334061,1.0482061340665638,-1.3973221962301063,-1.3640311689413016,-0.45903789949534307,0.10520555711289585,-1.3549196204315277,16.47887,-138.3276,LR
1.2544290480844305,-1.4725834436700567,-0.41030897057279025,-1.0275256050651864,0.47698296313360533,-0.9607765729048884,-1.4428272460054503,-1.145900679854786,-0.44924985322926436,-1.4267516586857254,13.76693,-70.71386,0.5366079137293377,-1.293772852182159,-0.05496013600115647,0.8416024246799332,0.9512368429405473,-0.8826267437233041,-1.3634348720383798,-0.46040919859889273,0.10352132105876655,-1.355663704625952,14.66178,-139.2702,LR
1.220412451358875,-1.4592228041311266,-0.42402410853028677,-0.8875723858708877,0.6228768568500647,-1.2576494871311374,-1.4436316084466894,-1.145442528235459,-0.4499532702666303,-1.4238145879378716,14.04539,-70.88544,0.5279393200376464,-1.3412245191189411,-0.10145760887867969,0.8686289068325173,0.838106091508602,-0.555093399323494,-1.3629589286388004,-0.4618559643040961,0.10227017427569743,-1.3625170412440177,14.66054,-139.221,LR
1.263380706873075,-1.4569964869002903,-0.43969860923343734,-0.835090000289656,0.25814196329132283,-1.1685877489793655,-1.444966567866712,-1.146057263319619,-0.45082798924789913,-1.4542404687453356,13.75518,-71.05629,0.5344412091213694,-1.328283316041488,-0.03805338061505863,0.6524198819455388,0.5633599960107478,-0.4147220097918201,-1.3633281950695086,-0.4635284848005707,0.10159647985404462,-1.3890872707333917,14.6764,-139.0201,LR
1.2920264549897968,-1.4525429403873136,-0.45341334592885224,-0.415230571879977,0.47698296313360533,-0.723278474865779,-1.4461858119881688,-1.146912093049857,-0.45163122001635825,-1.4770114275144022,13.56813,-71.20765,0.4845981268390082,-1.345539431450336,-0.20290506664549712,0.6524198819455388,0.4502290328626245,0.030582904374458573,-1.3617759084070853,-0.46472305015323956,0.10042232671916415,-1.2977750249245137,15.07715,-139.4813,LR
1.2920264549897968,-1.4057829821293153,-0.46712848388634876,-0.415230571879977,0.16087915512355858,-0.6342167367140068,-1.4474718511193667,-1.147857393226443,-0.45252549709358497,-1.4795215603403495,13.64527,-71.29778,0.4845981268390082,-1.392991098387118,-0.012690650492075118,0.32810705269849477,-0.034617126364809424,-0.08718872668755276,-1.3633801659004972,-0.466043393175331,0.10125000843719428,-1.4316098088514213,15.2927,-138.4005,LR
1.309929772567086,-1.510437220953404,-0.4357798837421292,-0.3102658007175138,-0.1309086960163975,-0.1295334242195807,-1.4485810245909692,-1.1498025078229275,-0.45283910104600594,-1.4799016848936257,13.34383,-71.07854,0.46076082563172077,-1.405932301464571,0.19020253367899997,-0.2124144473938159,0.15932139237237045,-0.5784889884694376,-1.3677922159207416,-0.4664078259098115,0.10373305359128468,-1.5414759814075876,15.88333,-137.293,LR
1.2866548730591978,-1.4814896246447076,-0.4416575707170098,-0.3102658007175138,-0.1309086960163975,-0.4264059495426798,-1.4495086285290535,-1.151208279373875,-0.4533550301290211,-1.470348948890962,13.5562,-71.11354,0.49760101737654505,-1.371421837605242,-0.1310465950075482,-0.2124144473938159,-0.09926326399117304,-0.36793159769421424,-1.3683707333288517,-0.46815968309007566,0.10290537187325455,-1.3582251743168285,14.9816,-139.0917,LR
1.2902356832390087,-1.4124628458731285,-0.46027091490760064,-0.08284186249675655,-0.08227738749307148,-0.30765690052312517,-1.4502113872935043,-1.1523356803206743,-0.4539471683445604,-1.473829990982299,13.64202,-71.2223,0.48243142223103996,-1.293772852182159,-0.03382539324661579,0.11189848806574165,0.17548293736477025,-0.4147220097918201,-1.3683515861805926,-0.4690872127753553,0.10230867109979039,-1.3476474018838676,15.40288,-138.9532,LR
1.3385747873620426,-1.4235962561299194,-0.46614900314456276,-0.04785375822474707,0.06361650622338785,-0.07015880248401579,-1.4513901780992031,-1.1541218916972908,-0.4544988415339804,-1.5002317946223171,13.28058,-71.29092,0.4585932333938434,-1.401619156091542,-0.008464394486191075,-0.1853884963037995,0.41790600639267833,-0.25095533759191524,-1.3703456249064194,-0.4695103417555664,0.10328071590817665,-1.4304428278846264,15.62729,-138.2358,LR
1.2544290480844305,-1.497076581414474,-0.4348004030003433,-0.04785375822474707,0.18519501643309316,-0.18890785150357048,-1.4516310164441826,-1.154658914987793,-0.45479491064175004,-1.4552928332721409,13.76083,-71.07403,0.47593042077722586,-1.3843630406826941,-0.09300336550435186,0.6524198819455388,0.6441675092565688,0.099973074941727,-1.3703305807185018,-0.47012245974675576,0.10350207264671869,-1.3797969245504946,15.30124,-138.7724,LR
1.2490581994755967,-1.5037573572095908,-0.45635259067837414,0.31952317001709163,0.3310889101495525,0.0782774990678488,-1.4518285791490482,-1.1548758120835252,-0.45535535125349663,-1.4749113797976547,13.81367,-71.36647,0.5301069122755238,-1.263575533695858,-0.06764236674392714,0.40918543703111165,0.06235210442209648,0.17015898424196274,-1.3694634884330599,-0.47193817328226506,0.10249153101423948,-1.3245754387330257,14.76221,-139.4458,LR
1.2275740717184966,-1.4480893938743369,-0.44753565895397196,0.4944646080700085,0.20951055920744074,-0.21859516237135293,-1.4512293056109564,-1.1547053100884845,-0.4557809084448465,-1.4459498211609403,14.03491,-71.16252,0.5041020188303591,-1.2808316491047058,0.042259334397218115,-0.5097015025716994,-0.45481708445102637,0.3105303737736366,-1.3708817450576705,-0.4735313570949499,0.10294386869735024,-1.3865739791558231,15.24214,-138.7535,LR
1.3153006211759197,-1.3456623843323872,-0.452433865187066,0.45947638921139045,0.6228768568500647,0.4048373935942029,-1.4510110458608179,-1.1553072865199545,-0.4556392808534306,-1.4607007136162933,13.53975,-70.97825,0.48893242368485385,-1.276516736773311,0.07607457653197067,-1.2664318505301326,-0.08310169782715542,0.9188069569533631,-1.373365403717548,-0.4744614668349871,0.10434900277679668,-1.3959633581271866,15.49698,-138.5541,LR
1.2723323656617198,-1.428049802642896,-0.4377392464877833,0.45947638921139045,0.574245612033776,0.3751500827264205,-1.4505359545943552,-1.1554511113320978,-0.45549765326201475,-1.449216458023951,13.72703,-70.97086,0.5084363156762046,-1.32397017066846,0.042259334397218115,-0.5367274536617159,0.11083678915259772,1.082573629153268,-1.3754127809278098,-0.47566764243406423,0.10579263368033608,-1.419733903920994,15.13604,-138.5667,LR
1.3063489623872753,-1.4191427096169429,-0.4357798837421292,0.09209941513490824,0.30677320810761144,-0.21859516237135293,-1.4506921232086778,-1.1564706436697898,-0.45556442055511,-1.4580838463098689,13.48945,-70.90791,0.49110001592273117,-1.2376931275409528,-1.0151111863238729e-05,0.3821589548785276,0.33709838728876834,0.49769232864177265,-1.3745347474147918,-0.47630169089069146,0.10569639162009957,-1.3275410692633196,15.40154,-139.0995,LR
1.2938164934188197,-1.4458630766434992,-0.44361693346266384,0.26704078443586,-0.20385567472814584,-1.1092131272438004,-1.4508097200568122,-1.1578265404874941,-0.456311000287003,-1.466893186018687,13.55357,-71.06744,0.5344412091213694,-1.3498525768233651,-0.24094656478613466,0.8145764735899167,0.09467522298858011,0.7784355674216893,-1.37258037063893,-0.478460551708933,0.10447411745510223,-1.2979824584679236,14.37834,-139.828,LR
1.2956072651696078,-1.510437220953404,-0.5503983911110327,0.6344177126776986,0.06361650622338785,-1.2576494871311374,-1.4528022810516013,-1.1588460728251861,-0.4591455753666281,-1.5823040562372834,13.56416,-72.57005,0.45209223194002957,-1.3843630406826941,-0.12681860763910538,0.4632375162320004,-0.13158639631920824,0.7784355674216893,-1.371984073736008,-0.4793351902716862,0.10551353170565048,-1.3535719715398287,15.56066,-138.8283,LR
1.2741231374125077,-1.4569964869002903,-0.42010578430106055,0.7043942649815437,-0.10659299397445642,-0.9014023400724738,-1.4514579138837287,-1.1597368587584598,-0.45960552783017933,-1.439768583967019,13.65619,-70.79768,0.47593042077722586,-1.298085997555188,-0.04227963662094363,-0.5637539358143,-0.8588557092610215,0.9889924984803438,-1.3725844735992716,-0.4808780630166021,0.10617760192127937,-1.3439791738678313,15.47081,-138.9445,LR
1.2848648346301752,-1.3879687960774085,-0.4583115521619466,0.45947638921139045,-0.5929063340358662,-0.15922054063578803,-1.4512782258997798,-1.161076517290922,-0.45990496902345895,-1.4643849257274841,13.7121,-71.15391,0.4737628285393485,-1.336911373745912,-0.19445082327116928,-1.239406253481828,0.06366122706141598,0.263740114914887,-1.3728839897041796,-0.48186364393392295,0.10520555711289585,-1.2921689661287552,15.23781,-139.4398,LR
1.354688066510309,-1.46812989715708,-0.44655617821218574,0.24954661771324657,-0.1552243821315792,0.49389913174597516,-1.4520176748808482,-1.1633753945301781,-0.45980717854367137,-1.4973115766871703,13.08513,-71.11156,0.46076082563172077,-1.328283316041488,0.05916782114587379,-1.1042757899483222,-0.2608787139151711,0.07657789954069531,-1.3755153549363397,-0.48241771069307127,0.10633158921765669,-1.4141706701148427,15.78317,-138.2722,LR
1.3153006211759197,-1.3991022063341985,-0.4612507969114685,-0.08284186249675655,0.23382626124938177,0.1677400602512952,-1.452820155772518,-1.1643009767889703,-0.4599899455783087,-1.4812686352576254,13.4779,-71.19482,0.3632431409347847,-1.293772852182159,0.033805091022890275,-0.42862347228079434,-0.27704017422109967,0.1935541136713375,-1.3757273412206354,-0.4813089321610852,0.10781371694529453,-1.3376651644626305,17.05866,-138.1299,LR
1.3690105739077871,-1.4458630766434992,-0.45635259067837414,-0.11783019594198343,0.5499299099918351,-0.07015880248401579,-1.4541522928681845,-1.1659909183316521,-0.46027387517824264,-1.5070965069982398,13.01931,-71.18803,0.49110001592273117,-1.3498525768233651,0.016896604274234606,0.3010809245876225,-0.08310169782715542,0.17015898424196274,-1.3767968462162439,-0.48233901902297105,0.10854515660308815,-1.4185963651345548,15.29868,-138.492,LR
1.3206714697847535,-1.4414095301305225,-0.44753565895397196,-0.2927716339949004,0.20951055920744074,-0.07015880248401579,-1.4551344617438018,-1.1671449964613492,-0.4604330376143098,-1.4796769807242016,13.36835,-71.09367,0.4802647176230717,-1.3843630406826941,-0.08454912213002402,0.5443159005646172,0.01386748744077219,0.17015898424196274,-1.376934979214398,-0.48331298969388364,0.10876651334163019,-1.3857924230954932,15.25707,-138.7516,LR
1.2920264549897968,-1.4770369901830334,-0.49259939705568795,0.1445818236334616,0.5256140486823004,-0.09984611335179824,-1.4563734621357458,-1.167509198001776,-0.46149389571572597,-1.5194739616640451,13.57652,-71.76038,0.48243142223103996,-1.3757367499366369,-1.0151111863238729e-05,-0.2124144473938159,-0.24471714775115347,-0.36793159769421424,-1.3786978845076696,-0.4843708121444112,0.10913223317052838,-1.4251218229259415,15.35858,-138.4138,LR
1.2687515554819087,-1.3590221118200145,-0.4445968154665317,0.057111093148342236,0.13656361234921105,-0.09984611335179824,-1.4560630064566713,-1.1675834301628822,-0.4614230819200176,-1.4386076124249918,13.85411,-70.93044,0.5019353142223907,-1.345539431450336,0.05916782114587379,-0.2124144473938159,-0.8103710107689687,0.4742970459735416,-1.3807726147868729,-0.4860910636538972,0.11038337995359476,-1.4421755367560551,15.22138,-138.3601,LR
1.2580098582642414,-1.4881704004398233,-0.45047450244141196,0.4769705559340038,0.03930096344904031,0.018902955112913938,-1.4558710884005166,-1.1679696693761377,-0.4617326393698272,-1.469339652663297,13.76375,-71.25661,0.48243142223103996,-1.431816474577843,0.008444092262464597,-0.2934930087472887,-0.6002709682110068,0.8486211089486699,-1.3834668920775985,-0.4874791331133701,0.11242371163060105,-1.470001073753288,15.30675,-138.1139,LR
1.2777032142705533,-1.5237969484410316,-0.45733207142016036,0.1445818236334616,0.11224791030726997,-0.09984611335179824,-1.456522104551788,-1.1686934329469225,-0.4622897078960629,-1.4911603000491722,13.5814,-71.39907,0.5214383185838325,-1.371421837605242,-0.02959913724073079,0.0037940287285092252,-0.42249405798108014,0.52108776454886,-1.3847511186643968,-0.48928904152567526,0.11290492193178085,-1.4203066881569895,14.81172,-138.7258,LR
1.2526390096554074,-1.4859431711576843,-0.4328410402546892,0.24954661771324657,0.16087915512355858,-0.1295334242195807,-1.456224819719705,-1.168904530655068,-0.46234096359581345,-1.4502772489571099,13.78653,-71.02909,0.4932667205306994,-1.293772852182159,-0.1310465950075482,0.030820032924782408,-0.24471714775115347,0.801830696851064,-1.383533907096505,-0.49053198290504524,0.11230822115831669,-1.3005292070686227,15.12222,-139.4384,LR
1.2615906684440523,-1.4235962561299194,-0.452433865187066,0.511958774792622,-0.05796168545113042,0.0782774990678488,-1.4557581954263066,-1.1692223370948038,-0.4624711260964958,-1.4580108174548065,13.82705,-71.15899,0.48243142223103996,-1.3412245191189411,-0.004238138480306072,-0.45564942337081077,-0.5517863755770429,0.33392565644186767,-1.384883781048762,-0.4916781722310133,0.11290492193178085,-1.3978757615693294,15.39177,-138.5946,LR
1.288445644809986,-1.3768353858206188,-0.45047450244141196,0.7218884317041572,-0.6415375788521548,0.13765200413246861,-1.4550036940486777,-1.1704703653034005,-0.46239154487846174,-1.4557600306910703,13.69246,-71.02869,0.47593042077722586,-1.1729853451953227,0.1521593041758046,-0.6988843993478056,-0.5356249152711143,-0.11058391741247005,-1.3855539312378256,-0.4920871109100587,0.11301078819803854,-1.3552354547298808,15.90612,-138.6344,LR
1.3009781137784413,-1.4369559836175458,-0.4553727086745063,0.37200567018493197,0.16087915512355858,-0.010784297419395971,-1.4551702111856353,-1.1712498029950151,-0.4626120792708095,-1.4787575661643053,13.52584,-71.1984,0.36540984554275296,-1.306714055259612,-0.059188123369599305,-0.42862347228079434,-0.3740094653471163,0.4041115044465609,-1.3848318102177732,-0.4911376507593412,0.11382884571004749,-1.3000005861031592,16.8681,-138.5085,LR
1.2920264549897968,-1.425822573360756,-0.43382052099647517,0.09209941513490824,0.16087915512355858,-0.010784297419395971,-1.4551184685724556,-1.1718529393040025,-0.4624380796584988,-1.452383850545465,13.58268,-70.90401,0.4802647176230717,-1.224750157505134,-0.08877710949846782,-0.5097015025716994,-0.5679479417410606,0.099973074941727,-1.3835503189378702,-0.4922380441133657,0.1124044632185532,-1.267470991653769,15.42878,-139.5197,LR
1.2794939860213415,-1.4414095301305225,-0.4191259022971925,0.057111093148342236,-0.009330440634841805,-0.3967188331264725,-1.454807072118596,-1.1725001509586466,-0.46225868470937154,-1.437294965568603,13.63696,-70.75201,0.48893242368485385,-1.2376931275409528,0.054939833777429996,0.5172894184120331,-0.45481708445102637,0.8486211089486699,-1.3829389778470307,-0.49310945760767216,0.11301078819803854,-1.35601165766651,15.51083,-138.8366,LR
1.2902356832390087,-1.4080092993601518,-0.42696295201772705,0.441982222488777,-0.2281713608433276,-0.4264059495426798,-1.4541146618767815,-1.173426893094956,-0.46213998729942357,-1.4411355343310188,13.61197,-70.78246,0.48243142223103996,-1.224750157505134,-0.03805338061505863,0.0037940287285092252,-0.40633249181706255,0.8252258262804388,-1.3816711631015977,-0.49396668080081324,0.11270281360528392,-1.2947799522138654,15.47465,-139.2985,LR
1.2956072651696078,-1.4057829821293153,-0.3838589779237467,0.45947638921139045,0.20951055920744074,-0.4857805712782447,-1.4526169484189413,-1.174060186219393,-0.46129426825353953,-1.4014190723852193,13.52845,-70.2197,0.47809712538519433,-1.3412245191189411,-0.02959913724073079,0.5172894184120331,-0.43865562414509773,1.105968758582643,-1.3816807366757262,-0.49488582530813136,0.1137518520618561,-1.3828348222507505,15.41197,-138.6933,LR
1.2866548730591978,-1.4725834436700567,-0.41716653955153843,0.5644411603738536,0.3310889101495525,-0.24828247323913535,-1.451940531348473,-1.1745612533068592,-0.46108924545453744,-1.445155866428974,13.54176,-70.78201,0.44775793509418393,-1.263575533695858,0.033805091022890275,0.3010809245876225,-0.3416863330190811,0.8486211089486699,-1.3811965873554646,-0.49498128733415464,0.11471427266421844,-1.348415575134945,15.99245,-138.6378,LR
1.2597998966932642,-1.4569964869002903,-0.41716653955153843,0.45947638921139045,0.16087915512355858,-0.45609326041046233,-1.4510947748166907,-1.1746946392213469,-0.4609901061405455,-1.4316642535897708,13.75653,-70.76873,0.48893242368485385,-1.401619156091542,-0.08877710949846782,0.5713418516546337,-0.21239412128120724,0.7550399782757456,-1.381489265193137,-0.4960687804143921,0.11535909446779948,-1.3990668315927783,15.11971,-138.7252,LR
1.265171478623863,-1.367929204845968,-0.3946348711317213,0.3020291178810869,0.28245766533326394,-0.782653291052919,-1.4496713825668723,-1.174605328652516,-0.4603986423421084,-1.3917979888643555,13.8121,-70.3032,0.4390902290324015,-1.362793779900818,0.0845288199062985,0.0037940287285092252,-0.29320174038511726,0.5912733060758407,-1.3833109795846328,-0.49600492405914687,0.11746679558696776,-1.4444894244757658,16.06387,-137.9031,LR
1.263380706873075,-1.4325033491558727,-0.43088167750903517,0.6694060461229255,0.30677320810761144,0.04859022709038137,-1.4487926989176114,-1.17453109649141,-0.4602280148153078,-1.4403743489570922,13.77851,-70.89632,0.47593042077722586,-1.328283316041488,-0.050733879995271465,-0.32051895983730516,-0.05077867135720923,0.427506787114792,-1.3837677758359541,-0.4965506056403336,0.11757266185322819,-1.361499947740849,15.42446,-138.8416,LR
1.2956072651696078,-1.4659035799262434,-0.4348004030003433,0.337017336739705,0.3554046121914936,-0.010784297419395971,-1.4488002251158918,-1.1750402827214974,-0.4602178985587777,-1.4636986417433668,13.50468,-70.99055,0.462927530239689,-1.38867795301409,-0.11836609562733537,-0.23944092954640006,0.3047752549607331,0.28713524434426185,-1.3841712336028391,-0.4967757154179155,0.11759191026527605,-1.3649647570562502,15.42837,-138.8145,LR
1.3045589239582525,-1.4436367594126627,-0.4720266901194431,-0.17031258152321505,0.5256140486823004,-0.15922054063578803,-1.450077797274024,-1.1754056441394416,-0.46085859480565966,-1.4974323551782358,13.50846,-71.42465,0.48893242368485385,-1.328283316041488,0.07607457653197067,0.40918543703111165,0.046190609182998506,0.6614593073193903,-1.3852626210536008,-0.4972027144802626,0.11893929910857894,-1.433882209862449,15.43701,-138.3097,LR
1.3027681522074643,-1.450316623156476,-0.4377392464877833,-0.2577834151362822,0.8903492607762294,-1.1092131272438004,-1.4508163054803085,-1.175390565731717,-0.46140150057275403,-1.465654504284733,13.47642,-70.99464,0.4932667205306994,-1.3325982283728839,-0.10145760887867969,1.24699381528045,0.4502290328626245,0.4509019165441668,-1.383635113451588,-0.4976890548020296,0.11846771301342306,-1.3441759011638388,15.12162,-139.1226,LR
1.265171478623863,-1.4325033491558727,-0.4426374527208776,-0.2053009149684419,0.7687709098341176,-1.0795258163760182,-1.4511822668717025,-1.174879059746595,-0.46194642959115495,-1.4521497837023145,13.77835,-71.04692,0.462927530239689,-1.315342112964036,0.042259334397218115,1.1388894798578169,0.3532598475946969,0.263740114914887,-1.3831441258640909,-0.4974252442030869,0.11921840108326454,-1.3965321275204061,15.74496,-138.4203,LR
1.2544290480844305,-1.4347296663867093,-0.43088167750903517,-0.012865401862198467,0.6715081016663532,-0.8717148347531161,-1.4510373875548004,-1.174265484539952,-0.4622276615226811,-1.4375112433316735,13.84038,-70.90607,0.5062687234383273,-1.371421837605242,0.10988981866672322,0.6253939308555224,0.030029053604789798,0.8954113678074194,-1.385202444301929,-0.49814894956253336,0.12125873276026809,-1.4901395251160412,15.20663,-138.0183,LR
1.2454773892957858,-1.439183212899686,-0.4063906463435638,0.1445818236334616,-0.05796168545113042,-0.45609326041046233,-1.4502010387708693,-1.1743849519242324,-0.4618634762876109,-1.412104691908731,13.87202,-70.60527,0.49110001592273117,-1.328283316041488,-0.1056838648845647,0.1659505141603736,-0.27704017422109967,0.5678781766464659,-1.384589735557642,-0.49920999708150765,0.12081601928318399,-1.3380706635829724,15.14856,-139.1531,LR
1.2938164934188197,-1.3812889323335955,-0.44655617821218574,0.28453495115847344,0.5012985059079529,-0.3373442113909076,-1.4500702710757438,-1.174420908127268,-0.4619774527778454,-1.455071874172207,13.64295,-70.98297,0.46509512247756635,-1.380049895309666,-0.03805338061505863,0.40918543703111165,0.07851366741037141,0.1935541136713375,-1.385013708126234,-0.499445427078119,0.1213068537903877,-1.4016697879923365,15.52497,-138.4981,LR
1.2777032142705533,-1.4436367594126627,-0.4416575707170098,0.057111093148342236,-0.2281713608433276,-0.5748423094300169,-1.4502847677267408,-1.1751713488809503,-0.46229712648418514,-1.4584752060716173,13.6714,-71.04767,0.46076082563172077,-1.315342112964036,0.06339407715175784,-0.34754491092732154,0.3047752549607331,0.17015898424196274,-1.3863977734146677,-0.4991132450281057,0.12211528709637,-1.406989454670097,15.80466,-138.313,LR
1.2777032142705533,-1.4302761198737326,-0.4348004030003433,0.022122920124367545,0.47698296313360533,-0.2779695896553427,-1.4503468588625554,-1.1751272735352936,-0.4623058939065108,-1.4489589844964847,13.68185,-70.93386,0.43475593218655595,-1.3973060107185138,-0.004238138480306072,0.13892449226201484,0.4340675725566959,0.28713524434426185,-1.3874850579050877,-0.49850886720118837,0.12333756126136734,-1.420599771679613,15.94776,-138.1385,LR
1.2920264549897968,-1.5037573572095908,-0.4279428340215949,0.3020291178810869,0.3554046121914936,-0.15922054063578803,-1.4503957791513802,-1.1757408487419367,-0.46229982415259296,-1.4643605827757968,13.47355,-70.97606,0.4737628285393485,-1.302400909886583,-0.10991185225300754,0.4632375162320004,0.5471983239886411,0.1935541136713375,-1.3859355065495584,-0.49850499711905233,0.12238476486503166,-1.3109330029813047,15.39642,-139.2223,LR
1.265171478623863,-1.4369559836175458,-0.4210852650428465,-0.03035947691552494,0.5499299099918351,-0.30765690052312517,-1.450194453347373,-1.1754531991176502,-0.4621130106153444,-1.4328027547148563,13.74881,-70.77753,0.4455912304862157,-1.302400909886583,-0.01691863786051891,0.9226809860334061,0.27245212263269786,0.28713524434426185,-1.384677265378255,-0.49809799348107503,0.12257724898550194,-1.3492827811744896,15.89929,-138.6811,LR
1.223993261538686,-1.4592228041311266,-0.4348004030003433,0.16207591014544892,1.0362431544926887,-0.3967188331264725,-1.4498134395594182,-1.1739929133233904,-0.46230387065520423,-1.4352267509425234,14.0315,-71.02164,0.5171040217379868,-1.2894597068091298,0.012670348268349601,1.0578114495669118,0.24012909616275166,0.52108776454886,-1.3839551443582028,-0.4988649147577075,0.1225483763674329,-1.3817467998585442,15.01831,-138.9024,LR
1.2759131758415305,-1.4013294356163386,-0.4054107643396959,-0.2402892484136688,0.7687709098341176,-1.0201513890920282,-1.449493576132493,-1.1736159531302732,-0.46210626644432434,-1.4137609488908651,13.70128,-70.50044,0.4845981268390082,-1.3843630406826941,-0.021144893866402954,0.8145764735899167,0.757298366546603,0.33392565644186767,-1.384383219887135,-0.49884362930595905,0.12314507714089433,-1.4208915169213119,15.29047,-138.4795,LR
1.3403655591128307,-1.4837168539268466,-0.4152075780679662,-0.22279508169105533,1.0362431544926887,-0.8123406019207013,-1.4501728155273161,-1.1743605944963693,-0.46210424319301874,-1.465429800115309,13.13664,-70.74599,0.44775793509418393,-1.3671086922322129,-0.09300336550435186,1.409150406924828,0.7249752342185678,0.52108776454886,-1.382765285859252,-0.498301172793219,0.12343380332160385,-1.357174623790528,15.68484,-138.7372,LR
1.2705423272326968,-1.4547701696694526,-0.43088167750903517,-0.11783019594198343,0.6471925588920058,-1.435772963434682,-1.4503882529530985,-1.1741170202177398,-0.46270717208218926,-1.4481154075937708,13.69676,-70.9342,0.6189568909106775,-1.3498525768233651,-0.004238138480306072,0.8686289068325173,0.2562906623267693,0.21694939633956858,-1.3837923935980014,-0.5009147682624494,0.12275048469392712,-1.4519115304870511,13.58149,-139.0858,LR
1.2454773892957858,-1.4102356165909895,-0.4622302776532547,-0.2577834151362822,0.4526672610916643,-0.8717148347531161,-1.4509404877519376,-1.1734941659909586,-0.4634294727984109,-1.4580126899895511,13.97311,-71.27074,0.4845981268390082,-1.3325982283728839,-0.008464394486191075,0.05784604508699409,0.2562906623267693,0.07657789954069531,-1.3843955287681589,-0.5011721287244985,0.12276010889995104,-1.390155218911719,15.36713,-138.6633,LR
1.3224622415355414,-1.4325033491558727,-0.4083500090892178,-0.5376896243516623,0.40403601627537566,-0.5748423094300169,-1.451449446910663,-1.17443714641251,-0.4630504503870972,-1.4407806889968016,13.32527,-70.57,0.46726182708553465,-1.267888679068887,0.033805091022890275,0.40918543703111165,0.4017444402286607,-0.3445364682648395,-1.3839496737444137,-0.5008135011132221,0.12232701962888812,-1.3589224186788693,15.73086,-138.7004,LR
1.288445644809986,-1.425822573360756,-0.4553727086745063,-0.415230571879977,0.13656361234921105,-0.931089456488681,-1.4524692467776845,-1.1748883387667333,-0.4637161000667527,-1.471510856700362,13.6319,-71.18497,0.4325892275785877,-1.276516736773311,-0.09300336550435186,0.49026346732201675,0.33709838728876834,-0.11058391741247005,-1.381929649603093,-0.5001923529303818,0.1213549748205046,-1.2859727254449742,15.98484,-139.093,LR
1.2938164934188197,-1.5015301279274507,-0.4152075780679662,-0.5376896243516623,0.4283515590497233,-0.45609326041046233,-1.4532340966779513,-1.1754392805874427,-0.46361696075276165,-1.4524596882026457,13.45002,-70.80767,0.45209223194002957,-1.362793779900818,0.05071357777154595,0.3010809245876225,0.514875297518695,-0.3445364682648395,-1.3831372875968553,-0.4996066805004555,0.1220671660662531,-1.4314358323311422,15.84361,-138.115,LR
1.3009781137784413,-1.4659035799262434,-0.4690878466320028,-0.450218905325204,-0.009330440634841805,-0.6935913584495716,-1.454797664370745,-1.1763277467656819,-0.4644795402261948,-1.498236608851301,13.50187,-71.43001,0.3589088440889391,-1.3325982283728839,0.06762033315764283,0.49026346732201675,0.41790600639267833,-0.5316982698941193,-1.3831249787158317,-0.4974949056815363,0.12328944023125046,-1.381792301410002,17.11958,-137.7768,LR
1.2830747962011524,-1.4146891631039662,-0.44655617821218574,-0.1528185293872103,0.4526672610916643,-0.3967188331264725,-1.4551551587890745,-1.1763509443160276,-0.46464679566748546,-1.4585978570974285,13.67644,-71.053,0.4845981268390082,-1.242006272913982,-0.025372881234846746,0.5713418516546337,0.41790600639267833,-0.15737420691899087,-1.3816602218740204,-0.49758456258435546,0.12212491130239392,-1.314949184037898,15.44523,-139.168,LR
1.2794939860213415,-1.4057829821293153,-0.4612507969114685,-0.17031258152321505,0.8174023139179997,-0.9904640782242458,-1.455736557606251,-1.1758823537990453,-0.4653299801917923,-1.4691533354561497,13.73039,-71.22894,0.5192716139758641,-1.2290650698365289,-0.08032286612413998,1.0578114495669118,0.8057829591805669,-0.46151272836713864,-1.3790986069676607,-0.49797673090747796,0.11980547765070476,-1.2887683942977648,14.92426,-139.6239,LR
1.2615906684440523,-1.4325033491558727,-0.46027091490760064,-0.48520723877043076,0.963296207634459,-0.723278474865779,-1.4566726285173996,-1.1749753295805294,-0.4659679787702664,-1.4674043880041279,13.82346,-71.27715,0.5214383185838325,-1.345539431450336,-0.01691863786051891,0.6253939308555224,0.7411368003825853,-0.22756020816254038,-1.3795649767931115,-0.4985449879677918,0.11938201258566578,-1.4083437949664224,14.85766,-138.7899,LR
1.2490581994755967,-1.4302761198737326,-0.4112888525766581,-0.36274818629874545,0.9389803463249243,-0.3967188331264725,-1.4563734621357458,-1.1741042615650497,-0.4655599564235679,-1.4160117356546016,13.86361,-70.6488,0.5344412091213694,-1.328283316041488,0.14793304816991956,0.9497069371234225,0.5471983239886411,-0.08718872668755276,-1.3812827495226292,-0.4991345304798541,0.1202963121579085,-1.4900739493507045,14.93543,-138.1557,LR
1.2490581994755967,-1.3701555220768045,-0.45733207142016036,0.38949972232093666,0.5499299099918351,-0.1295334242195807,-1.455804293390775,-1.1732726293851574,-0.46569214217555593,-1.445661450810179,13.99679,-71.1295,0.4845981268390082,-1.216123866759076,0.07607457653197067,-0.34754491092732154,0.030029053604789798,0.02978753770543431,-1.3815699567465145,-0.49928675371053977,0.1200172101832229,-1.349743149812766,15.62466,-138.8226,LR
1.2580098582642414,-1.4414095301305225,-0.4651691211406947,0.004628684649788887,0.4526672610916643,-0.21859516237135293,-1.4562530429632567,-1.1729200266199031,-0.4661756992376763,-1.4726390588843483,13.84266,-71.35934,0.5041020188303591,-1.293772852182159,0.021124591642677437,-1.0772493077957381,0.49871373135467734,-0.18076979606493457,-1.3833971417517983,-0.49956733466540537,0.11961299353023175,-1.384732504602717,15.19715,-138.7899,LR
1.3117198109961088,-1.4325033491558727,-0.449495021699626,-0.34525413416274076,0.7930864526084651,-0.09984611335179824,-1.4571862915500506,-1.1731264848179797,-0.466250559535996,-1.4761996837023563,13.44731,-71.10751,0.49760101737654505,-1.267888679068887,-0.06764236674392714,-0.26646688063641644,0.7896214988746382,-0.017002817387317008,-1.3828432421057355,-0.4996415112396802,0.11840034357125832,-1.3163436727619806,15.1844,-139.2922,LR
1.2723323656617198,-1.4993038106966141,-0.4553727086745063,-0.7301249999539754,0.3797201549658411,-1.0498383110566605,-1.4586143876737945,-1.1733457016687463,-0.4670686274806986,-1.4818538023655028,13.65062,-71.33177,0.5106030202841729,-1.35416748915476,-0.07609487875569619,0.6253939308555224,0.514875297518695,0.263740114914887,-1.3825984321387101,-0.5002742696689287,0.11808274477247976,-1.37925759733763,14.90777,-138.9761,LR
1.263380706873075,-1.4993038106966141,-0.4357798837421292,-0.520195457629049,0.28245766533326394,-1.554522012454237,-1.459387704547127,-1.1735173635413043,-0.46783678855985517,-1.460074350744023,13.69438,-71.08536,0.5192716139758641,-1.3671086922322129,-0.11413810825889253,1.679411333991839,0.3694213079006255,0.263740114914887,-1.3811268370296634,-0.5012740408874151,0.11747641979299168,-1.3715317015563186,14.72842,-139.1218,LR
1.2615906684440523,-1.46812989715708,-0.4250039905341546,0.1445818236334616,-0.25248705173653707,-1.22796198181178,-1.4589888160382543,-1.1741599356858792,-0.46811127632036126,-1.4422450111675524,13.73726,-70.88941,0.4845981268390082,-1.362793779900818,0.14370679216403456,1.1388894798578169,0.22396752999873404,0.053182724139663635,-1.3826791236920866,-0.5013030665034358,0.11921840108326454,-1.494076747598046,15.55197,-137.8121,LR
1.313510582746897,-1.4102356165909895,-0.42402410853028677,0.21455839885462838,-0.49564368513569546,-0.9904640782242458,-1.4586143876737945,-1.1757466481295231,-0.46809778797832213,-1.4474703193740466,13.43639,-70.73454,0.469429419323412,-1.3412245191189411,-0.05496013600115647,0.3821589548785276,0.06235210442209648,0.006392358013714666,-1.3822524158166016,-0.5015597819517955,0.11901629275677034,-1.3662963465768474,15.4884,-138.7737,LR
1.3278330901443751,-1.3768353858206188,-0.4612507969114685,0.12708773712147425,-0.30111833955507594,-0.782653291052919,-1.459000105335676,-1.177166338210678,-0.46879108875915804,-1.4809858825111002,13.4157,-71.14518,0.462927530239689,-1.302400909886583,-0.03805338061505863,0.35513300378851115,0.46639059902664215,-0.2977460561672336,-1.3815945745085616,-0.5012263098744035,0.1183907193652344,-1.344600136217135,15.64189,-138.8508,LR
1.309929772567086,-1.4057829821293153,-0.4377392464877833,-0.7476192812631975,0.5012985059079529,-0.6045296202977994,-1.4600707070410903,-1.1774632668551024,-0.46882413519715505,-1.4582645459127812,13.48314,-70.90558,0.5214383185838325,-1.3498525768233651,-0.008464394486191075,0.7875505224999003,0.8542676576726197,-0.6486748364741308,-1.3819966646219992,-0.5016255733481088,0.11773627335562944,-1.4160054532633235,14.86467,-138.7306,LR
1.2794939860213415,-1.4302761198737326,-0.4387187272295695,0.08518920094561855,0.9146648035505769,-0.8420277183369087,-1.4599493470938159,-1.1770085948683273,-0.4690217394080359,-1.4533453971371282,13.6731,-70.98336,0.47809712538519433,-1.319655258337064,0.06762033315764283,1.5713069985692059,0.06366122706141598,-0.6954652485717367,-1.3815056770345022,-0.501758446168114,0.1177651459737012,-1.4189630541080651,15.57763,-138.3451,LR
1.3224622415355414,-1.4636763506441033,-0.4543932279327201,-0.8875723858708877,1.2064527502510891,-1.495147585170247,-1.461778213276002,-1.1769552405025323,-0.46990657464583374,-1.491869990717604,13.33336,-71.2232,0.4585932333938434,-1.2592623883228298,-0.10145760887867969,1.8145417975253448,0.06366122706141598,0.030582904374458573,-1.3778772924394282,-0.5017900518388921,0.1165717444267729,-1.2784475718024464,15.65427,-139.3226,LR
1.2687515554819087,-1.367929204845968,-0.47006732737378903,0.08518920094561855,0.8174023139179997,-1.138900243660008,-1.4618525344840225,-1.176074893466914,-0.47066731713686905,-1.4647940745693122,13.86994,-71.27905,0.48893242368485385,-1.3325982283728839,0.16906779092446025,1.3010458944813388,0.838106091508602,-0.9060223328692476,-1.3792722989554382,-0.501285006120134,0.1174282987628748,-1.4875807319870151,15.56722,-137.8515,LR
1.2991873420276532,-1.4080092993601518,-0.41618705880975243,-0.8700781045616655,1.0848743993089773,-1.6435839450575842,-1.4623850130123754,-1.1757988426178008,-0.4707442006864943,-1.4341715776136006,13.53509,-70.63783,0.4802647176230717,-1.3973060107185138,0.025350847648562443,0.7875505224999003,0.8219445253445844,-0.4381175989377638,-1.3804307014251058,-0.5009766895766267,0.11799612691826719,-1.4534411855845812,15.39843,-138.1873,LR
1.3457364077216643,-1.4458630766434992,-0.4641896403989087,-0.8875723858708877,1.0119272931831542,-1.7326456832093562,-1.4644500136656156,-1.1762941103176807,-0.47182326804966396,-1.5059926477659409,13.19722,-71.30309,0.47593042077722586,-1.3584806345277889,-0.04227963662094363,1.1118633517469445,0.9997214355745111,-0.2743506202601463,-1.3798562869773363,-0.5005103446792294,0.11779401859177024,-1.3878359780683085,15.4025,-138.6619,LR
1.2526390096554074,-1.4458630766434992,-0.4808436218438455,0.08518920094561855,0.963296207634459,-1.4060856525668997,-1.4649015855624519,-1.1752189038591592,-0.47307970711065434,-1.4862523864819888,13.89241,-71.57396,0.4845981268390082,-1.298085997555188,-0.07609487875569619,1.490228791257445,0.06366122706141598,-0.4147220097918201,-1.3777774537377916,-0.5010121653295407,0.11658136863279682,-1.329329012579417,15.30879,-139.1344,LR
1.2920264549897968,-1.46812989715708,-0.42304462778850055,0.08518920094561855,0.47698296313360533,0.1677400602512952,-1.464650398694836,-1.1756132622150353,-0.47252668508702994,-1.451711610571937,13.51511,-70.84575,0.45642652878587514,-1.362793779900818,0.05916782114587379,0.05664362295740344,1.3552749384600973,-0.9528125917279973,-1.3794719763587104,-0.49971439778657634,0.11687009481350634,-1.4376053073964197,15.79933,-138.0935,LR
1.2383165022579294,-1.5015301279274507,-0.4387187272295695,0.08518920094561855,0.014985261407099234,0.1677400602512952,-1.4644481321160447,-1.1756063029499317,-0.4723843830785118,-1.4538762607373934,13.87513,-71.14237,0.48893242368485385,-1.371421837605242,-0.11836609562733537,1.4361763580148443,1.2259830442964905,-0.5316982698941193,-1.378120734753006,-0.49951508855656834,0.11583068056295535,-1.3618224734438271,15.11151,-138.9998,LR
1.265171478623863,-1.4703562143879165,-0.4592914341658144,-0.6251602287915122,0.3310889101495525,0.1677400602512952,-1.465501799875329,-1.1756051430724144,-0.47250240607135857,-1.4763522952840897,13.74531,-71.33286,0.5041020188303591,-1.401619156091542,-0.0634143793754843,0.05664362295740344,1.3067908751165784,-0.18076979606493457,-1.3794063289932508,-0.4993757655996696,0.11574406270874277,-1.4178857379632612,14.95811,-138.6701,LR
1.2705423272326968,-1.5371575879799615,-0.44067808997522356,-0.11783019594198343,0.3310889101495525,-0.931089456488681,-1.4659674833939407,-1.175903231594356,-0.4730176607372716,-1.475802706336372,13.59784,-71.21442,0.5041020188303591,-1.336911373745912,-0.021144893866402954,0.5443159005646172,0.918913710612512,-0.2977460561672336,-1.3796525066137235,-0.4994692925846248,0.11535909446779948,-1.393617351665271,15.08873,-138.7805,LR
1.3188814313557307,-1.47926330741387,-0.449495021699626,-0.0653478103607518,0.6715081016663532,-0.8420277183369087,-1.4666203810947827,-1.1765098475358955,-0.47341219474193,-1.489332706137852,13.3339,-71.19127,0.5127706125220503,-1.293772852182159,0.033805091022890275,0.8956548579225336,1.3067908751165784,-0.2977460561672336,-1.379478814625946,-0.4991467857399517,0.11498375043287737,-1.3946852998435983,15.10079,-138.7666,LR
1.3206714697847535,-1.4948502641836376,-0.468107964628135,-0.0653478103607518,1.1578215054348004,-0.5154678821460271,-1.4677107390706858,-1.1765504432490004,-0.4740286119731406,-1.5111608436627069,13.31981,-71.4595,0.462927530239689,-1.3843630406826941,-0.13950083838187605,0.43621138812112803,1.1936603354008113,-0.08718872668755276,-1.3789645769298482,-0.49860948933672644,0.11450254013169757,-1.3508766737564302,15.4031,-138.9296,LR
1.308139000816298,-1.568330589468192,-0.46320975839504064,-0.695136895681966,1.0119272931831542,-1.5842093233220191,-1.4696139264608923,-1.1768589706685977,-0.4752243534949526,-1.51792537542976,13.30987,-71.53867,0.43475593218655595,-1.405932301464571,-0.14372709438776105,1.4632028401674284,1.6461835528447701,-0.1339790774896161,-1.3773302310606008,-0.49718336406958225,0.11435817704134418,-1.3539921917503488,15.73452,-138.7342,LR
1.3457364077216643,-1.4235962561299194,-0.4583115521619466,-0.3977365197439723,1.0605588565346298,0.1677400602512952,-1.4707296853559912,-1.177227811719094,-0.4750860979890467,-1.495382865899609,13.2201,-71.18491,0.5236059108217098,-1.392991098387118,-0.11836609562733537,1.7875156694144725,1.5168906001002733,-0.3445364682648395,-1.3760829311168736,-0.4973143018485195,0.11344387746910146,-1.3894245175265474,14.63871,-139.0363,LR
1.3045589239582525,-1.4748097609008932,-0.4445968154665317,-0.4677130720478173,0.9876117504088067,0.1677400602512952,-1.471565093365137,-1.1771605388230915,-0.4748729821848212,-1.478336245846635,13.43846,-71.1282,0.5214383185838325,-1.3412245191189411,-0.021144893866402954,1.490228791257445,1.613859785368201,-0.22756020816254038,-1.3754756929863747,-0.4970750017697721,0.11304928502213425,-1.4029491845568496,14.85652,-138.8297,LR
1.2830747962011524,-1.4458630766434992,-0.48672130881872583,-0.520195457629049,-0.25772704634674737,0.1677400602512952,-1.4729527361731232,-1.177873863496221,-0.4753443997391059,-1.5035798867467447,13.67732,-71.63222,0.46509512247756635,-1.2808316491047058,-0.1521813377620889,1.5713069985692059,1.613859785368201,-0.6720696594257931,-1.372190589406515,-0.49613973192022026,0.11104745016922365,-1.2702840581585872,15.4717,-139.477,LR
1.2938164934188197,-1.4614500334132667,-0.4808436218438455,-0.5551837910742758,-0.25772704634674737,0.1677400602512952,-1.4743460236298191,-1.1788168439177722,-0.47573421282405,-1.505633121094862,13.57212,-71.57829,0.5582785103286568,-1.405932301464571,-1.0151111863238729e-05,1.7064374621027114,1.3552749384600973,-0.3445364682648395,-1.3729961372868387,-0.49691052327898877,0.11111481961138839,-1.4741430532168522,14.33099,-138.5695,LR
1.3600589151191427,-1.4436367594126627,-0.5112123399841969,-0.520195457629049,1.2064527502510891,-1.7326456832093562,-1.476684789745516,-1.179273835659582,-0.4774580229367128,-1.5560558004463714,13.14305,-71.90318,0.5474432120289973,-1.3584806345277889,0.008444092262464597,1.652385205880967,1.4845678912045943,-0.6018841178988125,-1.3730357992368036,-0.49720851960346674,0.11064323351623251,-1.4406030566689185,14.53618,-138.7142,LR
1.2794939860213415,-1.425822573360756,-0.4543932279327201,-0.8175957189804339,-0.25772704634674737,0.1677400602512952,-1.4775982820618236,-1.1799013293964322,-0.4772651396455464,-1.4671843651715655,13.69599,-71.17767,0.36107554869690733,-1.35416748915476,-0.12681860763910538,0.9497069371234225,1.1451752134764024,-0.6252794005670436,-1.370959701304153,-0.4949342013348323,0.11042187677769046,-1.2981363607743235,16.76121,-138.5815,LR
1.3206714697847535,-1.4480893938743369,-0.49064003431003395,0.08518920094561855,0.9876117504088067,0.1677400602512952,-1.478510833603346,-1.1798607336833273,-0.4777338595314233,-1.5222677835038902,13.4044,-71.66537,0.5366079137293377,-1.414560359168995,0.004216104894021765,1.1118633517469445,1.322952229564418,-0.6720696594257931,-1.372436767026988,-0.49539345108164673,0.11049887042587912,-1.4750035678517708,14.61204,-138.4262,LR
1.3439456359708764,-1.4748097609008932,-0.46614900314456276,-1.2024663555984514,1.0605588565346298,-2.029518014080881,-1.4806821418072997,-1.1803687600358974,-0.47885878725752784,-1.5136082465746896,13.17475,-71.3836,0.538775505967215,-1.371421837605242,-0.07609487875569619,1.1388894798578169,1.161336567924242,-0.7422556606693426,-1.3722712809598925,-0.49603072460672076,0.10934396570304651,-1.4015493427090662,14.52136,-139.0058,LR
1.3654297637279764,-1.4770369901830334,-0.4455762962083179,-1.4823727939870488,1.1578215054348004,-2.3560780447233376,-1.483022789472566,-1.1810855643415787,-0.47983264555278765,-1.5022897103072974,12.99461,-71.10952,0.6037872957651723,-1.3325982283728839,-0.004238138480306072,1.3280723766339229,1.161336567924242,-0.9060223328692476,-1.3725653264510123,-0.49758456258435546,0.1078618379754114,-1.4342783410163154,13.80072,-139.1127,LR
1.3045589239582525,-1.439183212899686,-0.45733207142016036,-1.4823727939870488,1.133505644125266,-2.2670172788294405,-1.4849193914392778,-1.180645970762528,-0.48089822457391723,-1.4824717388314197,13.49891,-71.22583,0.5127706125220503,-1.401619156091542,-0.004238138480306072,0.760524394389028,1.0966907267005277,-0.9060223328692476,-1.373924773977399,-0.49777355159533393,0.10777522012119882,-1.4525900389161395,14.92697,-138.4332,LR
1.3385747873620426,-1.4948502641836376,-0.468107964628135,-1.4123970437894648,1.2064527502510891,-1.8217076158127035,-1.4872844992489558,-1.1809568179371601,-0.48194896641880336,-1.5178860522001114,13.18987,-71.44923,0.5192716139758641,-1.457698880732748,-0.11836609562733537,0.9226809860334061,1.0643674885144034,-0.4381175989377638,-1.374641424383663,-0.4983153630943847,0.10751536655856107,-1.4341873379133998,14.62586,-138.7168,LR
1.3528980280812861,-1.5015301279274507,-0.468107964628135,-1.3949019603739818,1.1821372074767416,-1.6435839450575842,-1.489838702790435,-1.1814451263719365,-0.482961940905979,-1.524702078672658,13.07724,-71.45345,0.4845981268390082,-1.3584806345277889,-0.06764236674392714,1.2740199433913224,0.8057829591805669,-0.8826267437233041,-1.3737907439395864,-0.49826763208137304,0.1066684364284831,-1.3775914375857272,15.25356,-138.8129,LR
1.3296231285733981,-1.4725834436700567,-0.4759454156107512,-1.3774080228245857,1.3037155584188533,-1.554522012454237,-1.4921690019330662,-1.181295502172207,-0.4839911014036015,-1.5170892886660265,13.29188,-71.51457,0.5149373171300186,-1.401619156091542,-0.004238138480306072,1.4632028401674284,0.06366122706141598,0.030582904374458573,-1.3742899374477666,-0.4993435149152023,0.10739987608627946,-1.4533715949764696,14.89862,-138.4417,LR
1.3224622415355414,-1.497076581414474,-0.4553727086745063,-1.3774080228245857,1.4739257912476278,-1.7623329940771388,-1.4941126426390303,-1.1809684167123329,-0.48481389026801763,-1.5002158780769832,13.29084,-71.29825,0.5474432120289973,-1.35416748915476,-0.16908809314818576,1.3821244558348116,0.06366122706141598,-0.5784889884694376,-1.3727116653698486,-0.5011682586423624,0.10547503488155752,-1.3428402968004667,14.30153,-139.5398,LR
1.3332039387532089,-1.5171170846972173,-0.4808436218438455,-1.097501584435988,1.8872920888902522,0.1677400602512952,-1.496239734428085,-1.180539262030938,-0.48512142446652073,-1.5328682026964975,13.2129,-71.65783,0.5171040217379868,-1.414560359168995,-0.05496013600115647,0.7334984432990116,0.8542676576726197,-0.1339790774896161,-1.373712787693103,-0.501622348279662,0.10572526423817134,-1.436292453808776,14.78638,-138.6221,LR
1.288445644809986,-1.5304768121848447,-0.5072940157549707,-1.097501584435988,2.081816749620219,0.1677400602512952,-1.498634947030887,-1.1789850261577783,-0.4859509575019578,-1.5435528859526375,13.54627,-72.04932,0.5517775088748428,-1.457698880732748,-0.18599657989684143,1.24699381528045,0.5795214563166764,0.1233686334398994,-1.3736526109414322,-0.5032084369417641,0.10520555711289585,-1.409492040000264,14.11706,-139.1437,LR
1.2794939860213415,-1.4748097609008932,-0.5357033711496684,-0.835090000289656,1.5225565582611358,-1.6435839450575842,-1.5008100183339796,-1.1777961517025628,-0.4879964645722651,-1.5544763173887912,13.71483,-72.32456,0.4932667205306994,-1.4188752715003898,0.042259334397218115,0.49026346732201675,0.15932139237237045,-0.32114133883546475,-1.3758627389118956,-0.5036754268528507,0.10637008604175238,-1.48289541046781,15.2277,-138.0603,LR
1.3636397252989536,-1.497076581414474,-0.4690878466320028,-0.9750429903107374,1.1578215054348004,-1.5842093233220191,-1.5026671077597176,-1.1785384733136242,-0.4888556719601892,-1.5286634259261394,13.00584,-71.4518,0.5366079137293377,-1.526721575409774,0.1267983054153789,0.11189848806574165,0.01386748744077219,0.6146685887440718,-1.3813101025915715,-0.5050041550529037,0.10978667918013334,-1.6223643570899053,14.65318,-137.3284,LR
1.3815430428762425,-1.4770369901830334,-0.45341334592885224,-0.4677130720478173,1.2793996971093187,-1.5248347015864543,-1.5036154087430733,-1.1794165005942077,-0.4893291127657795,-1.5157616615316765,12.88525,-71.20157,0.5626128071745025,-1.4275033292048138,-0.008464394486191075,0.8145764735899167,0.20780596383471647,0.263740114914887,-1.3831318169830673,-0.5066747405083102,0.11049887042587912,-1.4865837126977242,14.23982,-138.5226,LR
1.3385747873620426,-1.5126635381842406,-0.4730061708612293,-0.2053009149684419,1.1821372074767416,-1.7029581778899987,-1.5044188304095272,-1.179818978092705,-0.4902847617992858,-1.5264613250657777,13.17181,-71.54538,0.532273616883492,-1.392991098387118,-0.2578550515347903,1.1118633517469445,0.24012909616275166,0.3105303737736366,-1.3811063222279576,-0.5081453717200192,0.10899749428619618,-1.3194538376321985,14.33976,-139.6911,LR
1.3063489623872753,-1.5282504949540083,-0.49553824054312823,-0.2402892484136688,1.0605588565346298,-1.5248347015864543,-1.5055242407819909,-1.1796925514433212,-0.4916491075965938,-1.5389604944900213,13.40776,-71.88315,0.4932667205306994,-1.405932301464571,0.008444092262464597,0.8956548579225336,0.19164450352878787,0.07657789954069531,-1.3822086509062952,-0.5085349599883843,0.11003690853674716,-1.455403105420958,15.1948,-138.2773,LR
1.3582688766901196,-1.4325033491558727,-0.515131065475505,-0.08284186249675655,0.18519501643309316,-1.138900243660008,-1.5067594780747948,-1.1810786050764748,-0.49281584918302007,-1.5566962073292312,13.17464,-71.93513,0.5062687234383273,-1.462013793064144,-0.059188123369599305,0.8416024246799332,-0.034617126364809424,-0.8124415086740359,-1.383465524424152,-0.5095308611247346,0.11003690853674716,-1.4641193290869337,14.86954,-138.3779,LR
1.3690105739077871,-1.510437220953404,-0.5053346530093167,-0.17031258152321505,-0.3740653182668243,-1.138900243660008,-1.5083230457675885,-1.1834435953342157,-0.4940136139561377,-1.568323711829582,12.98553,-71.94305,0.538775505967215,-1.457698880732748,0.03803307839133311,1.0578114495669118,0.3855829799227321,-0.8358363316256981,-1.3856975348497678,-0.5105016067272006,0.11060473669213955,-1.5251074674111875,14.58212,-138.0751,LR
1.3708013456585753,-1.4614500334132667,-0.48280298458949955,0.1795701456200276,0.59856099554053,-0.5451549985622346,-1.508797196259267,-1.184655667339777,-0.49436835735178003,-1.5367228154695014,13.013,-71.55955,0.532273616883492,-1.32397017066846,-0.012690650492075118,0.7064724922089952,0.33709838728876834,-0.08718872668755276,-1.3857016378101092,-0.5112865883871347,0.11022939265721744,-1.3987670566655284,14.74463,-138.9158,LR
1.3690105739077871,-1.47926330741387,-0.47398605286509715,0.19706423213201496,0.5012985059079529,-0.1295334242195807,-1.5091358751818933,-1.18599068636217,-0.4943953340358592,-1.5314694192418283,12.99441,-71.47913,0.5279393200376464,-1.45338573535972,-0.09722962151023685,0.8956548579225336,0.4340675725566959,-0.06379355128652109,-1.386507185690433,-0.5122463687568817,0.11035450733552572,-1.445339232863282,14.54662,-138.6746,LR
1.326042318393587,-1.428049802642896,-0.4818231025856315,-0.3277598528535186,0.5499299099918351,-0.36703152225869007,-1.5096664721606754,-1.1864036027583231,-0.4945666359797621,-1.511483855906255,13.38258,-71.51045,0.5539442134828112,-1.3325982283728839,-0.07609487875569619,1.1388894798578169,0.12699828121595302,-0.4381175989377638,-1.385592225534344,-0.5136757190924727,0.10902636690426795,-1.3786406498311021,14.36376,-139.2494,LR
1.3672205354787643,-1.4725834436700567,-0.4485151396957579,0.337017336739705,0.3310889101495525,0.16733927047084038,-1.509282636048366,-1.1878952052455496,-0.49397786984973285,-1.504793289261637,12.99024,-71.13804,0.573448105474162,-1.3973060107185138,-0.04650762398938646,-0.1313364171029108,-0.13158639631920824,-0.1339790774896161,-1.3875561758843344,-0.515675906543135,0.10870876810548939,-1.447979661128747,14.07922,-138.8812,LR
1.3457364077216643,-1.4859431711576843,-0.5317850469204418,0.16207591014544892,0.7444552077921764,0.25640107259718076,-1.5106157139188168,-1.1883985920880504,-0.4948640539217361,-1.5793098731797,13.2129,-72.25626,0.5236059108217098,-1.4188752715003898,0.025350847648562443,0.11189848806574165,0.19164450352878787,-0.040398375885489425,-1.3899591429908356,-0.5164073520668534,0.10968081291387291,-1.4848814193608406,14.80669,-138.2579,LR
1.3296231285733981,-1.519343401928055,-0.5190497909668131,-0.012865401862198467,0.5012985059079529,0.25640107259718076,-1.511909279248295,-1.1890098475396589,-0.49560119181420126,-1.5681767178520833,13.27405,-72.15887,0.5257726154296781,-1.3671086922322129,0.029578835017005273,0.1659505141603736,0.6280060489506403,-0.555093399323494,-1.3915510916032237,-0.5166885780354084,0.10970968553194468,-1.4505638815953519,14.8414,-138.4907,LR
1.3332039387532089,-1.5260241777231707,-0.47496553360688337,0.1795701456200276,0.08793220826532888,-0.4264059495426798,-1.512161406890695,-1.1902346781979103,-0.4959154701837244,-1.5292270588844452,13.19546,-71.59825,0.545276507421029,-1.380049895309666,-0.04227963662094363,0.7064724922089952,0.6441675092565688,0.053182724139663635,-1.3920393438838268,-0.517425828682331,0.10964231608977722,-1.42811957219844,14.47274,-138.8362,LR
1.2973973035986306,-1.5015301279274507,-0.5053346530093167,0.24954661771324657,-0.9090099827783195,-0.5451549985622346,-1.5125179605342378,-1.1917529578680344,-0.49678142174266754,-1.5388996371108028,13.5179,-71.96691,0.5582785103286568,-1.444757677655296,-0.10145760887867969,1.6253592547909503,0.15932139237237045,-0.5316982698941193,-1.3918656518960493,-0.5189906318926846,0.1090071184922201,-1.4473346097227893,14.1562,-138.8492,LR
1.3439456359708764,-1.539383905210798,-0.49553824054312823,0.37200567018493197,-1.4196387700535205,-0.5748423094300169,-1.5130589060356565,-1.1947094856595897,-0.4975306991429684,-1.555718744192234,13.12089,-71.88225,0.5127706125220503,-1.496524256923473,0.012670348268349601,0.5713418516546337,-0.18007098895317206,-1.373927373278444,-1.3946132676712102,-0.5199252567285471,0.10949795299942382,-1.529612121005488,14.84484,-137.9124,LR
1.4191404497816091,-1.4659035799262434,-0.4916195150518201,0.1445818236334616,-1.2007979294788318,0.4345247044619853,-1.5140401341364897,-1.1983688992266188,-0.4974544900104443,-1.564274355443076,12.66234,-71.65574,0.5062687234383273,-1.380049895309666,0.13947880479559174,0.22000254025500554,-0.24471714775115347,-0.8124415086740359,-1.3973184861895132,-0.5204057919271099,0.110546991455996,-1.5125932024794286,15.23869,-137.8382,LR
1.2777032142705533,-1.4837168539268466,-0.4916195150518201,0.1445818236334616,-1.2251136315207727,0.6423354916333123,-1.5139959177215907,-1.1997085577590814,-0.4974160482356316,-1.5144808477659555,13.67055,-71.76815,0.5062687234383273,-1.371421837605242,-0.04650762398938646,-0.6178058379943328,-0.14774785662513684,-0.4381175989377638,-1.398739478121018,-0.5211146619717013,0.11019089583312448,-1.4058893877495635,14.98658,-138.743,LR
1.3994463604535319,-1.4302761198737326,-0.449495021699626,-0.2053009149684419,-0.3740653182668243,0.9985826386919763,-1.5142471045892065,-1.2021083443423408,-0.49623109738745097,-1.5081460627229264,12.80962,-71.05207,0.5561118057206885,-1.392991098387118,0.0845288199062985,0.0037940287285092252,0.15932139237237045,-0.7422556606693426,-1.4015595795288733,-0.522178289545433,0.11053736724997208,-1.5102164155562336,14.48717,-138.2303,LR
1.3940755118446981,-1.4102356165909895,-0.4994565647723545,-0.17031258152321505,0.06361650622338785,0.7017101133688771,-1.5152998315737054,-1.2037252136014338,-0.49605237685542586,-1.5503661036230654,12.92477,-71.66886,0.5496108042668746,-1.380049895309666,0.004216104894021765,0.32810705269849477,0.5471983239886411,-1.0229985929715468,-1.4028191883536243,-0.5228852245489564,0.10983480021025023,-1.454705861058916,14.47856,-138.6396,LR
1.3493172179014752,-1.4748097609008932,-0.45341334592885224,-0.6776426143727438,0.20951055920744074,0.34546284963926804,-1.5159997680138015,-1.2046937113283656,-0.4954480991320509,-1.5033991871438324,13.12266,-71.21581,0.532273616883492,-1.38867795301409,0.021124591642677437,0.24702902240758967,0.48255216519065974,-1.0229985929715468,-1.4043495925608942,-0.5233483443779069,0.10956532244158855,-1.4639413377238795,14.72036,-138.4534,LR
1.331413900324186,-1.5282504949540083,-0.47006732737378903,-0.5551837910742758,-0.17954006824676091,0.19702654808740347,-1.5169085564561835,-1.205883745661098,-0.49536986674822125,-1.5243884291028362,13.20061,-71.54019,0.5019353142223907,-1.380049895309666,-0.12681860763910538,0.3010809245876225,0.14315983679416172,-0.555093399323494,-1.4036671334908069,-0.5237837286182155,0.10823718201033078,-1.3681592336247574,14.922,-139.0496,LR
1.265171478623863,-1.4948502641836376,-0.42696295201772705,-0.415230571879977,-0.27680265343989424,-0.010784297419395971,-1.5165388319656494,-1.2060519279011042,-0.4946684729621619,-1.4514569458465882,13.67793,-70.96285,0.5192716139758641,-1.401619156091542,-0.03805338061505863,0.19297651835664678,0.06235210442209648,-0.5784889884694376,-1.4046737264278495,-0.524483568471156,0.1080446978898605,-1.4367929708748093,14.7954,-138.6139,LR
1.3690105739077871,-1.4703562143879165,-0.48770119082259367,-0.2402892484136688,-0.30111833955507594,0.16733927047084038,-1.5174758436515834,-1.2077604274840628,-0.49475614718541944,-1.5427130541194125,13.01954,-71.64069,0.5214383185838325,-1.328283316041488,-0.004238138480306072,-0.26646688063641644,0.2562906623267693,-0.15737420691899087,-1.4054820096150673,-0.5248679966300063,0.10785221376938749,-1.4025932018307405,14.89433,-138.8133,LR
1.308139000816298,-1.4748097609008932,-0.49455835853926017,-0.3977365197439723,-0.1309086960163975,0.04859022709038137,-1.5182698575701874,-1.2082197389809068,-0.49507986739436943,-1.5270493009757724,13.46434,-71.77247,0.6037872957651723,-1.4275033292048138,-0.17331608051662858,-0.34754491092732154,0.3209367152666617,-0.32114133883546475,-1.406550146957228,-0.5269991218596057,0.10634121342368061,-1.4116185683904428,13.48975,-139.4222,LR
1.3063489623872753,-1.4926230349014973,-0.5190497909668131,-0.22279508169105533,-0.32543402567025764,-0.04047149161623337,-1.5193649194200147,-1.2088460728402401,-0.49591749343503,-1.5533443701353147,13.47856,-72.12407,0.5582785103286568,-1.392991098387118,-0.08454912213002402,0.24702902240758967,0.4502290328626245,-0.48490785779651335,-1.4070780611877969,-0.5280130833792579,0.10549428329360537,-1.4192655055971655,14.23235,-139.0172,LR
1.3528980280812861,-1.4993038106966141,-0.4974976032887823,-0.04785375822474707,-0.1552243821315792,-0.010784297419395971,-1.5202069128526567,-1.2101323770069075,-0.49632619019883073,-1.5523088584212161,13.10948,-71.82997,0.5366079137293377,-1.431816474577843,-0.059188123369599305,-0.023231993169849537,0.20780596383471647,-0.6252794005670436,-1.4085975241674908,-0.5288690165450202,0.10526330234903666,-1.4532565028169,14.50794,-138.6358,LR
1.2991873420276532,-1.5126635381842406,-0.45635259067837414,0.057111093148342236,-0.009330440634841805,0.018902955112913938,-1.5197713341271664,-1.210471061241954,-0.49606788844877153,-1.4958744062702256,13.43994,-71.35334,0.5041020188303591,-1.392991098387118,-0.08032286612413998,0.32810705269849477,0.07851366741037141,-0.11058391741247005,-1.4086549656122676,-0.5292611848681426,0.10522480552494369,-1.4027230150804864,14.94415,-138.7874,LR
1.3332039387532089,-1.4592228041311266,-0.49064003431003395,-0.13532436266459685,0.23382626124938177,0.13765200413246861,-1.52025207004234,-1.210871218985417,-0.49619400444684175,-1.5295154292352067,13.29829,-71.67867,0.5474432120289973,-1.4275033292048138,-0.09300336550435186,-0.5907798869043164,0.2562906623267693,0.006392358013714666,-1.4104315474400104,-0.5302828865520668,0.10516706028880289,-1.4358253937658734,14.32633,-138.8512,LR
1.3600589151191427,-1.519343401928055,-0.514151584733719,-0.450218905325204,0.8174023139179997,0.25640107259718076,-1.5220226081878516,-1.2112203421181191,-0.49679491008470666,-1.575245536515233,13.04788,-72.07853,0.5301069122755238,-1.405932301464571,0.012670348268349601,0.35513300378851115,-0.11542483015519064,-0.5784889884694376,-1.4118169803818907,-0.5311117291428765,0.10544616226348574,-1.4710422563131111,14.71829,-138.4026,LR
1.3564781049393315,-1.4636763506441033,-0.5082734964967569,-0.835090000289656,0.8903492607762294,-0.15922054063578803,-1.5238411258474014,-1.2112690569738451,-0.49736142045037113,-1.5562327549797936,13.14023,-71.90334,0.5799491069279759,-1.3412245191189411,0.0845288199062985,-0.6448323201469168,0.5795214563166764,-0.3913268803624454,-1.4144633898019696,-0.5319663722812601,0.10558090114781796,-1.4810619656002548,14.22639,-138.5694,LR
1.3027681522074643,-1.4547701696694526,-0.510232859242411,-0.34525413416274076,-0.03364598340918933,-0.24828247323913535,-1.5245777525041149,-1.2113804052155042,-0.4980000934459465,-1.535375526720326,13.54623,-71.94307,0.5756148100821303,-1.3110289675910067,-0.012690650492075118,-0.6988843993478056,0.030029053604789798,-0.15737420691899087,-1.415602645123378,-0.5333183209741296,0.1048013404599047,-1.404393189675165,14.18583,-139.1479,LR
1.2973973035986306,-1.4948502641836376,-0.5082734964967569,-0.2577834151362822,0.18519501643309316,-0.5748423094300169,-1.525324727683465,-1.211277176116466,-0.49887413801011404,-1.54020479382821,13.52978,-71.99303,0.5106030202841729,-1.392991098387118,-0.3001245370438707,0.030820032924782408,-0.5356249152711143,-0.22756020816254038,-1.4135662091406922,-0.5346657545711735,0.10272251195880545,-1.2906232516601228,14.56088,-139.7918,LR
1.3296231285733981,-1.4837168539268466,-0.45635259067837414,0.03961700663635489,-0.34974971178543934,-0.21859516237135293,-1.5249079644536767,-1.21238137951292,-0.4985908828272823,-1.5008647113661964,13.25726,-71.28182,0.5171040217379868,-1.401619156091542,-0.01691863786051891,0.0848724838694685,-0.16390942278915446,-0.3913268803624454,-1.4147123027293353,-0.5352765825349843,0.10301123813951497,-1.4473413011274157,14.85277,-138.5085,LR
1.3296231285733981,-1.63958459752191,-0.46712848388634876,0.1795701456200276,-0.30111833955507594,0.25640107259718076,-1.5252174793579658,-1.2138497844498006,-0.4986421385270328,-1.545022825727623,13.06828,-71.70611,0.5691138086283163,-1.38867795301409,0.0845288199062985,-0.23944092954640006,-0.034617126364809424,0.263740114914887,-1.417520095256168,-0.5364472823811475,0.10430088174667705,-1.5117474089346885,14.31933,-138.3005,LR
1.2973973035986306,-1.3857424788465722,-0.553337234598473,0.3020291178810869,-0.009330440634841805,0.1677400602512952,-1.525649294984316,-1.2134565859714417,-0.4996571362655131,-1.5587438240731137,13.72333,-72.3874,0.4802647176230717,-1.3325982283728839,0.1267983054153789,0.27405497349760605,0.030029053604789798,-0.06379355128652109,-1.4186538799637884,-0.5358590298964638,0.10581188209238393,-1.4611911704225466,15.62038,-138.0159,LR
1.3027681522074643,-1.490396717670661,-0.4445968154665317,-0.08284186249675655,0.06361650622338785,0.13765200413246861,-1.5249775817877718,-1.213671163312139,-0.4990090214305099,-1.4811459842318155,13.43098,-71.15849,0.5214383185838325,-1.345539431450336,-0.008464394486191075,0.22000254025500554,0.15932139237237045,-0.3445364682648395,-1.4188398808325897,-0.536135095755504,0.10560977376588698,-1.412873875898302,14.86942,-138.751,LR
1.3582688766901196,-1.4547701696694526,-0.48378246533128555,-0.13532436266459685,0.11224791030726997,0.13765200413246861,-1.5253934042427746,-1.2145642690004472,-0.49892539370986455,-1.5314843995197907,13.11416,-71.567,0.5604461025665342,-1.3110289675910067,0.05916782114587379,0.1659505141603736,0.514875297518695,-0.46151272836713864,-1.4196002961491603,-0.5365833802695995,0.10529217496710844,-1.4381700619468634,14.48465,-138.7571,LR
1.3582688766901196,-1.5037573572095908,-0.44753565895397196,-0.3277598528535186,0.6471925588920058,-0.45609326041046233,-1.5255514544066677,-1.215098972535915,-0.4986367431902162,-1.5074532248672015,13.01462,-71.18916,0.573448105474162,-1.414560359168995,0.03803307839133311,0.19297651835664678,0.46639059902664215,0.030582904374458573,-1.421710585417987,-0.5374696290787612,0.10611023247911464,-1.5064250656950768,14.17224,-138.4101,LR
1.3564781049393315,-1.5260241777231707,-0.5004364467762223,-0.2577834151362822,0.3554046121914936,-0.6342167367140068,-1.526721778239301,-1.2158470935345629,-0.4994231135311263,-1.5622492091161366,13.05193,-71.91458,0.5756148100821303,-1.3671086922322129,-0.01691863786051891,0.3821589548785276,0.7411368003825853,-0.46151272836713864,-1.422289102826097,-0.5381978495340328,0.10555202852974618,-1.4429102529840028,14.12125,-138.8981,LR
1.2991873420276532,-1.4948502641836376,-0.47790477835640527,-0.43272462401598183,0.3554046121914936,-0.5154678821460271,-1.5270350562427315,-1.215618597663658,-0.49968343853249103,-1.5122927909161834,13.4857,-71.5985,0.5496108042668746,-1.466326938437172,-0.03805338061505863,0.030820032924782408,-0.09926326399117304,0.006392358013714666,-1.4242722003243478,-0.5393550040927197,0.10630271659958765,-1.493822474222254,14.32968,-138.4265,LR
1.3117198109961088,-1.5059836744404274,-0.5092533785006248,0.07460532403945655,-0.2281713608433276,-0.3967188331264725,-1.5275110882839795,-1.216147501811539,-0.5004671112049923,-1.549110569076406,13.41195,-72.01769,0.573448105474162,-1.371421837605242,-0.025372881234846746,0.19297651835664678,-0.42249405798108014,-0.06379355128652109,-1.424946453473753,-0.5410307496576409,0.10605248724297382,-1.4407127957047865,14.13412,-138.908,LR
1.309929772567086,-1.4347296663867093,-0.48966015230616605,0.07460532403945655,-0.08227738749307148,-0.24828247323913535,-1.527276835362495,-1.2163052451538896,-0.5006417852344052,-1.5142542710617857,13.49953,-71.63425,0.5041020188303591,-1.3843630406826941,-0.012690650492075118,-0.05025799736612271,-0.40633249181706255,-0.017002817387317008,-1.4257137070575583,-0.5414796791854258,0.10660106698631837,-1.4324890594192923,15.04776,-138.5187,LR
1.3009781137784413,-1.519343401928055,-0.48476194607307177,-0.2927716339949004,-0.2281713608433276,-0.24828247323913535,-1.5277039471149196,-1.2167367195903191,-0.5009432496789905,-1.5248181758268602,13.44744,-71.73082,0.532273616883492,-1.3757367499366369,-0.09722962151023685,0.27405497349760605,0.030029053604789798,-0.3445364682648395,-1.425254175499343,-0.5421421082443841,0.10580225788636001,-1.3911816803813655,14.57299,-139.0559,LR
1.2973973035986306,-1.4547701696694526,-0.47398605286509715,-0.18780686283243717,-0.1309086960163975,-0.18890785150357048,-1.5274772203917166,-1.2168237104041153,-0.5008636684609573,-1.4990352449201318,13.54782,-71.47493,0.5409422105751833,-1.362793779900818,0.10143730665495418,0.8956548579225336,-0.09926326399117304,-0.4147220097918201,-1.4261595620813026,-0.5426845647571243,0.10653369754415362,-1.4920853855813148,14.74503,-138.2359,LR
1.3457364077216643,-1.4592228041311266,-0.49259939705568795,-0.2053009149684419,-0.009330440634841805,-0.8123406019207013,-1.5280219289922743,-1.2175648721376595,-0.5014025277254395,-1.5361638638480573,13.20881,-71.69703,0.5257726154296781,-1.414560359168995,0.008444092262464597,0.3010809245876225,-0.034617126364809424,-0.6486748364741308,-1.4273589941543816,-0.5431328492712199,0.10682242372486316,-1.4734163666744569,14.75987,-138.3647,LR
1.3206714697847535,-1.4948502641836376,-0.452433865187066,-0.22279508169105533,-0.05796168545113042,-1.0201513890920282,-1.5277500450793882,-1.2181366917536802,-0.5014032021425417,-1.4962592121603648,13.30367,-71.25727,0.5517775088748428,-1.423188416873419,-0.04227963662094363,0.13892449226201484,-0.13158639631920824,-0.2743506202601463,-1.4284558522189312,-0.5442048620229131,0.10685129634293218,-1.4614307227081613,14.34163,-138.6571,LR
1.308139000816298,-1.4926230349014973,-0.4808436218438455,-0.012865401862198467,0.28245766533326394,-0.8717148347531161,-1.5276917170427138,-1.218033462654642,-0.5018672011087042,-1.5179937229479603,13.42673,-71.62726,0.5236059108217098,-1.3584806345277889,-0.13950083838187605,0.5172894184120331,-0.09926326399117304,0.4041115044465609,-1.4268953596358258,-0.5448331053563362,0.10628346818753981,-1.3534542028184087,14.64662,-139.2937,LR
1.3403655591128307,-1.4748097609008932,-0.4974976032887823,-0.11783019594198343,0.03930096344904031,-0.9607765729048884,-1.528247714940693,-1.2186435582287332,-0.5025901762420281,-1.5422027884013445,13.23259,-71.79234,0.5192716139758641,-1.423188416873419,-0.3001245370438707,0.19297651835664678,-0.14774785662513684,0.053182724139663635,-1.4249450858203057,-0.545785145561811,0.10464735316352738,-1.3149465074760476,14.4195,-139.6849,LR
1.3224622415355414,-1.4703562143879165,-0.46712848388634876,-0.11783019594198343,0.7687709098341176,-0.931089456488681,-1.528055796884537,-1.2182155634248555,-0.502755408432013,-1.5054936172563438,13.33782,-71.40039,0.5431089151831516,-1.45338573535972,-0.1479533503936451,0.05664362295740344,-0.0022940046225831097,-0.040398375885489425,-1.4254100879923088,-0.5467604062601022,0.10434900277679668,-1.4236162568850652,14.28305,-138.9611,LR
1.3493172179014752,-1.5148907674663807,-0.4592914341658144,-0.520195457629049,0.8660333994666948,-0.5451549985622346,-1.5285525259710566,-1.2183767863997579,-0.5026501993641042,-1.5178645180505415,13.07722,-71.36648,0.5279393200376464,-1.3757367499366369,-0.12681860763910538,0.8416024246799332,0.4017444402286607,0.02978753770543431,-1.4239617429918627,-0.5469622955448676,0.10371380517923683,-1.3740436548529624,14.58928,-139.1724,LR
1.3564781049393315,-1.4837168539268466,-0.5023958095218763,-0.2577834151362822,0.6471925588920058,-0.4857805712782447,-1.5295168201257596,-1.2186168810458355,-0.5032113143929521,-1.554966921492035,13.10839,-71.86326,0.5539442134828112,-1.2894597068091298,-0.09300336550435186,-0.8610404599296159,0.3209367152666617,0.5444830472170912,-1.4237442860937788,-0.5474950768522675,0.10287649925518277,-1.3382272424512238,14.38621,-139.5322,LR
1.3117198109961088,-1.47926330741387,-0.4857418280769396,-0.43272462401598183,0.8174023139179997,-0.36703152225869007,-1.5299928521670063,-1.217939512575742,-0.5034318487852998,-1.5210590623258613,13.42337,-71.66415,0.538775505967215,-1.466326938437172,-0.04650762398938646,-0.1853884963037995,-0.2608787139151711,-0.15737420691899087,-1.4257725161557826,-0.5484432469756063,0.10354056947081167,-1.485479630934415,14.4597,-138.4243,LR
1.3582688766901196,-1.46812989715708,-0.47496553360688337,-0.03035947691552494,0.06361650622338785,-0.5154678821460271,-1.5300709364741683,-1.218860455324465,-0.5034716393943168,-1.525952931882454,13.08799,-71.47725,0.5084363156762046,-1.3498525768233651,-0.11413810825889253,1.490228791257445,0.46639059902664215,-0.6252794005670436,-1.4233066369907168,-0.5481929816641401,0.10238566474797904,-1.3553184281472443,14.88785,-139.1599,LR
1.4280921085702536,-1.4703562143879165,-0.5023958095218763,-0.012865401862198467,0.3554046121914936,-0.931089456488681,-1.5311866953692672,-1.2206223092732185,-0.5041197542293201,-1.5790655073954516,12.60154,-71.7996,0.5084363156762046,-1.401619156091542,0.008444092262464597,1.165915784989545,0.33709838728876834,0.4041115044465609,-1.4232437249321521,-0.5478930502985941,0.1037041809732129,-1.457836100143012,15.00129,-138.3576,LR
1.3153006211759197,-1.508209991671264,-0.5053346530093167,0.057111093148342236,0.6958239629758879,-0.6045296202977994,-1.5315639460580817,-1.2201374804709941,-0.5048541944533774,-1.5472829751650858,13.37907,-71.96883,0.5344412091213694,-1.4490725899866908,-0.274763538283446,1.0307853214560394,0.676490641584604,0.7784355674216893,-1.42123327436496,-0.5483226294156986,0.10307860758167971,-1.3513209830236035,14.23294,-139.5114,LR
1.3224622415355414,-1.5260241777231707,-0.5503983911110327,0.03961700663635489,0.47698296313360533,-0.5451549985622346,-1.5329374772442914,-1.2200214927192659,-0.5063473539171635,-1.5963115523987894,13.34803,-72.5826,0.49760101737654505,-1.414560359168995,-0.05496013600115647,0.9767328882134388,0.19164450352878787,0.5678781766464659,-1.4208448607859927,-0.5481000996928742,0.10417576706837152,-1.429342760964094,15.04007,-138.5455,LR
1.4030271706333426,-1.4881704004398233,-0.5092533785006248,0.4769705559340038,0.28245766533326394,-0.6045296202977994,-1.5334342063308108,-1.221405226597385,-0.5069920966666566,-1.5801637490235145,12.76935,-71.93511,0.5777824023200077,-1.436129619950872,-0.04227963662094363,0.9226809860334061,0.20780596383471647,0.5912733060758407,-1.4215533052715748,-0.5492256485807832,0.1049842003743538,-1.4796447261004437,13.98746,-138.6936,LR
1.3994463604535319,-1.4703562143879165,-0.5014159275180086,0.35451150346231847,1.0119272931831542,-0.18890785150357048,-1.533812397794412,-1.2218854158895402,-0.5072328635720635,-1.567393062061215,12.81051,-71.80238,0.5496108042668746,-1.444757677655296,-0.1310465950075482,0.7064724922089952,0.7896214988746382,0.8720162383780447,-1.421501334440586,-0.549538480220116,0.10549428329360537,-1.4286307955118749,14.23003,-138.9501,LR
1.3600589151191427,-1.4703562143879165,-0.4612507969114685,-0.0653478103607518,1.0362431544926887,-0.723278474865779,-1.5336035457921247,-1.2218471399314699,-0.5070366081953871,-1.5139265774813746,13.05819,-71.30265,0.5366079137293377,-1.392991098387118,-0.021144893866402954,1.3010458944813388,0.7411368003825853,0.6614593073193903,-1.4211689946529478,-0.5494062524138,0.10639895865982416,-1.4457822038495307,14.60106,-138.6446,LR
1.2741231374125077,-1.5015301279274507,-0.48280298458949955,-0.22279508169105533,0.5012985059079529,-0.5748423094300169,-1.5334708965474297,-1.2209412755904716,-0.5072942355283441,-1.5087602541193543,13.66344,-71.68857,0.566947104020348,-1.54829083619165,0.025350847648562443,0.8956548579225336,0.4340675725566959,0.38071637501718614,-1.424212023572676,-0.5501596284029562,0.10866064707536977,-1.592629093212379,14.09869,-137.8142,LR
1.3224622415355414,-1.4347296663867093,-0.4818231025856315,0.3020291178810869,0.5256140486823004,-0.5748423094300169,-1.5327907163778198,-1.2205840333151483,-0.5073515609820124,-1.5115999530604571,13.3999,-71.52493,0.5517775088748428,-1.45338573535972,-0.04227963662094363,0.05784604508699409,-0.13158639631920824,0.28713524434426185,-1.4259051785401475,-0.5511323090464902,0.10944983196930694,-1.4830560041788363,14.30957,-138.5148,LR
1.3690105739077871,-1.5126635381842406,-0.5435408221322845,0.16207591014544892,0.5012985059079529,-0.1295334242195807,-1.534174596086666,-1.2211419344009615,-0.5084211865057542,-1.6052603959461242,13.01958,-72.44462,0.5192716139758641,-1.380049895309666,-0.008464394486191075,-0.40159734416992204,0.27245212263269786,0.3573207858712425,-1.4271483755235332,-0.5510142715413399,0.11015239900902879,-1.4370967606448344,14.85983,-138.5796,LR
1.372591384087598,-1.550517315467588,-0.4808436218438455,-0.17031258152321505,1.0119272931831542,0.018902955112913938,-1.5349187489416598,-1.221455101330628,-0.5083847679822472,-1.554868613417911,12.88467,-71.69694,0.5496108042668746,-1.3584806345277889,-0.02959913724073079,0.19297651835664678,0.48255216519065974,0.52108776454886,-1.4273672000750648,-0.5512561516748447,0.11036413154154966,-1.4208366474033776,14.45602,-138.8974,LR
1.351107256330498,-1.521570631210194,-0.47398605286509715,-0.1528185293872103,0.4283515590497233,-0.782653291052919,-1.5351896920797619,-1.2220048832738204,-0.5085506745893345,-1.5340329193080149,13.07045,-71.56735,0.5496108042668746,-1.470641850768568,-0.04650762398938646,0.43621138812112803,0.33709838728876834,0.7784355674216893,-1.4287581036307342,-0.5517811928179723,0.11170189617882861,-1.492335644114331,14.31395,-138.4449,LR
1.2794939860213415,-1.5237969484410316,-0.47496553360688337,0.19706423213201496,-0.17954006824676091,-0.9904640782242458,-1.5345358536041345,-1.2219468893979564,-0.5089296970006472,-1.5083801295660781,13.58681,-71.62492,0.5344412091213694,-1.54829083619165,0.05916782114587379,0.9226809860334061,-0.24471714775115347,0.7550399782757456,-1.4317587352936025,-0.5524907078762531,0.11473352107626628,-1.5995413141911552,14.56743,-137.5377,LR
1.3618496868699308,-1.5527436326984256,-0.47496553360688337,0.8093591507306157,0.06361650622338785,-0.2779695896553427,-1.533907416047704,-1.2230986477726187,-0.5089465574281973,-1.545737197732918,12.95389,-71.63116,0.5149373171300186,-1.4792681415146252,0.0803025639004135,0.11189848806574165,-0.08310169782715542,0.7550399782757456,-1.4347128667392715,-0.5525661744779067,0.11738017773275518,-1.554894924244797,14.92816,-137.6861,LR
1.3869138914850765,-1.4859431711576843,-0.47888425909819143,0.4769705559340038,0.13656361234921105,-0.07015880248401579,-1.5336966824958471,-1.2243953908369416,-0.5087327672068696,-1.5443121987918171,12.86024,-71.54501,0.538775505967215,-1.3973060107185138,0.025350847648562443,0.030820032924782408,-0.3255247668550635,1.105968758582643,-1.4360572700777403,-0.5532498889886135,0.11892967490255775,-1.4747907811846603,14.63113,-138.4184,LR
1.3564781049393315,-1.4636763506441033,-0.452433865187066,0.4944646080700085,0.40403601627537566,0.2267138200648709,-1.5325987983216651,-1.2248315047834402,-0.5078843504925777,-1.5026398743046514,13.08384,-71.17809,0.5041020188303591,-1.362793779900818,0.0845288199062985,0.24702902240758967,0.17548293736477025,0.5912733060758407,-1.4370159951441357,-0.552725492859175,0.12045992366030973,-1.4692583278397895,15.20915,-138.1691,LR
1.3743814225166209,-1.46812989715708,-0.4348004030003433,0.09209941513490824,0.06361650622338785,-0.010784297419395971,-1.5318188960248376,-1.2259821032805853,-0.506864631834382,-1.493167657296032,12.92978,-70.94844,0.5257726154296781,-1.444757677655296,-0.03382539324661579,0.11189848806574165,0.3855829799227321,0.1935541136713375,-1.4381730299603561,-0.5527196877359709,0.12110474546389077,-1.4723122849111474,14.66935,-138.4176,LR
1.3582688766901196,-1.4614500334132667,-0.46320975839504064,-0.0653478103607518,0.23382626124938177,-0.5451549985622346,-1.5316457934643837,-1.2265678414268135,-0.5066285858486895,-1.5131794361180386,13.08467,-71.31238,0.5647795117824707,-1.470641850768568,0.09720931928651134,0.1659505141603736,0.7734599327106206,0.14676380884093104,-1.4413788096402858,-0.5528796511309287,0.12280822993007065,-1.5762672706206053,14.30445,-137.8357,LR
1.3869138914850765,-1.4592228041311266,-0.4916195150518201,-0.11783019594198343,0.5499299099918351,-0.4857805712782447,-1.5322798756695237,-1.2272730469573216,-0.5068153993859381,-1.5507911690102274,12.9068,-71.66116,0.5647795117824707,-1.4188752715003898,-0.07609487875569619,0.8145764735899167,0.7411368003825853,-0.1339790774896161,-1.4410833964957193,-0.5532460189064774,0.12222115336263042,-1.4446058549162601,14.13153,-138.8809,LR
1.3690105739077871,-1.4725834436700567,-0.47790477835640527,-0.13532436266459685,0.4526672610916643,-0.5154678821460271,-1.532595975997309,-1.2277787535548572,-0.5068423760700173,-1.5337763820479213,13.00688,-71.51757,0.5777824023200077,-1.362793779900818,-0.0634143793754843,0.7064724922089952,0.49871373135467734,-0.15737420691899087,-1.4403202458722546,-0.5539458587594178,0.12111436966991469,-1.415404565127898,14.03589,-139.1393,LR
1.3528980280812861,-1.4191427096169429,-0.47496553360688337,-0.2927716339949004,-0.009330440634841805,-0.8420277183369087,-1.5326815865027512,-1.228342454028257,-0.506861259748872,-1.5131092160650925,13.19074,-71.38896,0.5496108042668746,-1.414560359168995,0.054939833777429996,0.5443159005646172,0.11083678915259772,-0.6720696594257931,-1.441671487477959,-0.554370922780697,0.12133572640845675,-1.5072400787785376,14.50957,-138.2411,LR
1.3582688766901196,-1.4725834436700567,-0.47790477835640527,0.07460532403945655,0.4283515590497233,-0.4264059495426798,-1.5326552448087687,-1.2287205740988913,-0.5068295621450795,-1.5297532411478487,13.08522,-71.52364,0.5409422105751833,-1.423188416873419,-0.16486183714230077,-0.023231993169849537,0.4017444402286607,-0.017002817387317008,-1.4412557208300494,-0.5547682512133342,0.12032518477598027,-1.3924289582036724,14.32011,-139.1703,LR
1.3851238530560535,-1.439183212899686,-0.5229681151960397,0.1445818236334616,0.20951055920744074,-0.15922054063578803,-1.5334756004213552,-1.229527848850921,-0.5073724679121737,-1.5760198296323749,12.97652,-72.03507,0.573448105474162,-1.392991098387118,-0.07609487875569619,0.4632375162320004,0.33709838728876834,-0.15737420691899087,-1.4407948216183875,-0.5554397104639435,0.11936276417361792,-1.4289305704391249,14.04494,-139.0365,LR
1.3332039387532089,-1.5482909982367514,-0.4612507969114685,-0.2577834151362822,-0.3983810203087654,-0.36703152225869007,-1.5338810743537217,-1.2306413312675129,-0.507383258585806,-1.5210581260584883,13.153,-71.46256,0.5344412091213694,-1.380049895309666,-0.1310465950075482,0.3010809245876225,0.6280060489506403,-0.8358363316256981,-1.4397157430486496,-0.5553881093687958,0.11758228605925213,-1.3771377603520774,14.49453,-139.1965,LR
1.2741231374125077,-1.6440381440348868,-0.47398605286509715,-0.18780686283243717,0.28245766533326394,-0.07015880248401579,-1.5341840038345156,-1.2301959383008758,-0.5075963743900316,-1.5315714723854423,13.4663,-71.83239,0.5214383185838325,-1.35416748915476,-0.008464394486191075,0.3010809245876225,0.33709838728876834,-0.9996030038256032,-1.4395352127936367,-0.5551430041668443,0.11668723489905726,-1.4191356923474197,14.85992,-138.7102,LR
1.3403655591128307,-1.4614500334132667,-0.449495021699626,0.21455839885462838,-0.7388002277523256,-0.5451549985622346,-1.5332385251755158,-1.2314346874893347,-0.507095956900362,-1.4933567833052979,13.20097,-71.14525,0.5496108042668746,-1.392991098387118,-1.0151111863238729e-05,0.7334984432990116,-0.06694013166313784,-0.7422556606693426,-1.4397198460089913,-0.5557654423770633,0.11620602459787746,-1.461769307782243,14.45891,-138.5977,LR
1.3654297637279764,-1.450316623156476,-0.49357887779747417,0.4769705559340038,-0.6172218768102138,-0.4264059495426798,-1.5329751082356942,-1.2328392991627648,-0.5072942355283441,-1.542630662590624,13.07742,-71.68226,0.5886177006196671,-1.5224066630783781,0.1986567770533278,0.49026346732201675,0.14315983679416172,-0.9528125917279973,-1.4446461337253336,-0.5567013572403045,0.11828485309897398,-1.678817061358579,14.06428,-137.1978,LR
