xa_S1,ya_S1,za_S1,xgb_S1,ybg_S1,zbg_S1,tilt_x_S1,tilt_y_S1,tilt_z_S1,tilt_accx_S1,tilt_accy_S1,tilt_accz_S1,xa_S2,ya_S2,za_S2,xgb_S2,ybg_S2,zbg_S2,tilt_x_S2,tilt_y_S2,tilt_z_S2,tilt_accx_S2,tilt_accy_S2,tilt_accz_S2,Posture
0.5895899941670614,-1.5088222219594662,-0.8679740876149665,2.284107089229677,-4.334481162211988,1.610853133042195,-1.4787310646706604,-0.7245436778263212,-0.875367674716551,-1.3953470111361745,19.88482,-0.8831571155535883,0.8331044307197965,-0.7386734047417683,-0.9574506071812167,0.9637301666681245,0.6745877285349311,-0.6155043732474317,-0.5649966488333475,-0.823079239056778,-0.9088821971922669,-0.6507761406106003,12.1525,-0.8708217581752161,LR
0.8424625470117659,-1.4718184858331351,-0.8530697416677602,2.6587895885880486,-5.703650849517625,3.084581997912255,-1.4762844233030192,-0.7322578260981508,-0.8735374820470535,-1.4761058919393515,18.54042,-0.8557265870794073,0.7731789833078634,-0.5693395711307737,-0.8719184537548513,0.38085355073666854,0.721444802849576,-1.6073717877801665,-0.5637866941772632,-0.8219213478211845,-0.9097249654420323,-0.5435608556288524,13.08302,-0.8858603025602811,LR
0.8953355137684297,-1.4126121038504946,-0.8158093128543364,2.08427740457179,-5.399392026174794,3.8025513345302957,-1.474095480233149,-0.7398153575061818,-0.8706926458992198,-1.4544720832776281,18.29854,-0.8139549204949406,0.8146659041364821,-0.440879668910747,-0.8367011501237996,0.32620867038998574,0.8151586445655197,-1.799345571725187,-0.5611976514185465,-0.8212620601373087,-0.9121799859956943,-0.4709932751646468,12.67787,-0.954495590007178,LR
0.8746456416615741,-1.3830089128591756,-0.8477468232658426,1.7845320595294778,-3.8476642547962365,3.5002491072984063,-1.472282637381648,-0.7452401357395363,-0.8684605777241307,-1.4641228087037321,18.50201,-0.8400779048422434,0.7478251831992417,-0.5167870319585246,-0.9423571826511782,0.7087215204338541,1.4945851479311592,-2.215290376991096,-0.5575157463898183,-0.8192441984605092,-0.9143296557342276,-0.4579155637514376,13.34724,-0.9236683888059265,LR
0.9045302801236592,-1.3854754244204208,-0.8626511692130487,0.7104432097020569,-2.6610486657532033,2.593338465430442,-1.471943351205818,-0.7496837553849736,-0.8669187030779096,-1.4878688291572368,18.3486,-0.8524962703145227,0.8054471128771474,-0.49927031613011946,-0.8517945746538382,0.015745164937781813,0.2547724722029528,-1.7033582606087554,-0.5565046629291276,-0.8189186924073822,-0.9159907641685471,-0.5075687989590446,12.74357,-0.9278907958778427,LR
0.8056806567778376,-1.5384244024995113,-0.8434883141224717,0.3607400344675322,-1.2310248222928106,1.2329739876931065,-1.4715871504699027,-0.7514925266159079,-0.8660965174105081,-1.469832722082638,18.62211,-0.8558044083469247,0.8123614423378097,-0.6394088261314279,-0.82160566477665,1.4191024594824455,2.361439488185359,-1.8313417612412521,-0.5549415725055228,-0.817391848336147,-0.9163327570814962,-0.6375356436986809,12.6102,-0.8539563270627558,LR
0.7803938722955357,-1.3706743341503977,-0.8850072520792662,-0.31368715548876636,-0.6225041862494105,0.17491270247965793,-1.4714538239374655,-0.7512100020772903,-0.8661348614954448,-1.4518144646851543,19.09483,-0.876051886996643,0.7893130480925055,-0.5109489239114006,-0.7914188157165729,1.6012516629462634,1.8694405147949344,-1.7353544501248206,-0.551322860193088,-0.8157436291264576,-0.9172243814616808,-0.5434858645564132,13.0073,-0.8903004842089728,LR
0.773496620523692,-1.3706743341503977,-0.8711677514451986,-0.9881148362783537,0.44240687700391085,-0.014026845443809456,-1.4716100348747243,-0.7497021808983616,-0.8660013945844143,-1.438800066771858,19.11618,-0.8639161742412912,0.8584581364219537,-0.5518228553023685,-0.7310430567793089,1.6376810264088775,1.96315497033757,-1.6073717877801665,-0.5491928939321478,-0.8151402015915296,-0.917932795352787,-0.6291823698491532,12.17766,-0.8830655288250031,LR
0.8125769669453434,-1.449615839976826,-0.8828779975075809,-1.437732853841822,0.47283315791922553,-0.46748167135625457,-1.4730756317574143,-0.7491847310640449,-0.8664253916774682,-1.481463770019627,18.77895,-0.8811462433674466,0.8446286278424486,-0.7503520125230494,-0.9071378182030153,1.0912342511701851,1.213443162413309,-0.1344805583335649,-0.5495869191043283,-0.8152119232642524,-0.9167236061248646,-0.6896507809429567,12.0558,-0.8515003137802397,LR
0.8033822005901144,-1.449615839976826,-0.8551989962394455,-1.4627118507434764,0.19899882187706658,-0.5808453159566738,-1.4740477214752614,-0.7489344511738564,-0.8664025327037559,-1.457212008714571,18.7966,-0.8568359072229854,0.8446286278424486,-0.7620306203043304,-0.8115447556346984,0.7815812018193813,1.2368716995706313,-2.3432726201918292,-0.5520179800723128,-0.8151815794796389,-0.916442683374944,-0.7496747327537658,12.14854,-0.8085987221555805,LR
0.8493588571792723,-1.5038881883857005,-0.8317780680600896,-1.41275418416236,0.22942470421134975,0.06154908263031562,-1.4751342332172148,-0.7498234821948332,-0.8657521580323225,-1.4700736927236724,18.42394,-0.8400022860634291,0.7685691156458736,-0.7328329050076113,-0.6756998132301317,0.38085355073666854,0.6043022705196368,-2.85520452700221,-0.5557333400684905,-0.813986448144747,-0.915135781886176,-0.7758886851976977,13.26549,-0.7297764239506593,LR
0.8539567111590556,-1.4619504186856036,-0.8669092423018278,-1.2129238450600879,-0.3790959318320505,-0.014026845443809456,-1.4764754583345714,-0.7510963780780634,-0.8656894802011754,-1.4887811459874885,18.50946,-0.8665408066127608,0.8492386843173675,-0.6686041497411142,-0.786386300328486,0.19870458588792528,0.8854442560374869,-3.0471787300911513,-0.5580844808364563,-0.8141685108524281,-0.9161861886902313,-0.6904921441947156,12.16965,-0.8448460906010054,LR
0.8677493314940677,-1.4718184858331351,-0.8786199244188018,-1.437732853841822,-0.6833561502084927,0.2882763965822308,-1.4782415374023063,-0.7528867237956097,-0.8657138139473859,-1.505302013804885,18.43028,-0.8774864413054129,0.8146659041364821,-0.6686041497411142,-0.8165752102056743,0.19870458588792528,1.1431577043980146,-2.375267971420052,-0.5598241391438213,-0.8135968063650506,-0.9166869640270475,-0.6640989447971478,12.57013,-0.8394985148824226,LR
0.8332668390521994,-1.457016385111838,-0.8754262605885694,-1.6375635201662868,-0.166113679323283,-0.08960252600716606,-1.4798404608174351,-0.7534487019539476,-0.8658435939271723,-1.4858498323459395,18.64275,-0.8744433360803112,0.8653726546955449,-0.7445115127888924,-0.7763253911865355,0.03477069648536241,1.119729320697365,-1.8953330924135792,-0.5638721902051893,-0.8139278294699254,-0.9162350448206541,-0.7609215645691256,11.93536,-0.8128453264026914,LR
0.8493588571792723,-1.5014206663731802,-0.8679740876149665,-1.41275418416236,0.6553892490869877,0.09933689816091709,-1.4814274445430897,-0.7535961060610525,-0.8658354826784361,-1.4967956510115101,18.47102,-0.8718451335732817,0.8792016912427276,-0.610213502521741,-0.9624831225693037,0.30799386935114137,0.6745877285349311,-1.9273282340698412,-0.5631268878747904,-0.8149464151488841,-0.9186900653743161,-0.5597753887306847,11.64483,-0.9553061953762839,LR
0.8677493314940677,-1.5556930147820538,-0.8892657612226371,-1.3378178479017822,0.5336851218783077,0.06154908263031562,-1.483626337354187,-0.7543884031367422,-0.8663243697613844,-1.5322421348130004,18.30488,-0.8957076303480666,0.835409836583114,-0.6277302183501468,-0.6958236923311449,0.16227486450269907,1.1665862415553372,-1.4153971655473034,-0.5656248587776737,-0.8144891894852756,-0.9179572234179985,-0.7023004945280973,12.46445,-0.8213022391341195,LR
0.8493588571792723,-1.479219030968146,-0.8754262605885694,-1.1629661784789715,1.2334838035055888,0.13712478794474908,-1.484924778584268,-0.7537220137358717,-0.8663759867987993,-1.4973142832965338,18.51648,-0.8761421890334801,0.8884211433473138,-0.7503520125230494,-0.8115447556346984,-0.09273376980081768,0.6043022705196368,-0.9354610291090669,-0.5696766270576471,-0.8156098406215707,-0.9170655990378137,-0.7531974841078694,11.60745,-0.8348768544197561,LR
0.8171748209251266,-1.4890860876644034,-0.8711677514451986,-1.1629661784789715,0.8379455395452656,0.09933689816091709,-1.4858570693372084,-0.7531047590373692,-0.8664076944074969,-1.4836572970071469,18.67344,-0.874665053276446,0.8331044307197965,-0.610213502521741,-0.7159496322492703,0.07120037014757367,1.0728722463827205,-1.2874145032026492,-0.5717322489464778,-0.815177441690828,-0.9165526096683918,-0.6766974449669639,12.4818,-0.8364738679827702,LR
0.8217726749049099,-1.4397477728292944,-0.874361415275431,-1.262881511641204,1.0813535946721098,0.09933689816091709,-1.4867823952712893,-0.7519685190451012,-0.8663936840687707,-1.4765134595667793,18.73425,-0.8721307229418135,0.8584581364219537,-0.6861208655695192,-0.665636843271069,0.1076300557405387,0.8151586445655197,-0.9674572186251319,-0.5754996500031322,-0.8151546838523678,-0.9152945643100465,-0.7725451807972296,12.17125,-0.7929189526277886,LR
0.8654508753063447,-1.4693509638206146,-0.8594570693282249,-1.437732853841822,1.385614012339068,-1.2988156426177881,-1.4887544339824168,-0.7505743218654,-0.8671340198625557,-1.489379110170796,18.42451,-0.8602262715003117,0.8815065306672579,-0.6335707180843038,-0.9423571826511782,0.4537132321221958,1.1431577043980146,-0.13556831476996456,-0.5747878026401826,-0.8158677627907857,-0.9158808378750992,-0.5894060075969766,11.62429,-0.9376785532451137,LR
0.8654508753063447,-1.479219030968146,-0.8583926600696778,-1.0630511725389318,1.6290224660469437,-1.4877552152923321,-1.4897305035967543,-0.7498726168972019,-0.8675631786593517,-1.4908348505042857,18.407,-0.8603312567951704,0.8722871729691362,-0.6919613653036762,-0.9423571826511782,0.6722917990486278,1.1900147787126594,-0.10357267600901197,-0.5744774148866248,-0.8164194679655772,-0.9157831256142571,-0.6330233759984868,11.70833,-0.9057140848095967,LR
0.7574046023966196,-1.4372812612680492,-0.8807491789904872,-1.0380723392483737,-0.08139237142469154,-2.054573438294428,-1.4899454180072509,-0.7489851213356734,-0.8686316513338499,-1.4549887322651955,19.10322,-0.880178616663784,0.8815065306672579,-0.5635014630836496,-0.9524201526102409,1.1094491715165669,1.0728722463827205,-0.29554696292673804,-0.5710482807230696,-0.8171173750116884,-0.9172488095268923,-0.5284785048158007,11.6505,-0.9747607242348426,LR
0.8700477876817909,-1.528557345803254,-0.8669092423018278,-1.0130933423467192,1.537744221172547,-1.676694540456108,-1.4912438592373334,-0.748714880472648,-0.8693675628101428,-1.5102939735043317,18.31071,-0.8729434412733428,0.8446286278424486,-0.656925541959833,-1.0329197906485192,1.5830357881395825,1.119729320697365,-0.9994527794253153,-0.5670559879407836,-0.8173208162948925,-0.9186412092438967,-0.5508295025038308,11.9765,-0.9432922978908678,LR
0.8493588571792723,-1.4767515089556256,-0.8562634054979925,-0.5135176582021349,1.750726393965108,-1.2988156426177881,-1.4915075273798393,-0.7476339170205445,-0.8696396583359459,-1.4823503039829384,18.49784,-0.8588166787301803,0.8607629758464842,-0.656925541959833,-1.0178263661184808,1.9473341950672185,1.377442769057893,-0.9994527794253153,-0.5625581534281523,-0.8176028755655048,-0.9200580370261091,-0.56302561155324,11.79306,-0.945421649308221,LR
1.0033808450738178,-1.4816855425293913,-0.9339783630096642,-0.48853882491157685,1.8724307204643038,-0.9587244613057622,-1.494177042950958,-0.7488300399313238,-0.8710473286848874,-1.6035644863154366,17.7183,-0.9230273002241802,0.8400197042451037,-0.6919613653036762,-0.8065122402466115,2.1659127619936505,0.2547724722029528,-1.2874145032026492,-0.5606716649858711,-0.8179897588193272,-0.919447335395845,-0.6955787337667623,12.25079,-0.8372360790014837,LR
0.7964849488182711,-1.457016385111838,-0.8977823434547872,-0.38862365536044063,1.7203005116308248,-1.0343003893798874,-1.4943601181895292,-0.746763311512955,-0.8718746760560301,-1.4877260317403274,18.87351,-0.895877956141124,0.9345180262443868,-0.5810181789120548,-0.8920443936729768,1.8926889567979237,1.7757272869056822,-1.1274358609138906,-0.5569377188966661,-0.8190386882828994,-0.9214260086779021,-0.5881988342357575,11.03688,-0.9685299516215597,LR
0.8194732771128498,-1.4693509638206146,-0.9318491084379787,-0.18879339806371653,1.8724307204643038,-1.4877552152923321,-1.495124258315739,-0.744764143310343,-0.8735441185232926,-1.5247839447256875,18.76473,-0.926757581924721,0.895335661620905,-0.6043753944746169,-1.022858881506569,1.7105409464094794,1.5648706059464537,-0.4235299605865292,-0.5524789151793922,-0.8197221130681723,-0.9231604013078523,-0.5282352410930097,11.38724,-0.9886499027980431,LR
0.8056806567778376,-1.4816855425293913,-0.8956530888831018,-0.16381446660650067,1.842004439548989,-1.2988156426177881,-1.4952625597187885,-0.7427972197561605,-0.8744828112180023,-1.4955015494207724,18.77842,-0.8961628113467555,0.9022501798944963,-0.6977994733508004,-0.9121703335911022,1.4008877777511382,0.9088727931948093,0.056405966279746624,-0.5515291658256922,-0.8208593153597111,-0.9227817662970894,-0.6617614181976961,11.36251,-0.9054237187072308,LR
0.8125769669453434,-1.4742849973943803,-0.9339783630096642,-0.31368715548876636,1.598596185131629,-1.4499670037445014,-1.4961162475160386,-0.7410882533894114,-0.8761367685740395,-1.5246431306062358,18.79718,-0.9294299348847622,0.9068598587435572,-0.7036375813979244,-0.9172007881620781,1.1094491715165669,1.2368716995706313,0.12039729745207368,-0.5513321532396013,-0.8218475572540561,-0.9223664891885096,-0.6649585985543797,11.29711,-0.906730366167879,LR
0.7482098360413901,-1.5038881883857005,-0.9052345164283901,-0.16381446660650067,-0.08139237142469154,-1.6389065764190456,-1.4960127702072807,-0.7404786759881543,-0.87743530575816,-1.4844575575310752,19.06979,-0.9092397209413299,0.8815065306672579,-0.7853854441798597,-0.9675135771402794,0.015745164937781813,1.3071573110425985,0.47235014282977417,-0.5542687559379312,-0.8224620188924802,-0.9210473736671394,-0.6956537248392014,11.52029,-0.875854770616235,LR
0.7849907846709815,-1.5260898237907345,-0.8935238343114164,0.2608248649163961,1.537744221172547,-1.2610276785807255,-1.4957590518060004,-0.7388265216210187,-0.8783496647066603,-1.4957851609571333,18.81574,-0.8996478826383258,0.9137743770171485,-0.7211566889133632,-0.887013939102001,1.1094491715165669,0.6043022705196368,1.1762560431571356,-0.554828197338056,-0.8239426576553267,-0.91950840555887,-0.6967054289039005,11.23116,-0.8899133294058148,LR
0.8493588571792723,-1.4471483179643065,-0.8764906698471164,0.760400876283173,1.2030579211713057,-1.2232394670328945,-1.4950128212140001,-0.73843651492097,-0.8786630538623962,-1.4907654350932873,18.571,-0.873709907342102,0.8861162095163189,-0.6744422577882382,-0.8065122402466115,-0.05630379786976296,-0.40312329267849745,0.7923074274072913,-0.557846578845706,-0.8254212275237677,-0.9177984409941313,-0.6950519672091391,11.68223,-0.8678334070383609,LR
0.8309674412601394,-1.4964876432506884,-0.8786199244188018,0.5355917038903427,1.689874430006026,-0.12739049004422862,-1.4945451833763461,-0.7373355904960295,-0.8786925493123477,-1.496356350624769,18.59358,-0.8815243372615185,0.8722871729691362,-0.6919613653036762,-0.9926699716293806,-0.2384527865800137,0.4871597381896977,0.7923074274072913,-0.5594263967530347,-0.8263163691698667,-0.9172854516247094,-0.6067600391897777,11.65781,-0.9249629376789791,LR
0.7321178179143177,-1.5310238573645003,-0.8839428428207196,0.33576136478807045,1.537744221172547,-0.6186332799937362,-1.4937133850097946,-0.7349141709449397,-0.879182173781545,-1.4688331401642742,19.08702,-0.8937415420988933,0.8768968518181971,-0.7561901205701734,-0.9725460925283663,0.05298553331646805,0.18258921551452517,1.1762560431571356,-0.5615768077163056,-0.8274880530348301,-0.9158075536794685,-0.6689148348881943,11.58745,-0.8893204986134841,LR
0.7597040001886797,-1.457016385111838,-0.9158803532322257,-0.2887084858093045,0.8075194579204666,-1.2232394670328945,-1.4937890030431173,-0.7333986724687662,-0.8802786671334967,-1.4860570869302028,19.09886,-0.9135213589806052,0.8492386843173675,-0.5635014630836496,-0.8668879991838756,0.30799386935114137,-0.23912368603391362,1.1762560431571356,-0.5609634666464008,-0.8281528577704537,-0.9150258555927282,-0.5640187860004251,12.14266,-0.9259913176248604,LR
0.7413135258738842,-1.506354699946946,-0.8967179341962402,-0.038920660098121944,0.07729461495218021,-1.1098758224324754,-1.4934527017896564,-0.7326908256627723,-0.8811207622296156,-1.476095975452066,19.09352,-0.9021873521132656,0.8515436181483624,-0.7561901205701734,-1.0077633961594181,-0.14737830415564204,-0.7076936618969973,0.8243031977794352,-0.5630190885352315,-0.8294969495025393,-0.9138533084626194,-0.6434965194323385,11.8646,-0.8908449206509075,LR
0.7918880364428248,-1.464416930246849,-0.8615863238999103,0.6105280401509208,-0.25739178469431884,-0.5808453159566738,-1.4922378383858776,-0.7331437862002302,-0.8809585372548815,-1.4608602843868517,18.84314,-0.8645593009426644,0.853848457572893,-0.7036375813979244,-0.9473876372221539,-0.038088961038657325,-0.9419787265568754,1.4002260166182212,-0.5645989064425609,-0.8308851776486081,-0.9122532701913285,-0.634429915869362,11.92557,-0.8933251311086217,LR
0.8194732771128498,-1.5088222219594662,-0.8988471887679257,0.8852948791248674,-0.7137822318332916,-0.16517845408129117,-1.4917781603412061,-0.734666961973649,-0.881355251056731,-1.5095542035528435,18.66033,-0.9012667118352733,0.835409836583114,-0.621892110303022,-0.6807302678011076,-0.34774207004322977,-0.6374082038817029,0.6003332243183495,-0.5683068320015272,-0.8312734401653676,-0.9098593198006916,-0.7057647162646867,12.48432,-0.8180235218948949,LR
0.8930361159763696,-1.4816855425293913,-0.849876077837528,0.8852948791248674,-0.8050602774171727,0.32606430393932734,-1.4910508342575355,-0.737555161197238,-0.8805367523205736,-1.4957117789512209,18.23964,-0.8519177499484478,0.8699823335446059,-0.6744422577882382,-0.7360735113502846,-0.12916350311679764,-0.5202656715517638,0.504345913201918,-0.5718772204720913,-0.8322685783743977,-0.9079050745838423,-0.7283333709678459,11.95795,-0.8322756580860554,LR
0.8424625470117659,-1.336137109585313,-0.8360365772034604,0.5106128705997846,-0.5312259413750136,0.25048853154947565,-1.4894190766963593,-0.7384856496233386,-0.879240427295199,-1.4315362398353375,18.74606,-0.8257764115286166,0.8238856394604619,-0.6802827575223952,-0.8467620592657501,0.1076300557405387,-0.0048387748307082735,-0.10357267600901197,-0.5734700486445394,-0.832305818473696,-0.9068546677797871,-0.6601719732720903,12.41593,-0.8505082295971554,LR
0.8493588571792723,-1.4126121038504946,-0.8541341509263071,0.5855492068603626,-0.3790959318320505,0.5527917240733622,-1.4884091779618518,-0.7397017335069549,-0.8783275431191969,-1.4659345509307662,18.60169,-0.8500404954103089,0.8123614423378097,-0.5810181789120548,-0.82160566477665,0.12584490450239808,0.11230372680789627,-0.4875212917588562,-0.5735815652027043,-0.8319506582674242,-0.9067813835841563,-0.5909424100567106,12.6437,-0.8813354307984035,LR
0.8194732771128498,-1.4200126489855067,-0.8456175686941572,0.16090969536525998,0.13814665862746867,0.4016401401869573,-1.4874679324418074,-0.7398675631274483,-0.8773866382657401,-1.4494721903883534,18.74522,-0.8444630598505748,0.8400197042451037,-0.6861208655695192,-0.7411060267383716,0.32620867038998574,0.25287470882485424,-0.4875212917588562,-0.5759773125939361,-0.8319513478988926,-0.9053401277367326,-0.7259903572167524,12.32373,-0.8140793823377489,LR
0.8884392036009239,-1.513755245081957,-0.8818135882490341,-0.13883574784370994,0.41198099466962773,0.32606430393932734,-1.4883365448508965,-0.7412402638748637,-0.8772907780533973,-1.525401741883565,18.25016,-0.8839272524368522,0.8838113700917885,-0.5576609633494926,-0.9423571826511782,0.38085355073666854,0.29973176319013156,-0.007585281063796196,-0.5742097751470304,-0.8328706266463888,-0.9067691695515506,-0.5296655586209996,11.63494,-0.9748212171728377,LR
0.7505082922291132,-1.4052115587154836,-0.7966468938183511,-0.13883574784370994,0.5032590402535088,-0.12739049004422862,-1.4863157524077584,-0.7399028786947753,-0.8757555398834154,-1.3822463397834965,19.09053,-0.8022589713173535,0.8469338448928371,-0.7211566889133632,-0.9876395170584049,0.28977906831229694,0.04201829948393653,-0.7434868260201251,-0.5746298208494497,-0.8334926742309661,-0.9072333027905533,-0.6252627145262846,11.96042,-0.897245073490573,LR
0.8930361159763696,-1.464416930246849,-0.8594570693282249,-0.038920660098121944,0.3815549130448287,0.023761118593253097,-1.486590365265614,-0.7412187674425773,-0.8753167950653851,-1.4990685098973127,18.27916,-0.8586001006743529,0.8722871729691362,-0.7036375813979244,-0.7914188157165729,0.07120037014757367,-0.09855277000332499,0.28037593974083225,-0.5775162410966048,-0.8343402313057394,-0.9056821206496782,-0.7223981019418508,11.85558,-0.8414342888981985,LR
0.8355652952399226,-1.4224791605467522,-0.8583926600696778,0.011036990121884641,0.44240687700391085,0.13712478794474908,-1.4861515816775182,-0.7412494766315575,-0.8747733414000258,-1.4660059496392208,18.6672,-0.8554688959011172,0.8492386843173675,-0.7620306203043304,-0.7209800868202462,-0.019874112276797952,-0.07512423284600259,0.12039729745207368,-0.5821293093860063,-0.8347002189322908,-0.9029461773460956,-0.799991913310043,12.18571,-0.7747831698174772,LR
0.8401631492197058,-1.4915536096769229,-0.8583926600696778,-0.21377211682650724,0.2902768674609476,-0.08960252600716606,-1.4862769484169747,-0.7418836213839989,-0.8744850233767494,-1.4837376205541584,18.52689,-0.8626519457255798,0.8261901012591343,-0.7445115127888924,-0.9977024870174677,-0.18380826415594306,0.06544683664125892,-0.8394741371365566,-0.5836199140468036,-0.8349505551553525,-0.9032271000960163,-0.6324362507728031,12.19259,-0.8801981635641345,LR
0.8447610031994891,-1.4323472276942835,-0.8562634054979925,-0.6384116610438292,0.2902768674609476,-0.16517845408129117,-1.4865117623099238,-0.7422889826785382,-0.8740669253736845,-1.470309705121064,18.59699,-0.8542523879739785,0.7616547861852112,-0.5810181789120548,-0.6756998132301317,-0.05630379786976296,-0.07512423284600259,-0.26355133925496665,-0.5851922975169224,-0.8335581892204725,-0.9013217110095898,-0.6522009709869485,13.44697,-0.7966816133709529,LR
0.8585536235345013,-1.4594828966730833,-0.8583926600696778,-0.43858115833046063,0.6249631674621887,0.09933689816091709,-1.4868291590550553,-0.7426728475407905,-0.8736267057831572,-1.4836007730296208,18.47784,-0.8585009886827029,0.8469338448928371,-0.7036375813979244,-0.8618575446129009,-0.27488250796523994,0.44030281733172577,-0.32754260755570547,-0.5877460266988871,-0.8337119770379458,-0.9007232234119315,-0.6774510137924524,12.0998,-0.856835790911227,LR
0.7895886386507648,-1.4964876432506884,-0.8488112325243893,-0.5135176582021349,0.47283315791922553,-0.20296641811835364,-1.4866908576520044,-0.7422720926245986,-0.8732919324262058,-1.45786947182159,18.78669,-0.8567133020184996,0.8745920123936667,-0.6919613653036762,-0.7712928757984475,0.38085355073666854,0.3231603003474539,-0.039581428665469154,-0.589705000903975,-0.8342788541050439,-0.8995506762818226,-0.7246203983568231,11.85369,-0.8401397400251494,LR
0.7688997081482462,-1.4816855425293913,-0.8626511692130487,-0.8632208334366595,0.6249631674621887,-0.2785420986817103,-1.48684209371865,-0.7412310511181694,-0.8732285172088097,-1.4565495873639092,18.94238,-0.868260216127161,0.8584581364219537,-0.5926967866933358,-0.7964492702875487,0.4172831528143574,0.3465887300851054,0.3443676900570806,-0.5895618879876642,-0.8344995361749604,-0.8990621149776121,-0.6271887047525941,12.08531,-0.8893204986134841,LR
0.8401631492197058,-1.5186892786557225,-0.8647804237847342,-0.8382420001461015,0.5336851218783077,-0.7319969245941553,-1.4877335905325606,-0.741702437169016,-0.8734231871784903,-1.494722113520143,18.48971,-0.8711902602654912,0.8768968518181971,-0.7094780811320814,-0.7360735113502846,0.32620867038998574,0.18258921551452517,-0.7754830155361901,-0.5922940436626926,-0.8351471001238718,-0.8981216344670047,-0.7582987060842944,11.85123,-0.818943014552392,LR
0.8493588571792723,-1.4175461374242604,-0.8615863238999103,-0.7383266669838691,0.5945372851279056,0.32606430393932734,-1.4880768566048812,-0.741750036411935,-0.8728701474918978,-1.4727154449364903,18.60249,-0.8572338235153861,0.895335661620905,-0.7094780811320814,-0.7511689966974343,0.30799386935114137,0.5340168125043424,-0.29554696292673804,-0.594955572184216,-0.8358919021098403,-0.8970956557281607,-0.7554472162810507,11.60315,-0.8336669956598932,LR
0.8102785107576208,-1.4274131941205177,-0.8786199244188018,-0.3636448220698826,-0.013983470489804029,0.023761118593253097,-1.488066906863654,-0.7418053129520996,-0.8728200052269799,-1.4722582948726355,18.82403,-0.875098943551002,0.8607629758464842,-0.6335707180843038,-0.9172007881620781,0.30799386935114137,0.3934457737084156,-0.26355133925496665,-0.5943403725050093,-0.8362939572559696,-0.8977552134888441,-0.5968008589597186,11.90823,-0.9179941512221808,LR
0.8424625470117659,-1.4323472276942835,-0.8637155784715956,-0.6883693276249454,0.2598507858361487,0.5527917240733622,-1.4884051980653612,-0.7421799650576582,-0.8722559047466553,-1.4750220198790625,18.61877,-0.8610000791980823,0.8192757717984719,-0.5343061394739633,-0.7411060267383716,0.16227486450269907,0.557445196204992,-0.45552573095867305,-0.5940950360770476,-0.835525018168604,-0.8977063573584247,-0.5979421865012354,12.67284,-0.8752982355866978,LR
0.9252201522305148,-1.486619576103157,-0.8551989962394455,-0.8132630032444471,0.7466674939613845,0.023761118593253097,-1.4896190664950155,-0.7437154245066692,-0.8718326450398493,-1.5134444415148873,18.05883,-0.8559115961304874,0.8792016912427276,-0.6802827575223952,-0.9071378182030153,0.2533493469270707,0.6277306542202864,-1.2874145032026492,-0.5945857089329709,-0.8361160323370993,-0.8988911185211358,-0.6442354558534484,11.66397,-0.9009472412957458,LR
0.8516573133669949,-1.4372812612680492,-0.8850072520792662,-0.6883693276249454,0.22942470421134975,-0.20296641811835364,-1.4903424126821958,-0.7441898814764135,-0.8720051934220666,-1.4958000356880603,18.58475,-0.8801977048992127,0.8976405010454355,-0.645246934178552,-0.9423571826511782,0.4901428341998846,0.37001725189676044,-1.2554183136865842,-0.5937586277932518,-0.8372111671090603,-0.9007476514771429,-0.6030434084776605,11.41726,-0.9398079046624703,LR
0.8493588571792723,-1.4274131941205177,-0.8775550791056633,-0.7383266669838691,0.3815549130448287,0.023761118593253097,-1.4908796987084358,-0.744455515961092,-0.8719130201409678,-1.4870249360892531,18.60519,-0.8725741573340839,0.8215802335971444,-0.6394088261314279,-0.8970748482439526,0.30799386935114137,0.6277306542202864,-1.1914271920862176,-0.5932475102349978,-0.8367346317643343,-0.9015293495638798,-0.6006985656760191,12.41364,-0.8880501469156294,LR
0.8838413496211406,-1.4545498735505915,-0.857328250811131,-0.9881148362783537,0.9292235851291468,-0.3541180267558354,-1.4917612457811196,-0.7448624127150798,-0.8716645209751251,-1.4915835452943291,18.34402,-0.8560099739592361,0.8515436181483624,-0.656925541959833,-0.8165752102056743,0.30799386935114137,1.002586788367426,-0.7114912652199419,-0.5940671569375062,-0.8364318835496674,-0.9013827811726184,-0.665776184149024,12.11544,-0.8633569296268757,LR
0.8378646930319827,-1.4446818064030602,-0.8221966405148009,-1.512669353713496,0.8075194579204666,-0.46748167135625457,-1.4921522706113293,-0.7446950476351379,-0.8708578204189479,-1.4446547608651295,18.57329,-0.8255510235179762,0.853848457572893,-0.7386734047417683,-0.7109171168611834,0.38085355073666854,0.5340168125043424,-1.0954396713978256,-0.5972509546731004,-0.8364063671853333,-0.8999170972599831,-0.7883372032226348,12.15161,-0.7839780963924173,LR
0.8700477876817909,-1.506354699946946,-0.8935238343114164,-1.1130088391200479,0.6249631674621887,-0.3541180267558354,-1.4937332844922486,-0.7453921462249886,-0.8713791524968437,-1.5252252284098862,18.37789,-0.8943068475327481,0.8653726546955449,-0.7678687283514546,-0.8970748482439526,0.4537132321221958,0.7683017237075479,-1.3514058343749762,-0.5986504874780636,-0.8367008398223783,-0.9000636656512446,-0.7146703633795001,11.79942,-0.8492862722496969,LR
0.8493588571792723,-1.4890860876644034,-0.886072097392405,-1.3877755144828983,0.898797304213832,-0.42969370731919193,-1.4952347004433548,-0.7452969477391498,-0.8717898766374195,-1.5075203320106176,18.51262,-0.8866686167095977,0.8976405010454355,-0.616051610568865,-0.9322942126921154,0.28977906831229694,0.6511593448342816,-0.32754260755570547,-0.5977676480592624,-0.837558741369179,-0.9013705671400126,-0.5851498069734049,11.44219,-0.9498376337817146,LR
0.9826909729669623,-1.5088222219594662,-0.8339073226317749,-1.3378178479017822,0.7162412130460698,-0.6186332799937362,-1.4969958046404763,-0.7479717180993266,-0.8712796053532569,-1.5241701141627237,17.67847,-0.8371214308394721,0.8630678152710146,-0.651087433912709,-0.9624831225693037,0.5812173166242562,0.9088727931948093,-0.8394741371365566,-0.5963699738636012,-0.8377318388677697,-0.9026041844331465,-0.5877031615374386,11.82386,-0.9282295563306012,LR
0.7803938722955357,-1.4890860876644034,-0.874361415275431,-1.3128388510001276,0.44240687700391085,-0.6564212440307988,-1.497567914761011,-0.7472515876177406,-0.8716092170064661,-1.4714401846715937,18.88058,-0.878974589505963,0.8768968518181971,-0.66276604169399,-0.8920443936729768,0.5630025155854118,0.8151586445655197,-0.8714699075087005,-0.5959740900821181,-0.8380821716537622,-0.9033736684872812,-0.6376837967930126,11.71723,-0.90230228310679,LR
0.8171748209251266,-1.521156800668243,-0.8615863238999103,-1.187945175380626,0.10772069657697918,-0.6186332799937362,-1.4983390197060789,-0.747719902749689,-0.8717537447112288,-1.483865543240139,18.60884,-0.8695288496202793,0.8745920123936667,-0.7036375813979244,-0.9473876372221539,0.38085355073666854,0.44030281733172577,-0.1344805583335649,-0.5960540102821356,-0.8387393904432326,-0.9034958088133311,-0.640224348003215,11.66854,-0.9032459729394816,LR
0.8355652952399226,-1.4742849973943803,-0.8690384968735132,-0.8132630032444471,0.22942470421134975,-0.8453605691945745,-1.4988016826731194,-0.7480868775580024,-0.8720133046708027,-1.4859480055700631,18.59364,-0.8704773880885133,0.8561532969974233,-0.7153161891792061,-0.9775765470993422,0.39906835177551303,0.37001725189676044,-0.7754830155361901,-0.5958514218681372,-0.8391662723222273,-0.9041187244762009,-0.6285001339950094,11.86007,-0.9005600864925912,LR
0.8263705288846931,-1.4718184858331351,-0.8807491789904872,-0.8632208334366595,0.47283315791922553,-0.24075413464464776,-1.4993917023278622,-0.7479609698831834,-0.8722153485029716,-1.4904748820158271,18.66265,-0.8810221698371593,0.8653726546955449,-0.66276604169399,-1.1134214895039087,0.4901428341998846,0.7683017237075479,-1.0634445297415636,-0.5933107029512912,-0.8396510832445754,-0.906549316964655,-0.5199404968609946,11.63741,-0.9808221166217462,LR
0.8240711310926331,-1.4693509638206146,-0.8882009159094986,-0.8632208334366595,0.32070274979523083,-0.5808453159566738,-1.500003611413302,-0.7479594344237344,-0.8726658915009831,-1.4945297336668066,18.68834,-0.8875055624168641,0.8377142983817862,-0.6802827575223952,-0.8014817856756357,0.32620867038998574,0.6277306542202864,-1.031448549797459,-0.5945466781376135,-0.8392945437753664,-0.9060973977582615,-0.6883027706895949,12.29157,-0.8396074021708102,LR
0.7964849488182711,-1.5112887335207115,-0.8882009159094986,-1.0380723392483737,0.7770933762956678,-0.3919059907928979,-1.5007777012807375,-0.7471579245913511,-0.8731606776739214,-1.4931047344439017,18.77087,-0.8929435070253867,0.8699823335446059,-0.8087426597424219,-0.8719184537548513,0.5265725555851108,0.5105882753470201,-0.9034654683088837,-0.5967844437381125,-0.8397752169089034,-0.9051935593454676,-0.761431869671823,11.74551,-0.822487900718781,LR
0.8240711310926331,-1.4693509638206146,-0.8786199244188018,-0.9131783364066794,0.6553892490869877,-0.769784888631218,-1.5013110074104885,-0.7467986270802827,-0.8735293707983163,-1.487411679093382,18.677,-0.8789562354334357,0.895335661620905,-0.7269947969604873,-1.0530457305666447,0.4719280331610402,0.8385871817228422,-0.16756394430975086,-0.5960763135937689,-0.840675185975282,-0.9060973977582615,-0.6090774462332094,11.29634,-0.9421792278317969,LR
0.7918880364428248,-1.4520823515380723,-0.8967179341962402,-1.1130088391200479,0.7162412130460698,-1.0720881059061813,-1.5018811275827773,-0.7457345536821182,-0.8742969898833078,-1.483960741518079,18.90611,-0.8945983102044895,0.8584581364219537,-0.6861208655695192,-0.9725460925283663,0.30799386935114137,0.04201829948393653,-0.3595382102702809,-0.5956822884215877,-0.8412910268766428,-0.9065737450298664,-0.6088158920049453,11.85218,-0.9133966879347124,LR
0.8309674412601394,-1.464416930246849,-0.8605219146413633,-0.7133479973044072,0.3815549130448287,-0.42969370731919193,-1.5019746551503081,-0.7458712095730798,-0.8741546743372911,-1.4754861114840176,18.62537,-0.8620323122370434,0.8838113700917885,-0.7678687283514546,-0.8467620592657501,0.32620867038998574,0.3465887300851054,-0.3595382102702809,-0.5976784348127303,-0.8419799687136637,-0.9056210504866532,-0.7467592261813664,11.6205,-0.838288656122563,LR
0.8677493314940677,-1.4446818064030602,-0.9158803532322257,-0.9131783364066794,0.41198099466962773,-0.6186332799937362,-1.503678050848315,-0.7460017236262457,-0.8752423190542566,-1.52699631303905,18.51872,-0.9080356937835098,0.9022501798944963,-0.7269947969604873,-0.9021073636320396,0.5812173166242562,0.25287470882485424,-0.8074785763363734,-0.5983661202547446,-0.8431130332163915,-0.9059386153343909,-0.6901354793379916,11.3573,-0.887699287875272,LR
0.8930361159763696,-1.4718184858331351,-0.8754262605885694,-1.0880298422183936,0.35112883142002976,-0.3163300627187728,-1.5047605826937778,-0.7472439103204952,-0.8752452685992517,-1.5128871349294513,18.28579,-0.8736401618664963,0.8446286278424486,-0.5284656397398063,-0.8819814237139141,0.4901428341998846,0.44030281733172577,-0.9674572186251319,-0.5958421288216232,-0.8429323497716473,-0.9075875097361046,-0.5267665135035259,12.2035,-0.9460749730385468,LR
0.8447610031994891,-1.4915536096769229,-0.874361415275431,-0.8132630032444471,0.41198099466962773,-0.9965121778320561,-1.505327717943699,-0.7476400588583403,-0.8756264972898768,-1.497514596339698,18.52031,-0.876672254648082,0.8815065306672579,-0.656925541959833,-0.7209800868202462,0.6358618390483268,0.4637312010323753,-0.5835086028752877,-0.5970799626172482,-0.8432440631954046,-0.9067447414863392,-0.7258861013355562,11.83756,-0.840188134375542,LR
0.8332668390521994,-1.479219030968146,-0.890330170481184,-1.1379875087995097,0.6858153307117867,-0.8453605691945745,-1.5062649835672528,-0.7474005271842944,-0.8762023959501828,-1.5020345312443615,18.62332,-0.8900714617562439,0.8630678152710146,-0.7036375813979244,-0.8920443936729768,0.32620867038998574,0.7448731865502255,-0.39153377107046405,-0.5978382752127666,-0.843344749389804,-0.9064760327690242,-0.666121874702464,11.86775,-0.8763871084705742,LR
0.8493588571792723,-1.5112887335207115,-0.8839428428207196,-0.7383266669838691,0.7770933762956678,-0.9209367447794681,-1.5069644503754884,-0.7475878532370737,-0.8767038185993602,-1.5109762278295633,18.47342,-0.8870841529116266,0.8515436181483624,-0.6686041497411142,-0.7109171168611834,0.6540769980097835,0.6277306542202864,-0.7114912652199419,-0.5991151398037489,-0.8430116573905236,-0.9052790575737041,-0.7317921055527943,12.22065,-0.8160151563535283,LR
0.8976339699561529,-1.4742849973943803,-0.8786199244188018,-0.5634753247832511,0.6858153307117867,-0.769784888631218,-1.5076678970802146,-0.7484676715013568,-0.8769537925376999,-1.5176827481806463,18.25985,-0.8765731426564319,0.8838113700917885,-0.59853489474046,-0.9926699716293806,0.7451512418190803,0.5808738868189872,-0.5835086028752877,-0.596182254324025,-0.8436233605030736,-0.9071966606927362,-0.5361221070529755,11.56321,-0.9745187524828728,LR
0.7964849488182711,-1.5458259580857974,-0.9073637710000756,-0.588453994462713,1.2943359667551868,-1.5255429318186262,-1.5083255749752977,-0.7471778855641881,-0.8782722391505379,-1.5149507559335327,18.7354,-0.9135103465370882,0.9022501798944963,-0.8262593755708277,-0.9574506071812167,0.015745164937781813,1.0494437092253979,-0.39153377107046405,-0.5990909778828128,-0.844376438066664,-0.9066226011602857,-0.7385211825163183,11.25274,-0.8622680567429993,LR
0.8056806567778376,-1.5162227670944772,-0.9297198538662934,-0.663390330723291,1.2334838035055888,-1.5255429318186262,-1.5092678154694636,-0.746009400923491,-0.8798428718604615,-1.5282259574624335,18.75982,-0.9300972889618714,0.8815065306672579,-0.6977994733508004,-0.8417316046947755,0.015745164937781813,0.557445196204992,-0.10357267600901197,-0.6010257901669654,-0.8447984925253793,-0.9059630433996023,-0.6934497189297028,11.69186,-0.8683536463050976,LR
0.773496620523692,-1.4816855425293913,-0.8839428428207196,-0.33866615239042075,0.9596496667539456,-1.4499670037445014,-1.5088489313638205,-0.7445123279607055,-0.8805374897068216,-1.4740283878530704,18.94261,-0.8870026608296036,0.9091646981680875,-0.7620306203043304,-0.8316686347357127,0.4172831528143574,-0.4499802135364694,-0.13556831476996456,-0.6033025865628225,-0.8463887826917156,-0.9049004225629413,-0.7573969841644742,11.32148,-0.8468060617919827,LR
0.9229216960427922,-1.4915536096769229,-0.9169447624907724,-0.16381446660650067,1.1117798755874246,-1.2610276785807255,-1.510018025957956,-0.7453552951982121,-0.8816317709000272,-1.5605616392025081,18.13435,-0.9117123815922693,0.8792016912427276,-0.7503520125230494,-0.8618575446129009,0.08941521890943306,0.04201829948393653,-0.4875212917588562,-0.6055979690517063,-0.8471384120979634,-0.9042286507696488,-0.7235741814437664,11.67226,-0.8502904550203801,LR
0.8102785107576208,-1.5754291490771166,-0.9158803532322257,-0.5634753247832511,1.2943359667551868,-0.9587244613057622,-1.5109741960898395,-0.7444831542311743,-0.8828101141255944,-1.5333359233605752,18.61982,-0.9235360751146493,0.8815065306672579,-0.8437760913992328,-1.1335474294220342,2.275202045456867,1.705441521977042,-1.511384476663735,-0.6014346842135687,-0.8472459946070477,-0.9056943346822839,-0.6544342417052043,11.32988,-0.9117391814337034,LR
0.8332668390521994,-1.5581605367945741,-0.8839428428207196,1.1101038879066014,-0.5008000590407304,-1.0343003893798874,-1.5100518550781261,-0.746076961139247,-0.8833756893784172,-1.515199659764395,18.48516,-0.8925646789684146,0.8699823335446059,-0.7153161891792061,-0.8065122402466115,3.9509718539430954,2.5254386344599244,-4.007049745535861,-0.594909106951648,-0.8460756900050215,-0.9078317903882116,-0.7228846293874336,11.86261,-0.8407688665802772,LR
0.7895886386507648,-1.4545498735505915,-0.837100986462007,0.9852100486760036,-0.9876165678754506,-0.42969370731919193,-1.507738540242924,-0.7470918998350434,-0.8826464143783633,-1.4394129056860927,18.84251,-0.8418472374339193,0.8930308221963745,-0.7036375813979244,-0.82160566477665,4.114906375675607,1.8694405147949344,-2.4392607695961033,-0.5879207359733447,-0.8457722521588862,-0.9090409796161341,-0.7121078635627303,11.56454,-0.8631391550501004,LR
0.8332668390521994,-1.464416930246849,-0.8594570693282249,1.0351675516460235,-1.322302867876692,-0.08960252600716606,-1.506152551491391,-0.7491739828479017,-0.8821671133166493,-1.4755932095466997,18.61135,-0.8609912692432683,0.8630678152710146,-0.7386734047417683,-0.7058866622902076,3.84168257047988,1.0728722463827205,-2.5032514720525487,-0.5839414534561781,-0.8453812311162527,-0.9085890604097406,-0.7938609358754869,12.04065,-0.7864099124997389,LR
0.8907376597886465,-1.4274131941205177,-0.870103342186652,1.2849555573294118,-0.9571904862506517,-0.24075413464464776,-1.5049028639933193,-0.7514925266159079,-0.8818124305309806,-1.4977872997400459,18.3654,-0.8642472817096927,0.8192757717984719,-0.651087433912709,-0.8618575446129009,3.4773853566276176,1.658584754575743,-2.983188027634706,-0.5769177689011227,-0.843977831077877,-0.9103478811049021,-0.6277099841585749,12.47362,-0.8677366183375688,LR
0.9574041884846605,-1.4298807161330382,-0.9297198538662934,0.2858036982069542,0.04686855325643283,-0.3541180267558354,-1.5059446018997524,-0.7536421698445234,-0.8825616149597517,-1.5702550055239402,18.05632,-0.9155593951940871,0.8815065306672579,-0.6744422577882382,-0.7763253911865355,3.7870385252859586,2.0100129653922516,-2.823209175773987,-0.5709943810532901,-0.843339232338056,-0.9116303545284588,-0.7099587291696505,11.77102,-0.8537627496611786,LR
0.9987829910940346,-1.4200126489855067,-0.8605219146413633,-1.1629661784789715,0.41198099466962773,-1.6389065764190456,-1.5074728821521706,-0.7562432381511472,-0.8825535037110156,-1.5310819058006138,17.76045,-0.8505830417942294,0.8792016912427276,-0.7970640519611408,-0.5499157799675155,3.7506079687479708,2.2208685721547705,-3.8150755424469187,-0.5703550194531473,-0.8423937475947573,-0.9104944494961635,-0.9318536544166852,11.96488,-0.7028449679561612,LR
0.8746456416615741,-1.3953434915679523,-0.8924594250528695,-0.8382420001461015,1.142205757921708,-1.7144825044931706,-1.5080310626349878,-0.7556781890739114,-0.8831404631650527,-1.5009427259942443,18.53525,-0.8815500329630581,0.8561532969974233,-0.6802827575223952,-0.8467620592657501,2.985582984505458,2.408297483240041,-3.2391529331800935,-0.565578393545105,-0.8411896510507749,-0.9123998385825899,-0.6696336517532834,12.01332,-0.8664178722893215,LR
0.8746456416615741,-1.4841530645419119,-0.8754262605885694,-1.262881511641204,1.6594481490907111,0.3265744555619415,-1.5091533934453574,-0.7549595940517743,-0.8827636587919205,-1.508434632138327,18.36787,-0.8756649831477583,0.8423241660437762,-0.6802827575223952,-0.6002285689457169,2.184127443724958,2.291154797453429,-2.69522567514149,-0.5653609362566847,-0.839484192429201,-0.9116669966262724,-0.7987920561510129,12.44999,-0.7612206531194395,LR
0.9045302801236592,-1.479219030968146,-0.8477468232658426,-0.07376604418845852,1.81157835792419,-2.092361649842259,-1.5089812629221362,-0.7546693922159113,-0.8829236716079086,-1.497995545973038,18.17723,-0.8493004592059896,0.8930308221963745,-0.7386734047417683,-0.8719184537548513,1.9473341950672185,2.056869425880205,-1.543379618319997,-0.5639409587493908,-0.8392841993033391,-0.9120944877674578,-0.7128797228936917,11.49591,-0.8661879991249473,LR
0.8746456416615741,-1.4890860876644034,-0.8477468232658426,-2.0122450378580807,1.6594481490907111,-3.1126346987568,-1.510356317159663,-0.7540966658414302,-0.8835725715068439,-1.4886175239472803,18.32717,-0.851552870986596,0.8792016912427276,-0.7503520125230494,-0.7411060267383716,1.4737465046763665,1.658584754575743,-1.7353544501248206,-0.5651769339357131,-0.8389393835690944,-0.9113860738763517,-0.788713987635379,11.79443,-0.8026341184694689,LR
0.9574041884846605,-1.4742849973943803,-0.8605219146413633,-1.737478198884134,1.3247618490894701,-2.3568778931232335,-1.5122338333291383,-0.7552098739419628,-0.8840091041661281,-1.527282899521596,17.90536,-0.8580729717113554,0.8284955071224517,-0.7386734047417683,-0.7109171168611834,1.1458788929017931,1.9865832005815465,-1.0634445297415636,-0.5669742091314628,-0.8374525381230316,-0.909492898822531,-0.780580199851527,12.47067,-0.7715891426914456,LR
0.929818006210298,-1.5310238573645003,-0.8807491789904872,-1.4627118507434764,1.4768920579229492,-2.5836051823240718,-1.5141800027130767,-0.7558655151266906,-0.8850414449144346,-1.5447765747416857,17.99104,-0.8831974945131487,0.8377142983817862,-0.8145807677895466,-0.9222312427330527,0.9090854056289791,2.1974403419107937,-0.4875212917588562,-0.56838303498294,-0.8364656754916234,-0.9081859973337665,-0.7299356192472829,12.09046,-0.8241938015701862,LR
0.9252201522305148,-1.656837166464791,-0.9062989256869372,-1.1379875087995097,-0.08139237142469154,-3.1126346987568,-1.516641568692557,-0.7587260760801974,-0.8869026078063816,-1.5900136064400043,17.84376,-0.9189754551729522,0.8446286278424486,-0.9488811697437296,-0.6505434187410305,1.1276640918629486,2.291154797453429,0.21638460856850525,-0.5742989883935619,-0.8351870987490443,-0.9029461773460956,-0.9844077637923125,12.20888,-0.6565799689790912,LR
0.8585536235345013,-1.5384244024995113,-0.8839428428207196,-1.2878601813206658,-0.08139237142469154,-3.528301808142951,-1.5178614069669478,-0.7598868834236496,-0.8884171991613983,-1.520753884292921,18.37789,-0.8895472694448516,0.8676774941200754,-0.9839146014005412,-0.8668879991838756,0.015745164937781813,1.8928702796056398,1.2722435638455276,-0.5809193547299227,-0.8349222802651444,-0.8985369115755845,-0.8995709122568045,11.6841,-0.7379308719921226,LR
0.948208480525094,-1.4816855425293913,-0.9212032716341433,-0.7633056638855235,2.328821147674225,-3.2259995809110613,-1.519610571474599,-0.7594154973728032,-0.890252553534638,-1.5717077709112444,18.01379,-0.9135698137320782,0.9022501798944963,-0.8379379833521088,-0.9222312427330527,0.5083577545462664,1.5414422222458042,1.016277400868377,-0.583647793186345,-0.8355070877504234,-0.8966315224891581,-0.766381280452822,11.28052,-0.8431643869248017,LR
0.8171748209251266,-1.4397477728292944,-0.8945886796245549,-0.8382420001461015,3.5762881028047926,-2.6591801203551233,-1.5197001191456394,-0.7554494056160087,-0.8912502371292507,-1.4897113124948551,18.78396,-0.8904062400391499,0.9299083473953259,-0.7853854441798597,-0.8467620592657501,0.9637301666681245,0.2547724722029528,0.9202905088958667,-0.585342844870444,-0.8372125463719973,-0.8949337719570216,-0.7733408177853057,11.0351,-0.8509558773383016,LR
0.8424625470117659,-1.5186892786557225,-0.886072097392405,-1.2379025147395497,3.5458624197610256,-3.1504221677723256,-1.5206284300020878,-0.7521880897463101,-0.8925222284084147,-1.511502793304415,18.50187,-0.8900163995386609,0.9414325445179781,-0.7737068363985786,-0.9775765470993422,1.0001597687458135,0.2547724722029528,0.6323287851185327,-0.5853762998378933,-0.8392428214152297,-0.8947505614679431,-0.6971846401472936,10.77489,-0.9121868291748495,LR
0.764301854168463,-1.4224791605467522,-0.8977823434547872,-1.8124153532001936,2.754784696097284,-3.414939401096374,-1.5211537763388565,-0.7480177818827968,-0.8939564446623128,-1.4667903437834917,19.11095,-0.8935873678896602,0.9045550193190267,-0.7912259439140167,-0.9473876372221539,0.8726556842437528,1.5882992965604488,-0.6155043732474317,-0.5861048746845676,-0.8396938403956218,-0.8949215579244159,-0.7171432397194524,11.25177,-0.875903164966631,LR
0.8332668390521994,-1.4742849973943803,-0.8434883141224717,-2.361949031148087,2.0245603314262355,-2.81033247152491,-1.5221417856426656,-0.7464024785424376,-0.894178397923198,-1.4658552190324836,18.57576,-0.8478490191504952,0.9229937347152702,-0.8029021600082649,-0.7561994512684101,0.836225724243452,1.2603002367279539,-1.7033582606087554,-0.5894150578527481,-0.8404689861662037,-0.8944574246854168,-0.8346066949177333,11.19957,-0.8037834842913368,LR
0.7918880364428248,-1.4027440367029633,-0.9041701071698435,-1.8623723653369244,0.1685727402522676,-2.4702403001698108,-1.5228014534859946,-0.7456378197368303,-0.895136262660377,-1.4780475401498239,18.99903,-0.8961606088580514,0.9229937347152702,-0.8554546991805139,-1.0530457305666447,0.5447873566239553,1.0260151720680755,-2.0553117347023377,-0.5907941459553812,-0.8417613555381525,-0.8962406734457896,-0.7161866462832139,10.89295,-0.8943293138793084,LR
0.8539567111590556,-1.5088222219594662,-0.8999115980264727,-2.162117710379237,-0.4399478957911325,-1.9034220771677146,-1.524747622869933,-0.7471840274019839,-0.8960026915027064,-1.5241254899699397,18.47048,-0.9008805421492899,0.8907259827718442,-0.7620306203043304,-0.7411060267383716,0.5812173166242562,1.119729320697365,-3.0471787300911513,-0.5937920827607012,-0.8419323841423378,-0.8969735154021072,-0.8013326073612154,11.64287,-0.8025010340058832,LR
0.9413121703575876,-1.464416930246849,-0.9009760072850194,-2.3869275372164522,-0.4399478957911325,-1.7522707160410014,-1.527370374657287,-0.7499662799235912,-0.8966442175391546,-1.5497417599254606,18.05774,-0.8938692864436873,0.8792016912427276,-0.7912259439140167,-0.7511689966974343,0.16227486450269907,1.1900147787126594,-3.2711482844083157,-0.5979795295197747,-0.8418889373598231,-0.8975720029997656,-0.8155681077708671,11.76166,-0.7873052079820345,LR
0.8493588571792723,-1.4545498735505915,-0.8637155784715956,-2.6866728822587644,-0.47037397741593157,-1.5633311433664574,-1.5288658207636567,-0.7512361048879236,-0.8965726910730212,-1.4828629863755904,18.54348,-0.8630887726517403,0.9368228656689173,-0.7620306203043304,-0.7561994512684101,-0.05630379786976296,1.09630063008337,-3.1431668794954257,-0.6023807163486633,-0.8429323497716473,-0.8987323360972687,-0.8061228907445992,11.04645,-0.8295171801135709,LR
0.9229216960427922,-1.4767515089556256,-0.8764906698471164,-2.6367158701220332,-0.6529302678742095,-1.2610276785807255,-1.5310109849721283,-0.7539676872477133,-0.8965417208505726,-1.5265966786014502,18.11237,-0.8739455736333581,0.8930308221963745,-0.5109489239114006,-0.6857607223720822,-0.32952726900438534,0.5340168125043424,-3.0471787300911513,-0.6037616630605991,-0.843239235775125,-0.9014316373030377,-0.630490140990474,11.80775,-0.9020724099424157,LR
0.9711968088196726,-1.4668844522593694,-0.909493025571761,-2.536800209737608,-0.7137822318332916,-0.6186332799937362,-1.5340227716414447,-0.7574224710079875,-0.8968123416038787,-1.5686931587764974,17.89586,-0.9006448758580328,0.9667858725942773,-0.7445115127888924,-0.8417316046947755,-0.11094858277041585,0.25287470882485424,-2.983188027634706,-0.6071164528520455,-0.8453950237456225,-0.9036668052698075,-0.7536273109864853,10.59726,-0.8847472325012102,LR
0.9413121703575876,-1.5334913793770197,-0.9467534543851849,-2.911481072985017,-0.8354863590419717,-0.8075726051575121,-1.5379280450729176,-0.7606361876347669,-0.8979921596019429,-1.599587974914011,17.99624,-0.9420347777339232,0.9160792164416789,-0.8320974836179518,-0.9624831225693037,-0.5116759952380538,-0.05169569568868018,-2.727221026369713,-0.6111291903366616,-0.8470515185329337,-0.9052912716063097,-0.7441180771910623,11.07407,-0.8676277310491846,LR
0.8217726749049099,-1.5556930147820538,-0.9723036371362266,-2.6616943761903986,-1.2310248222928106,-0.505269635393317,-1.5410234095685378,-0.7622207817861459,-0.8996070354867944,-1.5742771327668788,18.652,-0.9714769125571451,0.9621761937452165,-0.8379379833521088,-0.8568250292248129,-0.7848994425111687,-0.8014078105262867,-2.9191952294586545,-0.6171826808356863,-0.8498300437194771,-0.9065737450298664,-0.817766626528724,10.59551,-0.8438661050055201,LR
0.7482098360413901,-1.5482924696470428,-0.9361076175813496,-2.6616943761903986,-1.8395454583362107,-0.16517845408129117,-1.5429009257380115,-0.7633017452382495,-0.900432170699191,-1.5166653165851705,19.03012,-0.9411736046509209,0.9529567416406303,-0.8379379833521088,-0.9222312427330527,-0.6938249600867972,-0.7779791199122915,-2.85520452700221,-0.6221395918460942,-0.8524609877717637,-0.9081982113663687,-0.7799363740588771,10.6511,-0.8653894923434403,LR
0.9045302801236592,-1.5606270483558193,-0.9190740170624578,-2.1371392043108712,-1.5048591583349697,-0.051814809480872005,-1.5453475671056527,-0.7667565289985236,-0.9007934899610988,-1.5701717070307435,18.12657,-0.9213534088096487,0.9276035079707956,-0.8379379833521088,-0.8819814237139141,-1.0945526111695099,-1.1059783332014594,-2.5032514720525487,-0.6280481108195054,-0.8547091863590387,-0.9088211270292385,-0.7949053237379965,11.00388,-0.8387605010389071,LR
0.902231823935936,-1.5581605367945741,-0.9669807187343088,-1.6375635201662868,-1.7482674127523299,0.5905795891061173,-1.547882761170211,-0.7700792632461825,-0.9017307078833114,-1.6040256029742053,18.19559,-0.9640376398801961,0.8792016912427276,-0.8846500227902008,-0.9121703335911022,-1.021693287706595,-0.35626621836385275,-2.69522567514149,-0.633980791713852,-0.8557229446177179,-0.9091020497791625,-0.8016892722179394,11.55087,-0.8070017085925664,LR
0.9367143163778043,-1.5803621721996082,-0.9148159439736788,-1.612584359653536,-1.8699713406704939,0.4016401401869573,-1.5500408600422773,-0.7744722127298022,-0.9018066586669369,-1.5841846952136733,17.91142,-0.9183734415940428,0.9229937347152702,-0.7912259439140167,-0.8316686347357127,-0.5116759952380538,-0.19226676517594168,-2.151299045818769,-0.6382704619845764,-0.8571842736994467,-0.9095417549529538,-0.7842236685417524,11.13309,-0.8391839516048586,LR
0.9183238420630089,-1.5902302393471397,-0.857328250811131,-1.0130933423467192,-1.6265632855436496,0.7039432337065366,-1.550646799282982,-0.7784352335676988,-0.9007588328074051,-1.5357287717425308,17.93338,-0.8690832127393049,0.9137743770171485,-0.8029021600082649,-0.700856207719233,-0.7302546814720233,-0.0048387748307082735,-2.0233155451862728,-0.6445655716929574,-0.8581663089105754,-0.9086257025075543,-0.8624997157640885,11.36983,-0.7775053520271646,LR
0.9252201522305148,-1.614899396764694,-0.9329139537511173,-1.0630511725389318,-1.0484685318345326,0.3638522256520485,-1.552589983744553,-0.7816443438161313,-0.9012727910228129,-1.6006658970819285,17.93935,-0.9383801148121967,1.0313214708875937,-0.7094780811320814,-0.8115447556346984,-0.4934614328142842,0.22944627448350266,-1.2234233816022828,-0.6480802018844387,-0.8611048285978082,-0.9098715338332938,-0.7585730636663898,9.82453,-0.9171835458530747,LR
0.929818006210298,-1.5630945703683399,-0.9233325262058286,-1.5376483506151508,-0.4095218141663336,-0.12739049004422862,-1.5545829169122576,-0.7839214301790142,-0.9017130106133402,-1.5840081817399942,17.98683,-0.9244699303248617,0.9368228656689173,-0.59853489474046,-0.6958236923311449,-0.27488250796523994,0.25287470882485424,-0.5515126229311833,-0.6499611144988119,-0.862085484546,-0.9098226777028744,-0.7083930619011602,11.19025,-0.884553655099633,LR
0.9275195500225754,-1.5162227670944772,-0.9446241998134995,-1.1130088391200479,0.5641112035031066,-0.8831487807424055,-1.5561878101721203,-0.7847536492003782,-0.9027291288641733,-1.5886034819480264,18.09905,-0.9388940288429731,0.899945340469966,-0.8904881308373243,-0.8165752102056743,0.05298553331646805,0.3934457737084156,-0.4875212917588562,-0.6542545019881416,-0.8626875328179912,-0.9075630816708932,-0.8637782220966522,11.38358,-0.7760051271649357,LR
0.8654508753063447,-1.506354699946946,-0.9073637710000756,-0.9131783364066794,0.47283315791922553,-0.8075726051575121,-1.5565420209597907,-0.7846400252011513,-0.903083074263593,-1.53369787514649,18.41929,-0.9068390082547001,0.8884211433473138,-0.7795473361327356,-0.8467620592657501,0.2533493469270707,0.6511593448342816,0.024410342607975206,-0.6558398957233791,-0.8628675266312669,-0.9060973977582615,-0.7572543182217849,11.55674,-0.8349131501825497,LR
0.9229216960427922,-1.543358436073277,-0.8754262605885694,-0.8881996667272176,0.7162412130460698,-1.6389065764190456,-1.5570086638233216,-0.7855305916815776,-0.9032556226458103,-1.5407911385017017,18.00347,-0.880017834988441,0.8607629758464842,-0.49927031613011946,-0.8517945746538382,0.2533493469270707,0.9557297140527813,0.1523928582522569,-0.6526449463319688,-0.8621647921648763,-0.9070012361710519,-0.5236150594105243,12.04883,-0.9565039555485445,LR
0.8861398058088632,-1.5334913793770197,-0.9456886090720464,-1.187945175380626,0.8683714218795489,-1.8656341131306526,-1.5584483913788225,-0.7853125564398176,-0.9047908608157922,-1.5764240522641568,18.3025,-0.9430978456147302,0.9368228656689173,-0.9955932091818224,-0.8517945746538382,0.4901428341998846,1.4711567642305097,0.18438904776832202,-0.6573583795237178,-0.8628068390620398,-0.903813373661069,-0.9363366573081223,10.83719,-0.7565384997187781,LR
0.9321164623980212,-1.5532265032208084,-0.9126866894019934,-1.3877755144828983,0.7770933762956678,-1.9789980052418399,-1.560004530906676,-0.786198516541897,-0.9057590489604546,-1.5747660155900467,17.97825,-0.9138788963134457,0.9299083473953259,-0.867133306961795,-0.7411060267383716,0.39906835177551303,1.4242996899158649,0.08840152707992986,-0.6613543895246091,-0.863113035434049,-0.9010652163248806,-0.8954573775759228,11.09322,-0.7702461994680004,LR
0.9229216960427922,-1.5014206663731802,-0.9552700366173348,-1.0630511725389318,1.2334838035055888,-1.82784614909359,-1.5615726101240008,-0.7859896940568313,-0.9073090348554117,-1.5913592737646254,18.16064,-0.9471540956433641,0.8584581364219537,-0.8262593755708277,-0.8769509691429382,0.39906835177551303,1.5882992965604488,-0.10357267600901197,-0.6627632153760863,-0.8622875465662674,-0.8993430377275328,-0.7691266853243223,11.87388,-0.8108853552117173,LR
0.9252201522305148,-1.5334913793770197,-0.9467534543851849,-0.8132630032444471,1.6594481490907111,-1.4877552152923321,-1.5628760262246952,-0.7856626411941924,-0.9085360455733988,-1.593069867821349,18.08602,-0.9426206397290093,0.9252986685462651,-0.7970640519611408,-0.7461364813093474,0.3444238293514423,1.5414422222458042,0.31237150054101553,-0.6655734326418293,-0.862402715021505,-0.8971567258911857,-0.8361741912367708,11.18331,-0.8036020054773586,LR
0.9045302801236592,-1.5260898237907345,-0.9084281802586225,-1.2878601813206658,2.3896725137617594,-1.9412100412047772,-1.5638491109166652,-0.7841225753668346,-0.9092999777271463,-1.5545423314202997,18.1709,-0.9083300931068545,0.9068598587435572,-0.7678687283514546,-0.8467620592657501,0.6905067193950096,1.705441521977042,0.4403545820295909,-0.6650251428975213,-0.8616910153460241,-0.895568901652497,-0.7532230908155312,11.33256,-0.8488991174465389,LR
0.872347185473851,-1.5162227670944772,-0.9552700366173348,-1.0130933423467192,2.1766907395502306,-2.016785721768134,-1.5653953007032901,-0.7807307454439696,-0.9114767419335764,-1.5739865796894172,18.41838,-0.9504835243998988,0.9598712599142215,-0.7328329050076113,-0.8719184537548513,-0.4023869503899125,-0.028267311988030636,1.1122647119848084,-0.667264767107323,-0.8635737092549999,-0.8947017053375202,-0.7262720310010367,10.66215,-0.8990961573931594,LR
0.8746456416615741,-1.5458259580857974,-0.9382368721530351,-0.5634753247832511,1.385614012339068,-0.8075726051575121,-1.5659604460049668,-0.7799154164765453,-0.9122834424897526,-1.5690253611005565,18.33783,-0.9380827788372466,0.9160792164416789,-0.6919613653036762,-0.9926699716293806,-1.458850660174534,-0.8014078105262867,0.7923074274072913,-0.6696902522473989,-0.8653046842409079,-0.8950559122830751,-0.6184824241474361,11.11548,-0.9453732549578284,LR
0.9344158601900813,-1.5581605367945741,-0.9648514641626234,-0.5634753247832511,1.2639100844209037,-0.505269635393317,-1.567448927292477,-0.7802470757175316,-0.9134020574291677,-1.615609051772225,18.01409,-0.9609761805825662,0.9575664204896911,-0.616051610568865,-0.9172007881620781,-1.586354625369057,0.27630324137847645,1.4642177669344694,-0.6721622026200434,-0.8668542861506033,-0.8953612630982072,-0.6088195501060398,10.70587,-0.9717723730979873,LR
0.8930361159763696,-1.6099653631909283,-0.9648514641626234,-0.6384116610438292,0.898797304213832,-0.769784888631218,-1.5688637804949117,-0.7805388130128434,-0.9147455751744651,-1.6100379692153146,18.15967,-0.9675124328911509,0.9829197485659902,-0.6977994733508004,-0.9574506071812167,-0.5116759952380538,0.20601775267184758,1.6561919700234111,-0.6730561936946613,-0.8689597310239011,-0.8953490490656014,-0.6586666646716606,10.31246,-0.9588026871922805,LR
0.7895886386507648,-1.656837166464791,-0.9361076175813496,-0.5384964914926931,0.3815549130448287,-0.8453605691945745,-1.569081679827776,-0.7800275050163231,-0.9157145007053754,-1.5576422253457012,18.6212,-0.9502772246246871,0.9091646981680875,-0.9255239541811675,-0.9977024870174677,0.30799386935114137,-0.3796947555211751,1.4322222061342862,-0.6749259546532178,-0.8703541658531865,-0.8929062425445452,-0.7958966691346336,11.07918,-0.8344171080910076,LR
0.8240711310926331,-1.5310238573645003,-0.9286554446077464,0.33576136478807045,-0.7746343950828896,-0.6564212440307988,-1.5681523739972045,-0.780769131930195,-0.9162063373333187,-1.5382396263231812,18.632,-0.9299321023091214,0.895335661620905,-0.8788119147430761,-0.9775765470993422,-0.14737830415564204,0.2547724722029528,1.016277400868377,-0.6772083268769828,-0.8710086261167828,-0.8910252815233302,-0.7667690391688495,11.29185,-0.8423416829680966,LR
0.8562551673467782,-1.506354699946946,-0.9446241998134995,1.5347433994017043,-0.7746343950828896,0.7039432337065366,-1.5665554405303217,-0.7818623790578908,-0.9163058844769055,-1.557436954058894,18.51253,-0.9405436928817676,0.9437373839425086,-0.8262593755708277,-1.0832325796267206,-0.2384527865800137,-0.8482647313842587,-0.039581428665469154,-0.6779517705980792,-0.8732982025921671,-0.8918314076752785,-0.683053395618838,10.62493,-0.9284352323197775,LR
0.8654508753063447,-1.4520823515380723,-0.9573992911890202,1.1850403877782758,-0.7442083134580906,0.3265744555619415,-1.5653206776440904,-0.7827329845654796,-0.9166841636225347,-1.5583710871611747,18.56644,-0.9462723659991316,0.9229937347152702,-0.7912259439140167,-0.8065122402466115,-0.0745186347008686,-0.6374082038817029,-0.039581428665469154,-0.6806393196498415,-0.8746691899515238,-0.8906100044147504,-0.7978866761300982,11.15722,-0.8292752083616011,LR
0.8746456416615741,-1.528557345803254,-0.9393012814115818,0.46065536762976467,-0.3790959318320505,0.8550950898547867,-1.5649117432796742,-0.7837847742880519,-0.9166428699926029,-1.565968108070483,18.36749,-0.9373082369765757,0.9483470627915693,-0.8262593755708277,-0.7461364813093474,-0.3113124679655409,-0.30940914404920794,-0.26355133925496665,-0.6851910538322521,-0.8761815517619207,-0.8890221801760617,-0.8656310503010691,10.87733,-0.7998030489713939,LR
0.8861398058088632,-1.4471483179643065,-0.8818135882490341,0.23584619523693431,-0.6225041862494105,2.102095922991703,-1.563574498058808,-0.7850745602252212,-0.9148458597043,-1.509367773591879,18.3723,-0.8770151087228997,0.8515436181483624,-0.7094780811320814,-0.8819814237139141,-0.620965636623882,-0.7311221990543196,-0.39153377107046405,-0.6864418978929965,-0.8763684418898814,-0.8888756117847968,-0.6727521829364335,12.01831,-0.8641796335835807,LR
1.0033808450738178,-1.4298807161330382,-0.8807491789904872,0.06099464034189121,-0.9876165678754506,1.2707619517301691,-1.563255111365432,-0.7886890317681925,-0.9133010355130838,-1.5509267801560613,17.74205,-0.8696499864989624,0.8699823335446059,-0.7853854441798597,-0.7914188157165729,-1.021693287706595,-0.3328376812065303,-0.1344805583335649,-0.6908951257823618,-0.8765353327052559,-0.8872389314156888,-0.786392922490853,11.83958,-0.8017509215747688,LR
0.9436106265453107,-1.4372812612680492,-0.926526190036061,-0.21377211682650724,-0.4095218141663336,0.7795191617806616,-1.5634491313193517,-0.7904210300266764,-0.9128925235312542,-1.5639312615820706,18.11815,-0.9139596542325673,0.8676774941200754,-0.5167870319585246,-0.7461364813093474,0.015745164937781813,-0.12198130716064735,-0.7434868260201251,-0.6890030615121719,-0.8762498252773013,-0.8883626224153748,-0.5954930878183978,12.06402,-0.9104446325606508,LR
0.9321164623980212,-1.4298807161330382,-0.9169447624907724,-0.038920660098121944,-0.7746343950828896,0.3638522256520485,-1.5632103375299118,-0.792331141581246,-0.9124928601844096,-1.5503843483015523,18.18403,-0.9049874494180998,0.8400197042451037,-0.8204212675237036,-0.6354479333938808,-0.25666758761885816,-0.3328376812065303,-0.007585281063796196,-0.6937648185457922,-0.8757036371542578,-0.8847472687642097,-0.8903415231951192,12.35838,-0.708277233787937,LR
0.9114275318955025,-1.4940201212381692,-0.8434883141224717,0.46065536762976467,-0.4399478957911325,0.2127006170145668,-1.5615348011073387,-0.7940493207046888,-0.9109996530306084,-1.5007850538464065,18.10989,-0.8468351401840616,0.9068598587435572,-0.6744422577882382,-0.7058866622902076,-0.36595699038961155,-0.1688382280186193,0.056405966279746624,-0.6959412500393011,-0.8762139644409398,-0.8837701461557851,-0.7554746520392599,11.52178,-0.8378410083814134,LR
0.948208480525094,-1.498954154811935,-0.9031052618567047,0.6355068734414788,0.35112883142002976,-0.014026845443809456,-1.5609626909868053,-0.7952822946422441,-0.9106862638748725,-1.561851774198333,17.96553,-0.8991170828608227,0.9068598587435572,-0.7036375813979244,-1.0379523060366063,-0.4388165524676014,-0.0048387748307082735,0.728316305806925,-0.6950454003553806,-0.8770649696730555,-0.8846007003729448,-0.6016460138595213,11.18044,-0.9527775905681738,LR
0.902231823935936,-1.521156800668243,-0.8850072520792662,-0.06389937886091265,0.6553892490869877,-0.505269635393317,-1.560487093356169,-0.7955878510725977,-0.9103271567717117,-1.5349215696775034,18.16516,-0.8870144074360209,0.8884211433473138,-0.6977994733508004,-1.0530457305666447,-0.25666758761885816,0.20601775267184758,0.47235014282977417,-0.6934692996666565,-0.8774732315024013,-0.8855778229813694,-0.5844035543501059,11.39612,-0.9526929004549842,LR
0.8654508753063447,-1.506354699946946,-0.8977823434547872,-0.31368715548876636,1.0813535946721098,-0.2785420986817103,-1.5600751740693852,-0.7946020861063325,-0.9101258503257919,-1.5265718873832361,18.40831,-0.8982830738051617,0.9252986685462651,-0.7853854441798597,-0.786386300328486,-0.0016592754456923097,0.3934457737084156,0.5363418931460224,-0.6958222990439257,-0.8780883827722937,-0.88391671454705,-0.8048901106757175,11.15064,-0.8251495899904768,LR
0.8930361159763696,-1.4940201212381692,-0.8913950157943226,-0.06389937886091265,1.0813535946721098,-0.3163300627187728,-1.559516993586568,-0.7940677462180769,-0.9097844404926014,-1.5299782007657547,18.2679,-0.8902359142460925,0.9437373839425086,-0.8963286305714819,-0.6907932377601702,-0.4934614328142842,-0.19226676517594168,0.3763632508572638,-0.7022084806081408,-0.879353166885503,-0.8807410660696727,-0.9503270649444351,10.95112,-0.7421048847136393,LR
0.9574041884846605,-1.4841530645419119,-0.9393012814115818,-0.13883574784370994,1.385614012339068,-0.3163300627187728,-1.5602333749548887,-0.7940892426503633,-0.9102423573531011,-1.589611988704947,17.9783,-0.92976618149347,0.8653726546955449,-0.8846500227902008,-0.8065122402466115,-0.620965636623882,0.8854442560374869,0.21638460856850525,-0.706817831678937,-0.8786731902575725,-0.8781028350269288,-0.8546933280282034,11.82707,-0.7590671045268883,LR
0.9091281341034424,-1.5606270483558193,-0.9052345164283901,-0.38862365536044063,1.598596185131629,-0.505269635393317,-1.5605975354837862,-0.793538012708168,-0.9103544400629172,-1.5616762523733818,18.0857,-0.9088491462779393,0.9252986685462651,-0.7795473361327356,-0.9222312427330527,-0.20202306519478747,1.0728722463827205,0.24838016936868842,-0.7077787326884536,-0.878989731101609,-0.8779684806682696,-0.7269597540068221,11.02412,-0.8810208675208395,LR
0.9551047906925998,-1.5112887335207115,-0.8945886796245549,-1.1629661784789715,1.568170302797346,-1.2232394670328945,-1.561631313597237,-0.7936101793022715,-0.910451037661508,-1.5608601254697976,17.89756,-0.8925220975201492,0.9299083473953259,-0.7328329050076113,-0.7209800868202462,-0.05630379786976296,1.0494437092253979,0.4403545820295909,-0.709877102591247,-0.879096623979225,-0.8765516528860572,-0.8003522362678616,11.18318,-0.826419941688328,LR
0.8792434956413574,-1.5482924696470428,-0.9318491084379787,-0.9631360029877956,1.2943359667551868,-1.3366033591440822,-1.562584498806753,-0.7927533929297238,-0.9113971042187069,-1.5667346525376402,18.30119,-0.9324510152228308,0.9206888952907397,-0.7445115127888924,-0.9675135771402794,-0.18380826415594306,0.8385871817228422,0.28037593974083225,-0.709663362521432,-0.8795159199120665,-0.8770646422554792,-0.6742154233742749,11.05608,-0.9129732373687609,LR
0.8953355137684297,-1.5507599916595631,-0.9052345164283901,-0.5634753247832511,1.2030579211713057,-1.7144825044931706,-1.5629038855001303,-0.7923925599592063,-0.9120054478739594,-1.5539959329708768,18.17821,-0.9083572571341959,0.8907259827718442,-0.656925541959833,-0.8819814237139141,0.3444238293514423,1.1431577043980146,0.5363418931460224,-0.7076430542093534,-0.8790724868778279,-0.877272280809769,-0.6422143549986796,11.55762,-0.9077708447013594,LR
0.9367143163778043,-1.5507599916595631,-0.8999115980264727,-0.38862365536044063,1.5073179402572323,-1.4499670037445014,-1.5632919254079711,-0.7925399640663112,-0.912307776235963,-1.566418316593237,17.9425,-0.902060341931374,0.8907259827718442,-0.7678687283514546,-0.9524201526102409,0.38085355073666854,0.557445196204992,0.5363418931460224,-0.7065501919393419,-0.8791614493372629,-0.8769302878968199,-0.6924437411286865,11.43017,-0.8825210923830684,LR
0.9367143163778043,-1.5038881883857005,-0.9659158734211704,-0.38862365536044063,1.385614012339068,-1.3366033591440822,-1.5644739546656998,-0.7922451558521014,-0.9136999614736794,-1.6054258109788975,18.09098,-0.9564904452567831,0.9022501798944963,-0.8379379833521088,-1.048015275995669,0.14406006346385464,0.9557297140527813,0.21638460856850525,-0.7061710356415835,-0.8793579943057824,-0.8770524282228734,-0.6998367634408812,11.16072,-0.8914619486184363,LR
0.8930361159763696,-1.4742849973943803,-0.8935238343114164,-0.2387508192281883,1.689874430006026,-1.3743915706919134,-1.5639267188982326,-0.7909615117527279,-0.9137456794211042,-1.527115310886474,18.30275,-0.8900788033852551,0.9483470627915693,-0.8320974836179518,-0.8165752102056743,0.14406006346385464,0.9791584046667765,-0.32754260755570547,-0.7084961558793111,-0.8800517635630827,-0.8762829441687423,-0.8314790184818464,10.80865,-0.8249318154137015,LR
0.899933367748213,-1.5729616270645972,-0.9669807187343088,-0.38862365536044063,-0.08139237142469154,-1.4877552152923321,-1.565095813492368,-0.7920731843938121,-0.9153045139510476,-1.6063272196731362,18.18411,-0.9655669012032079,0.8722871729691362,-0.7795473361327356,-0.7813558457575103,0.1076300557405387,1.7288702125910376,0.8243031977794352,-0.7099533055726591,-0.8788042202365856,-0.8740722042671838,-0.7879128634956606,11.82418,-0.8015936399359885,LR
0.8562551673467782,-1.464416930246849,-0.8924594250528695,-0.5634753247832511,-0.08139237142469154,-1.2610276785807255,-1.5644709697433323,-0.7921238545556292,-0.9152573212311258,-1.509416364379577,18.5227,-0.889530383698126,0.8930308221963745,-0.7094780811320814,-0.8014817856756357,-0.20202306519478747,1.2368716995706313,0.47235014282977417,-0.7108621655216997,-0.8782414809582982,-0.8732416500500242,-0.7275633406874317,11.58159,-0.8524682007881295,LR
0.929818006210298,-1.5310238573645003,-0.9350427722682109,-0.8382420001461015,2.2983954646304574,-1.3743915706919134,-1.5656360844409758,-0.790924660725952,-0.9161090023484788,-1.5856701850090198,18.05161,-0.9317029032265989,0.9345180262443868,-1.1298912194489732,-0.8920443936729768,-0.2930975476191591,0.9088727931948093,0.5683376635181663,-0.7178356676255803,-0.8790380053044033,-0.8694552999423828,-1.0164765070381587,10.76114,-0.7088458674050698,LR
0.9091281341034424,-1.5310238573645003,-0.8967179341962402,-1.1629661784789715,1.994134648382468,-1.185451998017369,-1.566324606533863,-0.7898728710033797,-0.9161871652908503,-1.5486866456782995,18.12412,-0.8982140624924574,0.8722871729691362,-0.6919613653036762,-0.8165752102056743,-0.47524627385282764,0.9088727931948093,-0.679495494847798,-0.7186441626722727,-0.8783359604694813,-0.8697850788227262,-0.6996337388301306,11.83614,-0.8568720866740205,LR
0.8792434956413574,-1.5581605367945741,-0.9584637004475671,-1.3877755144828983,1.933283282294933,-1.1098758224324754,-1.5679971580340673,-0.7883251278787765,-0.9174171255538325,-1.588417051987062,18.31416,-0.9572356206014097,0.9690907120188077,-0.8145807677895466,-0.9624831225693037,-0.3113124679655409,0.9557297140527813,-0.07157705233724056,-0.7199191686539523,-0.8795931586365373,-0.8704568506160153,-0.7442387945271842,10.42551,-0.8988662842287851,LR
0.9114275318955025,-1.5828296942121287,-0.9680451279928557,-1.1629661784789715,1.689874430006026,-1.2988156426177881,-1.5698836289706464,-0.7878598836657265,-0.9188550287389746,-1.6139559733417577,18.10527,-0.9670741376391877,0.9299083473953259,-0.8788119147430761,-0.8417316046947755,-0.27488250796523994,1.0494437092253979,-0.6474999340476149,-0.7232720998360955,-0.8799510773686832,-0.8696873665618841,-0.8493031160653045,10.99211,-0.8046424840108389,LR
0.9367143163778043,-1.6050313296171628,-0.9116218440888548,-0.9881148362783537,0.9900753497977131,-1.6011188598927515,-1.5711044622191601,-0.7887903720918271,-0.9194596854629831,-1.5872112071331637,17.86846,-0.9180349924966299,0.9068598587435572,-0.8145807677895466,-0.6857607223720822,-0.36595699038961155,0.4168742801744033,0.08840152707992986,-0.7273498886463076,-0.8800669354553894,-0.86746441262772,-0.8781033459831216,11.46581,-0.762732976569264,LR
0.9367143163778043,-1.5877637277858943,-0.9488827089568703,-0.5384964914926931,0.6858153307117867,-1.185451998017369,-1.5723790240702982,-0.7898390908955016,-0.9205016122325237,-1.611203156471344,17.93634,-0.9495136952075321,0.8838113700917885,-0.7620306203043304,-0.8467620592657501,0.14406006346385464,0.5808738868189872,0.728316305806925,-0.7274167985812063,-0.8798538393316262,-0.8663162935628226,-0.7421591640549019,11.62362,-0.841035035507445,LR
0.9137259880832257,-1.543358436073277,-0.9584637004475671,0.06099464034189121,0.41198099466962773,-1.1098758224324754,-1.5728526317526872,-0.7905300476475564,-0.9215907317219872,-1.5992240398306385,18.14667,-0.9545272936592141,0.8907259827718442,-0.7853854441798597,-1.022858881506569,-0.038088961038657325,-0.14540984431796972,0.6323287851185327,-0.7264057151205157,-0.8804807143364829,-0.8665361461497182,-0.6691178594989442,11.35276,-0.9012618045733096,LR
0.9160253858752858,-1.5482924696470428,-0.9307846991794319,0.4856342009203227,0.8379455395452656,-0.9587244613057622,-1.5726009032996529,-0.7909507635365852,-0.9220648710799592,-1.5807644987489562,18.09567,-0.9301398704101358,1.0382360835676496,-0.7445115127888924,-0.8065122402466115,-0.36595699038961155,-0.14540984431796972,1.016277400868377,-0.7286490565489226,-0.8833578568230201,-0.8663651496932419,-0.7908740963317428,9.725055,-0.9008625511825561,LR
0.9321164623980212,-1.4693509638206146,-0.9424949452418141,0.6105280401509208,0.5641112035031066,-0.5808453159566738,-1.5721621197115556,-0.7914451814791665,-0.9224402006805943,-1.578465856996212,18.1478,-0.932077326306165,0.9252986685462651,-0.7561901205701734,-1.0278893360775434,-0.6027504776624256,-0.6374082038817029,1.2402473743294626,-0.7285821466140245,-0.8848322889026503,-0.8666460724431659,-0.6528173610213894,10.93642,-0.9325003577529102,LR
0.8930361159763696,-1.498954154811935,-0.9084281802586225,0.735422042992615,0.7770933762956678,0.13712478794474908,-1.5709263618512026,-0.7912824227775715,-0.9219697482538654,-1.543867232857619,18.27926,-0.9059756326829939,0.8907259827718442,-0.7561901205701734,-0.6907932377601702,-0.6938249600867972,-0.4968371343944413,1.5282090981067964,-0.732212010582276,-0.885135037117317,-0.8637024905852899,-0.8242890207804029,11.69691,-0.7851274622142853,LR
0.9114275318955025,-1.4742849973943803,-0.9318491084379787,1.0601463849365815,0.7770933762956678,0.06154908263031562,-1.5698139807820601,-0.7912332880752029,-0.9218989591739821,-1.5632291742822675,18.24365,-0.9237643997768941,0.9322131868198564,-0.7153161891792061,-0.9121703335911022,-0.894189083896997,-0.6842652781963476,1.9441530650848635,-0.7332305284801774,-0.8865032659507998,-0.8631162170202373,-0.683625888440144,10.9796,-0.9107833930134127,LR
0.9643004986521663,-1.535957890938266,-0.9169447624907724,0.9602312153854454,0.8379455395452656,0.43942802997078934,-1.5693503228408967,-0.7924524428777177,-0.9214852854884102,-1.5869761863845009,17.83145,-0.914726854464228,0.9045550193190267,-0.7153161891792061,-0.48954208184736253,-1.0034781287451384,-0.6374082038817029,-0.1344805583335649,-0.7393379186489816,-0.8868322201612692,-0.8605268421079126,-0.9083064576707195,11.74928,-0.7290263115195483,LR
0.9895882247388056,-1.4619504186856036,-0.9350427722682109,1.0351675516460235,1.2639100844209037,0.3638522256520485,-1.5688528357795617,-0.7930006019010144,-0.921264069613773,-1.5944502428514697,17.82887,-0.922470070582237,1.022102113189472,-0.7561901205701734,-0.9121703335911022,0.015745164937781813,-0.19226676517594168,2.4880799039795454,-0.7393843838815503,-0.8894438545324381,-0.8599527825754657,-0.7385504473250746,9.833939,-0.9295966967292445,LR
0.9895882247388056,-1.5729616270645972,-0.8967179341962402,0.760400876283173,1.81157835792419,-0.014026845443809456,-1.568630956550207,-0.7938358918412762,-0.9207442123083752,-1.5897379280934714,17.60948,-0.8995480364837745,0.9391277050934477,-0.7620306203043304,-0.7712928757984475,0.015745164937781813,0.11230372680789627,2.7120515540163157,-0.7406482382074133,-0.8902086558309926,-0.8571679831414568,-0.7984866047096133,11.00293,-0.8365222623331663,LR
0.872347185473851,-1.5310238573645003,-0.9712387918230878,0.735422042992615,1.3551881300047848,-0.3919059907928979,-1.5683702733300688,-0.7925660668769444,-0.9217507445379752,-1.588889076781845,18.41127,-0.9662841783575928,0.895335661620905,-0.8204212675237036,-0.7511689966974343,-1.1491973722086553,-1.316834093420651,3.1599906626506447,-0.7454657535201163,-0.891157588731634,-0.852929713827422,-0.8432946850174176,11.54305,-0.780953449492765,LR
0.9091281341034424,-1.4915536096769229,-0.9393012814115818,1.334913060299432,1.1726318395465067,-0.014026845443809456,-1.5672320229337358,-0.7920655070965669,-0.9218893731527479,-1.5717077709112444,18.23637,-0.9323041826426081,0.853848457572893,-0.7153161891792061,-0.5650112653146652,-2.588174051344682,-1.7619766063231221,3.1599906626506447,-0.7536194725312372,-0.8913099972861701,-0.8478608902962239,-0.8500603429918875,12.32046,-0.7358257177499639,LR
0.9229216960427922,-1.486619576103157,-0.9222676808926902,0.8353372125437512,2.1158393734626957,-0.16517845408129117,-1.5663982346189398,-0.7907772566188471,-0.9217632801042045,-1.5634552701923747,18.14839,-0.9159822730251264,0.9252986685462651,-0.7620306203043304,-0.8618575446129009,-3.5171335573197053,-1.7854048365670987,3.703917920689247,-0.7616133511423225,-0.8931706229881542,-0.8450638768296128,-0.7455520528201467,11.09035,-0.8659097316101805,LR
0.8654508753063447,-1.5680275934908314,-0.9605929550192526,0.03601570888467536,2.6026562808784472,-0.42969370731919193,-1.5667594102254683,-0.7882621740413673,-0.9226518305339972,-1.5865051532384464,18.37672,-0.9606090991320113,0.9160792164416789,-0.7561901205701734,-0.8970748482439526,-2.5699593696133753,-1.5979774600485566,3.4159555681960314,-0.7667505472550967,-0.8947540168398055,-0.8428042807976351,-0.7195703897957225,11.17476,-0.8782260937855615,LR
0.899933367748213,-1.5556930147820538,-0.9361076175813496,-0.2637298161298427,2.1158393734626957,-0.8831487807424055,-1.5672469475455764,-0.786955498050259,-0.9232306787392972,-1.5798640817034466,18.1789,-0.936234890815152,0.8584581364219537,-0.8029021600082649,-0.8165752102056743,-2.2603062009550343,-1.7151186112684402,3.351964865739586,-0.7723691231772802,-0.8953167561180928,-0.8390423587552052,-0.783219519791284,11.94814,-0.7980487537695962,LR
0.7206236537670282,-1.5236233122294882,-0.8988471887679257,0.7104432097020569,1.1726318395465067,-1.6011188598927515,-1.5647147384033855,-0.7836680793699272,-0.9235189967625747,-1.4732677932782836,19.18042,-0.9066554675294227,0.899945340469966,-0.7620306203043304,-0.9876395170584049,-1.3313466949800108,-1.8556910618657574,2.456084552751322,-0.77327798312632,-0.8967829126201009,-0.8383828009945182,-0.6718211962078569,11.28492,-0.9029919025999094,LR
0.8424625470117659,-1.5704951155033509,-0.9254617807775141,1.1350827211971597,0.7770933762956678,-1.8656341131306526,-1.5635098247408352,-0.783169055048999,-0.924329384249996,-1.55215939952563,18.4612,-0.9303498409998532,1.022102113189472,-0.7094780811320814,-0.9423571826511782,-1.4224212967119196,-1.6916903810244637,2.392093850294877,-0.7748596596429521,-0.9002117602814297,-0.8388713622987288,-0.685431161330331,9.829213,-0.9638477982209017,LR
0.9528063345048772,-1.5334913793770197,-0.9126866894019934,1.30993439061997,0.41198099466962773,-0.12739049004422862,-1.5626302676163961,-0.7847659328759697,-0.9240388540679725,-1.5786304706851475,17.89483,-0.9110898114521274,0.9299083473953259,-0.8612928072276387,-0.7209800868202462,-1.1491973722086553,-1.410548548963286,1.2722435638455276,-0.7801864339046053,-0.9016124017939313,-0.8362942014190133,-0.9020273271418316,11.11549,-0.7649470180998102,LR
0.9872888269467455,-1.479219030968146,-0.8786199244188018,0.8103583792531929,0.41198099466962773,0.06154908263031562,-1.5617228512165233,-0.7867743138352761,-0.9229195017423083,-1.554073281571703,17.751,-0.8736291494229793,0.8446286278424486,-0.7328329050076113,-0.8014817856756357,-0.7484697211259426,-1.246549249232048,0.6963201162908598,-0.781033959746655,-0.9014144775624748,-0.8353415068758001,-0.7320152497195651,12.17546,-0.8183138879972642,LR
1.005679301261541,-1.4767515089556256,-0.9105574348303079,-0.038920660098121944,0.13814665862746867,-0.12739049004422862,-1.5622223282261027,-0.789246403548183,-0.9224615848818086,-1.585436155909086,17.68756,-0.901338659799582,0.8630678152710146,-0.7620306203043304,-0.47444659650021287,-0.657395238701571,-0.4499802135364694,-0.5195168525590395,-0.7858087270453947,-0.9005310596513402,-0.8326422056700311,-0.9414378792845474,12.27187,-0.680510975249135,LR
0.9367143163778043,-1.4693509638206146,-0.9009760072850194,-0.31368715548876636,0.07729461495218021,-0.014026845443809456,-1.5622123784848758,-0.7905592213770877,-0.9218178466866145,-1.549021822948545,18.07543,-0.8945608678965326,0.8676774941200754,-0.8087426597424219,-0.9876395170584049,-0.384171791428456,-0.028267311988030636,-0.6474999340476149,-0.7855355114778917,-0.9003620999415602,-0.8341078895826664,-0.6994563209270425,11.65865,-0.8662847878257359,LR
0.9597026446723831,-1.5260898237907345,-0.886072097392405,-0.6134328277532711,0.19899882187706658,-0.3163300627187728,-1.5629526392321411,-0.7922543686087951,-0.921312737106193,-1.5594728088985774,17.83862,-0.8862890544897243,0.853848457572893,-0.8087426597424219,-0.9121703335911022,-0.038088961038657325,0.06544683664125892,-0.8074785763363734,-0.7847177233846859,-0.8996966055744681,-0.8347308052455361,-0.7353678993727695,11.90478,-0.8306423487602443,LR
0.9505078783171541,-1.5112887335207115,-0.8818135882490341,-0.5384964914926931,-0.044409532185551395,0.023761118593253097,-1.5631476541601836,-0.7941445191905272,-0.9204182875864101,-1.5492935347001626,17.9088,-0.8812842659928554,0.9045550193190267,-0.8029021600082649,-0.9926699716293806,-0.1655931051944865,-0.3328376812065303,-0.1344805583335649,-0.783535647868143,-0.9002752063765306,-0.8359277804408562,-0.7023132978819279,11.20249,-0.8877960765760606,LR
0.9734962066117328,-1.5458259580857974,-0.9329139537511173,-0.48853882491157685,-0.4399478957911325,-0.20296641811835364,-1.5644112712959717,-0.796836179604643,-0.9206129575560907,-1.6048913123142166,17.78169,-0.929695701854964,0.770873577444546,-0.8029021600082649,-0.6857607223720822,0.015745164937781813,-0.21569530233326412,-1.0634445297415636,-0.784489114440449,-0.8980359729983459,-0.8341567457130856,-0.8266649574413478,13.18165,-0.702675587729782,LR
0.899933367748213,-1.565561081929585,-0.8892657612226371,-1.0380723392483737,-0.5312259413750136,0.32606430393932734,-1.5649823864423833,-0.7985651069442291,-0.9198858947147831,-1.5471644648799983,18.11078,-0.8955013305728549,0.8815065306672579,-0.7036375813979244,-0.8165752102056743,-0.4388165524676014,-0.12198130716064735,-0.9354610291090669,-0.7841248270171118,-0.8978028775619966,-0.8353903630062229,-0.7115390288425194,11.7142,-0.8557348194397516,LR
0.9872888269467455,-1.5458259580857974,-0.9190740170624578,-1.187945175380626,-0.22696570306951988,-0.3163300627187728,-1.5667345358724023,-0.8012091681154258,-0.91988220778354,-1.5999172022918848,17.68967,-0.9167993963340616,0.8676774941200754,-0.7503520125230494,-1.0278893360775434,-0.25666758761885816,0.13573224861955138,-0.6474999340476149,-0.7817532415468154,-0.8974939226641134,-0.8374423204839108,-0.6329410687238588,11.64922,-0.9088597175852322,LR
0.9872888269467455,-1.565561081929585,-0.8828779975075809,-0.9631360029877956,-0.13568761762753564,0.13712478794474908,-1.5677832385976935,-0.8039146476645822,-0.9190718202961187,-1.5765936241967367,17.61874,-0.8865416065277061,0.8331044307197965,-0.7970640519611408,-0.8266381801647369,-0.20202306519478747,-0.23912368603391362,-0.8394741371365566,-0.7820022951933824,-0.8966015395438883,-0.8372591099948322,-0.7657100189019622,12.2565,-0.7926406851130183,LR
1.007978699053601,-1.5458259580857974,-0.8669092423018278,-0.9631360029877956,-0.13568761762753564,-0.12739049004422862,-1.5686359314208207,-0.806878084401173,-0.9180505403415434,-1.5679226477144248,17.51679,-0.8694759898913993,0.8630678152710146,-0.7853854441798597,-0.7662624212274729,-0.3113124679655409,0.01858976232661413,-0.9674572186251319,-0.7831527743517785,-0.895976733433437,-0.8371003275709616,-0.7979909320112945,11.95188,-0.788490869566696,LR
1.0355648813279634,-1.4940201212381692,-0.926526190036061,-1.1130088391200479,0.7162412130460698,0.06154908263031562,-1.5705204124091539,-0.8088404015770086,-0.9179104369542738,-1.613457174031304,17.50949,-0.9164051508561655,0.8169713099997995,-0.7561901205701734,-0.8367011501237996,0.015745164937781813,0.721444802849576,0.21638460856850525,-0.7820153054585017,-0.8941857605097703,-0.8363308435168304,-0.7233638406308268,12.46953,-0.8077518210236808,LR
1.0792421401250607,-1.5803621721996082,-0.8967179341962402,-1.1379875087995097,1.7811526748804227,-0.3919059907928979,-1.5726486620575406,-0.8108226797256817,-0.9175823000735616,-1.6264051314797887,17.09764,-0.897055553434505,0.8123614423378097,-0.7970640519611408,-0.7209800868202462,-0.0016592754456923097,1.2368716995706313,-0.16756394430975086,-0.7828256591144968,-0.8919154937155037,-0.8345353807238518,-0.816296069888693,12.62773,-0.7403989838622377,LR
1.0217713193886138,-1.5482924696470428,-0.9701743825645411,-1.662542353456845,-0.08139237142469154,-0.9587244613057622,-1.5756415442185259,-0.8134943791669601,-0.9187709667066121,-1.6529942088380025,17.54704,-0.9617074068320723,0.9022501798944963,-0.8145807677895466,-0.7310430567793089,0.7815812018193813,1.4008713062152154,0.3763632508572638,-0.7825487263283883,-0.8911231071582095,-0.8330941248764281,-0.8517448985459525,11.47918,-0.7788240980754118,LR
0.9918866809265288,-1.5458259580857974,-0.9062989256869372,-1.512669353713496,2.328821147674225,-1.9412100412047772,-1.5773111107963638,-0.8130659859806859,-0.9192672276520484,-1.5919978955458032,17.65007,-0.90520549579973,0.9091646981680875,-0.7561901205701734,-1.0530457305666447,0.4537132321221958,1.5180138385451543,0.28037593974083225,-0.7786344951368172,-0.8907762225295593,-0.8349140157346147,-0.635498081388987,11.11163,-0.934774892221448,LR
0.9597026446723831,-1.5507599916595631,-0.9190740170624578,-0.8382420001461015,2.0854136904189278,-1.4877552152923321,-1.578307079893154,-0.8123535327963453,-0.9198195299523928,-1.5900205479811036,17.83568,-0.9183139743990527,0.8676774941200754,-0.66276604169399,-0.8065122402466115,0.30799386935114137,0.9791584046667765,1.1122647119848084,-0.7760454523781004,-0.8896769499687874,-0.8345598087890632,-0.6804744343471425,11.92029,-0.8645304926239382,LR
0.899933367748213,-1.5482924696470428,-0.8882009159094986,-0.9631360029877956,2.2071164225939977,-1.5255429318186262,-1.5784384164773455,-0.8105892898894321,-0.9198637731273196,-1.542507682450797,18.13752,-0.892768042092022,0.8630678152710146,-0.8145807677895466,-0.8266381801647369,0.2533493469270707,0.5808738868189872,0.12039729745207368,-0.7758614500571288,-0.8889404235604409,-0.8337536826371115,-0.7883170836666146,11.87402,-0.7987262746751199,LR
0.9665989548398894,-1.5236233122294882,-0.9339783630096642,-0.7882843335649853,1.842004439548989,-1.4499670037445014,-1.5794841342802706,-0.8102791270807318,-0.9205429058624555,-1.5980419945462243,17.85706,-0.9286509880466843,1.0428457624167105,-0.7328329050076113,-0.7763253911865355,-0.5481061938534296,0.22944627448350266,0.3443676900570806,-0.77770704909475,-0.8914396480022461,-0.8347308052455361,-0.7993791813766967,9.697282,-0.8966280455230442,LR
0.9665989548398894,-1.4718184858331351,-0.9339783630096642,-1.1130088391200479,1.7811526748804227,-1.2610276785807255,-1.5806114399612536,-0.8096434468688414,-0.9210716118028385,-1.5865676271083444,17.9409,-0.9233716226248007,0.9414325445179781,-0.616051610568865,-0.9322942126921154,-0.6027504776624256,0.08887522034190845,0.18438904776832202,-0.7755194659454251,-0.8923299622280657,-0.8373079661252516,-0.5967075773818065,10.89421,-0.9702237538853659,LR
0.8884392036009239,-1.5458259580857974,-0.9531407820456493,-0.7383266669838691,1.750726393965108,-1.412179039707439,-1.5813616504497445,-0.8080204662312369,-0.922209398784723,-1.585557137053966,18.27758,-0.9509166805115546,0.9022501798944963,-0.7328329050076113,-0.9624831225693037,-0.7302546814720233,0.29973176319013156,-0.007585281063796196,-0.7748986904383095,-0.8925120249357469,-0.838761436005281,-0.6627911736558271,11.29554,-0.9081821966797119,LR
0.8930361159763696,-1.4890860876644034,-0.9414305359832671,-1.1379875087995097,1.4464661755886656,-1.8656341131306526,-1.5820014188106208,-0.8067199320779249,-0.9231303942094623,-1.566201145521688,18.33268,-0.9345698093554345,0.9391277050934477,-0.6394088261314279,-0.9524201526102409,-0.2930975476191591,0.5808738868189872,0.7923074274072913,-0.77225388940051,-0.8930444204294207,-0.8405935408960766,-0.604069505834697,10.89259,-0.9656262905978941,LR
0.9574041884846605,-1.5976307844821507,-0.9520763727871027,-1.187945175380626,1.3247618490894701,-1.790058432567296,-1.5839645027546445,-0.806971747427563,-0.9244879222934849,-1.6240717820215445,17.80886,-0.9526074576728109,0.8446286278424486,-0.656925541959833,-1.0932955495857835,-0.3113124679655409,0.4871597381896977,0.3443676900570806,-0.7679010264134929,-0.8922423790315676,-0.8428653509606602,-0.5200191460345289,11.91474,-0.966001346813453,LR
0.9344158601900813,-1.5236233122294882,-0.9361076175813496,-0.9381571696972376,1.0813535946721098,-1.185451998017369,-1.5847953061470716,-0.8069794247248078,-0.9250291638000981,-1.5866816667121255,18.03916,-0.9317418138603576,0.9276035079707956,-0.7561901205701734,-0.7964492702875487,-0.0745186347008686,0.557445196204992,-0.32754260755570547,-0.7683638201298748,-0.8924865085714128,-0.8431707017757921,-0.7769659959700588,11.12711,-0.8440959781698943,LR
0.8401631492197058,-1.5606270483558193,-0.9307846991794319,-1.1130088391200479,1.142205757921708,-1.676694540456108,-1.585141557141761,-0.8054286106813068,-0.925866834578724,-1.5529190024516881,18.49615,-0.93419024713556,0.9414325445179781,-0.645246934178552,-0.8618575446129009,-0.32952726900438534,0.37001725189676044,-0.007585281063796196,-0.7669178220923429,-0.8931030391042422,-0.8449295224709537,-0.6573351158732251,10.94675,-0.9291127532253013,LR
0.9321164623980212,-1.5186892786557225,-0.9669807187343088,-1.5626268566835162,0.47283315791922553,-0.9965121778320561,-1.586890721649411,-0.8059429895967255,-0.9268519826071075,-1.607589588504562,18.0936,-0.9590813061348012,0.9460422233670389,-0.7211566889133632,-0.82160566477665,-0.18380826415594306,0.18258921551452517,0.18438904776832202,-0.7669401254039763,-0.8939092182909062,-0.8454425118403791,-0.74056057387656,10.88882,-0.879012501979473,LR
0.9206222982507315,-1.5556930147820538,-0.926526190036061,-1.0630511725389318,0.8683714218795489,-1.2610276785807255,-1.5877732636962176,-0.8060105498124821,-0.9273718399125054,-1.5810758764497166,18.05341,-0.926911756133954,0.899945340469966,-0.8496165911333898,-0.8819814237139141,0.05298553331646805,0.5105882753470201,0.28037593974083225,-0.7675330217715504,-0.8938657715083914,-0.8447340979492695,-0.7964398971471826,11.34182,-0.8209634786813576,LR
0.8976339699561529,-1.5186892786557225,-0.9446241998134995,-0.8881996667272176,0.9596496667539456,-0.9209367447794681,-1.5882936351623729,-0.8054838872214712,-0.9279175057366107,-1.5770239997449207,18.26171,-0.9402412177665113,0.9299083473953259,-0.6802827575223952,-1.2542968864794513,0.2169193869267697,0.4637312010323753,-0.1344805583335649,-0.7612750842492241,-0.8947188456349126,-0.8490945075893612,-0.478761252839038,10.70699,-1.0542847405204856,LR
0.9505078783171541,-1.5162227670944772,-0.9350427722682109,-0.7133479973044072,0.7770933762956678,-1.1098758224324754,-1.588970217565787,-0.8060212980286253,-0.9283547757821429,-1.5907325517681923,17.96014,-0.9294460864685865,0.8884211433473138,-0.7620306203043304,-0.9775765470993422,0.3444238293514423,0.557445196204992,-0.8394741371365566,-0.7588180027510015,-0.8944857501985631,-0.8507189739258635,-0.6739959373085991,11.43711,-0.8938574689629608,LR
0.8562551673467782,-1.6247674639122256,-0.9659158734211704,-0.7882843335649853,0.898797304213832,-0.505269635393317,-1.5898686791985572,-0.805242820087977,-0.9293576210804978,-1.5990286850311173,18.33991,-0.9712045381208333,0.9829197485659902,-0.610213502521741,-0.8719184537548513,0.6176470380094824,0.6980161122355806,-0.26355133925496665,-0.754985550368751,-0.8955519204488477,-0.8533327769033962,-0.634675008642701,10.43082,-0.9685299516215597,LR
0.9390137141698645,-1.5951642729209052,-0.9307846991794319,-0.6384116610438292,0.8683714218795489,-0.6942089605570929,-1.5906397841436235,-0.8058907839754594,-0.9296761719399759,-1.6002940288087282,17.89226,-0.9340125797134913,0.895335661620905,-0.7094780811320814,-0.9322942126921154,0.4354980731607392,0.4168742801744033,0.21638460856850525,-0.752195777805338,-0.8954215801013031,-0.8541999732183729,-0.6584563238587211,11.42285,-0.9044316345241431,LR
0.9459100243373708,-1.5704951155033509,-0.9105574348303079,-0.38862365536044063,0.9292235851291468,-0.505269635393317,-1.590795000106761,-0.8065970953220044,-0.9294630673140748,-1.5824622013722076,17.87149,-0.9132343012862708,0.9183840558662093,-0.7153161891792061,-0.7964492702875487,0.4354980731607392,0.557445196204992,-0.26355133925496665,-0.7510936224888132,-0.8954126148922128,-0.854541966131322,-0.7420219852638543,11.26445,-0.8594490858325233,LR
0.948208480525094,-1.5458259580857974,-0.9169447624907724,-0.7133479973044072,1.1726318395465067,-1.1098758224324754,-1.591262637944415,-0.8068320206177029,-0.9296053828600914,-1.5827428379623834,17.90531,-0.916329532077351,0.9414325445179781,-0.7445115127888924,-0.8719184537548513,0.5265725555851108,0.6511593448342816,-0.8074785763363734,-0.7495751386884745,-0.8958615649781992,-0.8558732956852979,-0.7306507780112775,10.88764,-0.885388457643937,LR
1.0148750092211074,-1.607498851629682,-0.9382368721530351,-0.7633056638855235,1.0205016307130277,-1.4499670037445014,-1.592891410583222,-0.8086070117407591,-0.9303538299026146,-1.6388770975385747,17.45872,-0.9391928331437249,0.9276035079707956,-0.7445115127888924,-0.9624831225693037,0.4354980731607392,0.8385871817228422,-0.23155571558319524,-0.7473039181205261,-0.8960829366795844,-0.8572412673370909,-0.6786947681646174,10.97498,-0.9141468003658234,LR
0.9551047906925998,-1.5556930147820538,-1.0329849941290066,-0.9131783364066794,1.142205757921708,-1.2988156426177881,-1.5952624339175403,-0.808720635739986,-0.9326249795488895,-1.6733249910704302,17.97324,-1.0214330271631895,0.9345180262443868,-0.7620306203043304,-0.9725460925283663,1.0730194501313406,0.9088727931948093,-0.4875212917588562,-0.7437614087895035,-0.8963712026334129,-0.8587924494779625,-0.688913673572394,10.87106,-0.9127675613795847,LR
0.9734962066117328,-1.6691717451735677,-1.0265972304139503,-1.1629661784789715,-0.08139237142469154,-1.5255429318186262,-1.598405557171048,-0.8110238249135021,-0.9350819505298588,-1.7004832747988237,17.68094,-1.0256243631656279,0.9414325445179781,-0.6744422577882382,-1.042982760607582,1.1458788929017931,0.5105882753470201,-1.1914271920862176,-0.7380108716068251,-0.8970663511536501,-0.8623467329661026,-0.5849632438175806,10.76226,-0.9841734253865579,LR
0.8884392036009239,-1.6420360761947679,-0.9488827089568703,2.5588739282036235,-0.25739178469431884,-1.4877552152923321,-1.5962126342046874,-0.8121431748518305,-0.9360855332144628,-1.6035258120150242,18.11602,-0.9565785448049161,0.8907259827718442,-0.7269947969604873,-1.1989536429302743,0.7815812018193813,-0.754550736211642,0.18438904776832202,-0.7321581109124966,-0.8979621824312176,-0.8648628236827931,-0.5332084295311232,11.21303,-0.9944572248453745,LR
0.9160253858752858,-1.4545498735505915,-0.857328250811131,8.853529446314104,-1.7786934943771286,-1.412179039707439,-1.586441988320088,-0.8148148742931095,-0.9349912520212581,-1.5041824423903685,18.16461,-0.8547281255338977,0.8561532969974233,-0.7795473361327356,-0.8568250292248129,0.8180108038970701,0.2547724722029528,-0.4235299605865292,-0.7305931618795892,-0.8971587617704276,-0.8644109044763961,-0.7426145976411798,11.94851,-0.8237340552414376,LR
1.037863337515686,-1.4545498735505915,-0.8530697416677602,6.580459216317434,-1.5961372039188508,-1.2232394670328945,-1.579782626517071,-0.8193368023704461,-0.933663219387186,-1.5481898296653036,17.47723,-0.846145027057018,0.8169713099997995,-0.8612928072276387,-0.8920443936729768,0.4172831528143574,0.06544683664125892,0.1523928582522569,-0.730721405921478,-0.8959325970194536,-0.8626154416834175,-0.7761685299314347,12.35123,-0.7808929565547734,LR
1.0424611914954693,-1.498954154811935,-0.8882009159094986,2.5089169160668923,-1.717841331127531,-0.8831487807424055,-1.5778394420555,-0.8239539289336211,-0.9329022367784348,-1.587529526375023,17.42104,-0.8822261969949804,0.8792016912427276,-0.7445115127888924,-0.7109171168611834,0.03477069648536241,0.4168742801744033,-0.7434868260201251,-0.7321581109124966,-0.8952284832901262,-0.8618703856944943,-0.8005607480302539,11.82854,-0.7933424031937402,LR
0.9826909729669623,-1.585296205773374,-0.7913235393618417,2.1841914288452524,-0.7746343950828896,-0.8453605691945745,-1.574475434546759,-0.8272628440462393,-0.9306819667833258,-1.5080211146185292,17.5097,-0.8079120256559019,0.8561532969974233,-0.66276604169399,-0.7964492702875487,0.32620867038998574,0.20601775267184758,-0.9994527794253153,-0.7304983728051492,-0.8943367898013694,-0.8625910136182097,-0.6824973642524585,12.0755,-0.8549605098334425,LR
0.9688983526319495,-1.5803621721996082,-0.8647804237847342,1.6096792448289934,-0.013983470489804029,-0.8075726051575121,-1.5727123404013916,-0.829129962736236,-0.9297919415810361,-1.5588133624941007,17.67748,-0.872715116611097,0.9114695375926181,-0.6977994733508004,-0.48954208184736253,0.05298553331646805,0.557445196204992,0.24838016936868842,-0.7338420109407789,-0.8937899120468575,-0.8599283545102543,-0.8962731341200191,11.66999,-0.7407619414901941,LR
1.005679301261541,-1.5334913793770197,-0.9754973009664587,0.760400876283173,0.22942470421134975,-1.4499670037445014,-1.5735172744666297,-0.830716092347064,-0.9310668824051951,-1.6472347130226699,17.66653,-0.9656072801627692,0.9045550193190267,-0.6861208655695192,-0.82160566477665,-0.05630379786976296,-0.14540984431796972,0.056405966279746624,-0.7334089549732403,-0.8940505927419465,-0.8602337053253863,-0.7014243793159396,11.42903,-0.8768831505621163,LR
0.9987829910940346,-1.506354699946946,-0.9126866894019934,0.9102735488043293,1.0205016307130277,-1.2610276785807255,-1.5730426718101176,-0.8313287406672195,-0.9310477103627257,-1.5909011320520432,17.6813,-0.906585722053817,0.8699823335446059,-0.7912259439140167,-0.7763253911865355,-0.8395442035503141,-0.0048387748307082735,1.4322222061342862,-0.7367656033739894,-0.8936306071776365,-0.8576565444456709,-0.7991743277153989,11.85173,-0.7930036427409782,LR
1.0010823888860951,-1.585296205773374,-0.9084281802586225,0.735422042992615,1.2943359667551868,-1.9034220771677146,-1.5730357069912582,-0.8320580839054998,-0.9313957566721552,-1.6059156854507943,17.53877,-0.91083358859964,0.8815065306672579,-0.6977994733508004,-0.82160566477665,-0.6938249600867972,-0.14540984431796972,1.2722435638455276,-0.7377915557091022,-0.8935037149874345,-0.8566305657068269,-0.7042100232994803,11.71224,-0.860477465778408,LR
0.9321164623980212,-1.577895660638363,-0.886072097392405,0.3607400344675322,1.537744221172547,0.3265744555619415,-1.572443697388271,-0.8313594498561997,-0.9303965983050444,-1.560164979711095,17.9091,-0.8927276631324607,0.9229937347152702,-0.7503520125230494,-0.7209800868202462,-0.2384527865800137,0.1591607857768738,0.9842818400681939,-0.7399122289235284,-0.8937961187300739,-0.8550183134029269,-0.8123416626054264,11.26155,-0.8148778891192594,LR
0.9803925167792391,-1.5162227670944772,-0.8754262605885694,0.2858036982069542,0.8075194579204666,-1.82784614909359,-1.571893476698436,-0.8321287150401538,-0.9299408936032918,-1.5571969750665884,17.72697,-0.8749667942288021,0.9091646981680875,-0.7211566889133632,-1.0027329415884434,-0.5116759952380538,-0.6139798201810535,0.9202905088958667,-0.7390368239419378,-0.8947140182146331,-0.8558000114896638,-0.6343421214430917,11.17698,-0.9322220902381433,LR
0.9895882247388056,-1.513755245081957,-0.8913950157943226,0.4856342009203227,0.04686855325643283,0.3265744555619415,-1.5714626529033198,-0.8337670502722484,-0.9288879060400189,-1.5725566222228708,17.69742,-0.8886251608410567,0.8561532969974233,-0.6744422577882382,-0.7964492702875487,-0.9306186859746858,-0.21569530233326412,0.504345913201918,-0.7403062540957095,-0.8941202455202638,-0.8552381659898225,-0.6917925991338468,12.06901,-0.8494435538884771,LR
0.9620020424644437,-1.5754291490771166,-0.8626511692130487,0.2858036982069542,0.10772069657697918,-1.3743915706919134,-1.5708348242319163,-0.8352318785866049,-0.9282390061410827,-1.5534118518697702,17.72112,-0.8705684242882517,1.0313214708875937,-0.8496165911333898,-0.7159496322492703,-0.7848994425111687,-0.14540984431796972,0.9202905088958667,-0.7459136783620763,-0.8965642994445898,-0.8535648435228974,-0.9228419223701284,9.841277,-0.810982143912506,LR
1.007978699053601,-1.5408919245120318,-0.9148159439736788,0.3607400344675322,0.35112883142002976,-1.6389065764190456,-1.571163165692398,-0.836831827332474,-0.9285450214343315,-1.603797523766643,17.57725,-0.911724862361588,0.8284955071224517,-0.7153161891792061,-0.8920443936729768,-0.8395442035503141,-0.07512423284600259,0.24838016936868842,-0.7461701664458547,-0.8955201974012971,-0.8533938470664211,-0.6653518444220498,12.29082,-0.8541136087015395,LR
1.037863337515686,-1.5458259580857974,-0.9297198538662934,0.33576136478807045,0.6858153307117867,-1.5255429318186262,-1.572020833386137,-0.8385684319693048,-0.928997776591088,-1.6281732411627658,17.41815,-0.9245110434473233,0.8722871729691362,-0.7153161891792061,-0.9021073636320396,-0.25666758761885816,0.5808738868189872,0.6963201162908598,-0.7453635300084656,-0.8948422896677721,-0.8533205628707904,-0.6726223203475753,11.73656,-0.8791939807934512,LR
0.9620020424644437,-1.5310238573645003,-0.926526190036061,-0.08887810416814722,1.2639100844209037,-0.9965121778320561,-1.5724954360426504,-0.8381922444042972,-0.9292322654182035,-1.5922101083737095,17.8627,-0.9228885434358701,0.9068598587435572,-0.7561901205701734,-0.8618575446129009,0.32620867038998574,0.7917302608648702,0.4083590212294077,-0.7445252972129298,-0.8946078149684858,-0.8531251383491062,-0.7359074692842232,11.32393,-0.8603322827272234,LR
0.9803925167792391,-1.5458259580857974,-0.9190740170624578,-0.31368715548876636,1.7203005116308248,-1.5633311433664574,-1.573260571142982,-0.8377193228940019,-0.9295921099076132,-1.597173310260028,17.72817,-0.917051214209143,0.9529567416406303,-0.7503520125230494,-0.8719184537548513,0.7997960028582257,1.2837287738852763,0.6323287851185327,-0.7427874975148675,-0.8949036668684677,-0.8533327769033962,-0.7382998674000947,10.74029,-0.8876629921124749,LR
0.9551047906925998,-1.449615839976826,-0.9222676808926902,-1.0130933423467192,1.6290224660469437,-1.3366033591440822,-1.5739968519937566,-0.8365661928477948,-0.9296754345537268,-1.5681070943779332,18.02859,-0.9109591304557301,0.9276035079707956,-0.66276604169399,-0.9373267280802036,0.7087215204338541,1.213443162413309,-0.29554696292673804,-0.7389234487744704,-0.8947816020985452,-0.8554091624462953,-0.627534395306034,11.03943,-0.9434495795296515,LR
0.9895882247388056,-1.521156800668243,-0.9318491084379787,-1.2129238450600879,1.750726393965108,-0.8831487807424055,-1.57569527282115,-0.8360871294997035,-0.9299018121321061,-1.6051144332781373,17.73007,-0.925650464269847,0.9621761937452165,-0.8204212675237036,-0.887013939102001,0.2533493469270707,1.1900147787126594,0.28037593974083225,-0.7394327077234216,-0.8953160664866243,-0.8553480922832702,-0.7876458221157548,10.57669,-0.864010253357198,LR
0.9574041884846605,-1.535957890938266,-0.9414305359832671,-1.5876056899740743,1.750726393965108,-0.7319969245941553,-1.577645422101579,-0.8351044354523368,-0.9302837782089793,-1.602656136080099,17.89663,-0.9369205989647895,1.0497602806903017,-0.8029021600082649,-0.8316686347357127,-0.12916350311679764,0.7683017237075479,-0.7114912652199419,-0.7415849772959946,-0.8975594376536199,-0.8565939236090099,-0.8259827215872041,9.531773,-0.8867193022797832,LR
1.141310814841291,-1.5408919245120318,-0.9084281802586225,-1.6375635201662868,1.2030579211713057,-0.20296641811835364,-1.580576615866959,-0.8380632658105803,-0.9297093543211714,-1.6512498987245094,16.82185,-0.9011991688483717,0.9229937347152702,-0.8437760913992328,-0.9624831225693037,-0.1655931051944865,1.002586788367426,-0.45552573095867305,-0.7423098349240635,-0.8976352971151537,-0.8571557691088546,-0.755048483261739,10.98272,-0.865183816354264,LR
1.0010823888860951,-1.5951642729209052,-0.926526190036061,-1.437732853841822,1.1726318395465067,-0.2785420986817103,-1.5825984032842217,-0.8388770593185563,-0.9296990309136882,-1.6218415640310697,17.5426,-0.9279828998066737,0.8768968518181971,-0.7795473361327356,-0.82160566477665,-0.20202306519478747,0.06544683664125892,-0.6155043732474317,-0.743651750840642,-0.8973373763207663,-0.8571557691088546,-0.7675024884383178,11.72577,-0.8196689298083084,LR
0.9918866809265288,-1.543358436073277,-0.9446241998134995,-0.07376604418845852,0.7466674939613845,-0.20296641811835364,-1.5834172669871773,-0.8390950945603157,-0.9300249556356533,-1.6205732453072723,17.69542,-0.9392882743208693,0.9022501798944963,-0.8204212675237036,-0.9121703335911022,-0.0745186347008686,-0.07512423284600259,-0.9674572186251319,-0.7442149094593721,-0.8976594342165508,-0.8577908988043266,-0.7580883652713548,11.29925,-0.8474835826975031,LR
1.074645227749615,-1.592696750908385,-0.8818135882490341,-1.41275418416236,0.7770933762956678,0.25048853154947565,-1.5853166725873498,-0.8416362799484282,-0.9289358361461898,-1.6156358262878954,17.08851,-0.8852303915863233,0.8976405010454355,-0.7269947969604873,-0.8316686347357127,0.14406006346385464,0.37001725189676044,-1.1274358609138906,-0.7436257303104032,-0.8974263387802015,-0.8587802354453569,-0.7265006623194492,11.4843,-0.8581424383718751,LR
1.0240707171806738,-1.577895660638363,-0.8466824140072957,-0.07376604418845852,0.9596496667539456,0.2882763965822308,-1.584974401489152,-0.8431041791816825,-0.9272309991389867,-1.5654395592981736,17.3547,-0.8543368167076059,0.9137743770171485,-0.7328329050076113,-0.7763253911865355,-0.20202306519478747,0.27630324137847645,-0.5835086028752877,-0.7446349551617912,-0.8974684062997793,-0.8589268038366218,-0.7655636948581778,11.33306,-0.841035035507445,LR
0.9528063345048772,-1.5556930147820538,-0.8679740876149665,-1.3877755144828983,1.1726318395465067,-0.2785420986817103,-1.5854947729553073,-0.842904569453311,-0.9261949714594351,-1.5495295470975543,17.8094,-0.8735557331328689,0.8838113700917885,-0.6802827575223952,-0.8769509691429382,-0.2930975476191591,0.8620157188801646,-0.29554696292673804,-0.7437168021662374,-0.8967036050012247,-0.8598428562820178,-0.6614797444134112,11.63683,-0.8914619486184363,LR
0.9597026446723831,-1.5951642729209052,-0.9307846991794319,-1.4627118507434764,1.598596185131629,0.2127006170145668,-1.58725587715243,-0.8423241657815852,-0.9261640012369865,-1.6085653708534402,17.77736,-0.9332674043688647,0.9575664204896911,-0.6977994733508004,-0.8367011501237996,-0.14737830415564204,0.3934457737084156,-1.0634445297415636,-0.7436090028266785,-0.8974987500843928,-0.8616016769771794,-0.7169091212493981,10.74105,-0.9012618045733096,LR
0.9597026446723831,-1.5828296942121287,-0.8658448330432811,-0.07376604418845852,1.2030579211713057,-0.20296641811835364,-1.5866967016954914,-0.8423625522678106,-0.925130185716182,-1.556614877262938,17.72577,-0.8742656686582425,0.9068598587435572,-0.6802827575223952,-1.012795911547506,-0.20202306519478747,0.5105882753470201,-0.6155043732474317,-0.7411798004679974,-0.8975456450242502,-0.864007841400422,-0.5963746901821971,11.21624,-0.9543020126056007,LR
1.0171734654088305,-1.5458259580857974,-0.9701743825645411,-1.4876906840340345,1.142205757921708,-0.20296641811835364,-1.58929955400039,-0.8429260658855975,-0.925872733668714,-1.650593427266218,17.57676,-0.9616237122613454,0.9299083473953259,-0.7153161891792061,-0.8618575446129009,-0.22023798554116927,0.4871597381896977,-0.26355133925496665,-0.7411110319237959,-0.8978380487668896,-0.864765111421951,-0.7099056867037788,11.05635,-0.8902762870337747,LR
1.1505065228008575,-1.5458259580857974,-0.9243969354643756,-1.2379025147395497,0.8683714218795489,-0.12739049004422862,-1.591919320865375,-0.8463086830517682,-0.9256323457516085,-1.6685611105785472,16.77911,-0.9157436700822659,0.899945340469966,-0.7153161891792061,-1.108388974115822,0.016555566754252512,0.44030281733172577,-0.007585281063796196,-0.7377488076951387,-0.8979573550109382,-0.8669269951930866,-0.5726226397749341,11.1924,-0.9705625143381278,LR
0.9895882247388056,-1.5507599916595631,-0.9893368016005264,-1.0880298422183936,0.7162412130460698,-0.16517845408129117,-1.5941420930554153,-0.846764714508124,-0.9267236773998181,-1.6546909198125266,17.74342,-0.9803441320767549,0.9483470627915693,-0.8029021600082649,-0.9574506071812167,-0.32952726900438534,-0.40312329267849745,0.18438904776832202,-0.7385480096953172,-0.8993483416828811,-0.8672934161712471,-0.7325036062156944,10.69335,-0.89362759579859,LR
0.9367143163778043,-1.6124328852034477,-0.9552700366173348,-1.0130933423467192,0.3815549130448287,-0.08960252600716606,-1.595640524084154,-0.8470641291006812,-0.9273165359438463,-1.621289215689275,17.90343,-0.9576526251292401,0.9114695375926181,-0.6919613653036762,-0.8920443936729768,-4.992539480610809,-0.05169569568868018,-0.16756394430975086,-0.747928410846247,-0.8996421246884575,-0.8681972545840375,-0.6703213747590688,11.27004,-0.9046978034513145,LR
0.9826909729669623,-1.5680275934908314,-0.9393012814115818,-0.6384116610438292,0.22942470421134975,-0.12739049004422862,-1.596621568569105,-0.8482065109307451,-0.9274809730773264,-1.6182498123363154,17.70173,-0.9373258568862016,0.9068598587435572,-0.7328329050076113,-0.9121703335911022,4.315270260870732,-0.30940914404920794,-0.26355133925496665,-0.7369849192717124,-0.9000903851429755,-0.868893454442538,-0.690645784440689,11.28705,-0.8909417093516961,LR
0.9137259880832257,-1.6025648180559162,-0.9403656906701287,-0.6883693276249454,0.2598507858361487,0.32606430393932734,-1.5972732766194515,-0.8482587165520116,-0.9275945305596395,-1.598869029585823,18.03089,-0.9442049632696052,0.8722871729691362,-0.7211566889133632,-0.8970748482439526,-0.22023798554116927,-0.05169569568868018,-0.6474999340476149,-0.7364273364808903,-0.899735914568172,-0.8695774402684363,-0.6798873091214587,11.73853,-0.8744997288051908,LR
0.9987829910940346,-1.7234440935824413,-0.9446241998134995,-1.0130933423467192,-0.19653974101903038,0.5905795891061173,-1.599470179482303,-0.8508444302641454,-0.9278445044979803,-1.662043995134614,17.3738,-0.9569096522733165,0.8861162095163189,-0.6802827575223952,-0.9574506071812167,-0.20202306519478747,0.11230372680789627,-0.8714699075087005,-0.7346151924107186,-0.8995717822786716,-0.8714217591918342,-0.6197078880141289,11.52765,-0.9235595015175423,LR
1.0217713193886138,-1.5704951155033509,-0.9563344458758817,-1.2878601813206658,0.41198099466962773,0.2127006170145668,-1.6015735547776233,-0.8523092585785017,-0.9281460954737349,-1.647348752626451,17.49741,-0.9514621635470795,0.9322131868198564,-0.621892110303022,-0.8719184537548513,-0.019874112276797952,0.3934457737084156,-0.7754830155361901,-0.7326506423777227,-0.8998634963898425,-0.8734859307021277,-0.6309089935658059,11.06487,-0.9400377778268412,LR
1.0355648813279634,-1.577895660638363,-0.9648514641626234,-1.0380723392483737,0.5641112035031066,0.741731197743599,-1.603683894891802,-0.8538186152168794,-0.9283687861208701,-1.6609452483433977,17.41734,-0.9593676296662343,0.9160792164416789,-0.6802827575223952,-0.7662624212274729,-0.019874112276797952,0.25287470882485424,-0.5195168525590395,-0.7327361384056488,-0.8998600482325001,-0.8737302113542347,-0.7298587991242959,11.34158,-0.8632843381012816,LR
0.9183238420630089,-1.5877637277858943,-0.9137510986605403,-0.9631360029877956,-0.19653974101903038,0.09933689816091709,-1.6040162162487739,-0.8543683096996252,-0.9280546595788852,-1.5777042707726963,18.00035,-0.9188528499684676,0.9483470627915693,-0.7328329050076113,-0.9675135771402794,0.08941521890943306,0.06544683664125892,-0.4235299605865292,-0.7313979397076756,-0.9008407041806918,-0.8752569654298948,-0.6722363906820943,10.71808,-0.930830752664302,LR
0.9757946627994559,-1.5532265032208084,-0.9659158734211704,-0.6883693276249454,-0.5008000590407304,0.17491270247965793,-1.6051892907393985,-0.855891485473044,-0.9285391223443403,-1.6321785103773196,17.79219,-0.9599769848741552,0.8676774941200754,-0.7153161891792061,-0.887013939102001,-0.2384527865800137,-0.754550736211642,-0.29554696292673804,-0.7310206420192191,-0.9008834613317381,-0.8754523899515826,-0.6793075000979638,11.80921,-0.8711484200403791,LR
1.0033808450738178,-1.543358436073277,-0.9829494739400619,-0.7633056638855235,-0.22696570306951988,0.9306707704181432,-1.6068837316703029,-0.8574561186515856,-0.9289350987599408,-1.6540017239461944,17.67136,-0.973380596959724,0.9137743770171485,-0.7970640519611408,-0.9322942126921154,-0.2930975476191591,-0.07512423284600259,-0.6474999340476149,-0.7317659443496182,-0.9013275839974452,-0.875904309157976,-0.7322237614819574,11.14893,-0.8714750819055385,LR
1.0516559578506988,-1.607498851629682,-0.9499471182154172,-0.2887084858093045,-0.07483559986001424,0.3265744555619415,-1.6082359015030079,-0.8600525805798626,-0.929103222824665,-1.6624535460594994,17.2656,-0.9483830843398224,0.9575664204896911,-0.7503520125230494,-0.8568250292248129,-0.36595699038961155,-0.35626621836385275,-0.23155571558319524,-0.7330223642382705,-0.9025875406903752,-0.8762829441687423,-0.7476572900000915,10.69642,-0.8838156412561176,LR
1.0171734654088305,-1.592696750908385,-0.9659158734211704,-0.43858115833046063,-0.28781788624816934,1.0440344150185625,-1.6096079708181672,-0.8621239153765781,-0.9292352149631995,-1.6574923274706386,17.49796,-0.9624224814977532,0.9114695375926181,-0.7795473361327356,-0.9574506071812167,-0.4934614328142842,-0.3796947555211751,-0.29554696292673804,-0.7336710188849267,-0.9031951060141143,-0.8767837195055586,-0.7045374233474474,11.1624,-0.8884010059559904,LR
1.007978699053601,-1.5458259580857974,-0.9542056273587881,-0.038920660098121944,-0.5920781046246115,1.195186023656044,-1.6101412769479182,-0.8641507218492724,-0.9290007261360841,-1.634831170726152,17.61157,-0.9475725684969972,0.9022501798944963,-0.8145807677895466,-0.9071378182030153,-0.657395238701571,-0.7076936618969973,-0.07157705233724056,-0.7357322166016654,-0.9038074987581327,-0.8762829441687423,-0.7562154175109177,11.30713,-0.8482820894790102,LR
0.9895882247388056,-1.592696750908385,-0.926526190036061,-0.2887084858093045,-0.6225041862494105,1.3841255963305883,-1.6105233470110225,-0.8661729219436193,-0.9282972596547379,-1.616735564727842,17.6105,-0.9281451498078195,0.9137743770171485,-0.7094780811320814,-0.8316686347357127,-0.5116759952380538,-0.30940914404920794,-0.32754260755570547,-0.7366224904576786,-0.9041661071217472,-0.8765272248208458,-0.7171084877590537,11.29105,-0.8739431937756571,LR
1.0240707171806738,-1.5902302393471397,-0.9520763727871027,-0.2387508192281883,-0.3790959318320505,1.3841255963305883,-1.611507376418341,-0.8683763062529497,-0.9280384370814119,-1.6493102338114947,17.44898,-0.9495269101397522,0.9345180262443868,-0.8554546991805139,-0.887013939102001,-0.5481061938534296,-0.8248361942269362,0.056405966279746624,-0.739421556067605,-0.9053922718727211,-0.8756600285058724,-0.8077342842767723,10.90424,-0.8354454880368889,LR
1.0125765530333843,-1.5458259580857974,-0.9456886090720464,0.33576136478807045,-0.47037397741593157,1.8753683862800963,-1.6115760296328043,-0.8702464958618449,-0.9273725772987543,-1.630238845464305,17.5768,-0.9397537336001738,0.8884211433473138,-0.7445115127888924,-0.8266381801647369,-0.4934614328142842,-0.35626621836385275,0.4083590212294077,-0.7405924799283312,-0.9053039990447544,-0.8747073339626593,-0.7404563179953639,11.59548,-0.8435757389031542,LR
1.0148750092211074,-1.5458259580857974,-0.9339783630096642,0.8103583792531929,-1.1093206950841308,1.53527720496807,-1.6111103817433963,-0.8728030358444474,-0.9266912324048715,-1.6222600397945106,17.55147,-0.9291568262855491,0.8930308221963745,-0.7678687283514546,-1.048015275995669,-0.4388165524676014,-0.23912368603391362,0.6003332243183495,-0.7397133577281354,-0.9055619212139694,-0.8751226110712391,-0.6429715819252626,11.30902,-0.9200630097015424,LR
1.053955355642759,-1.5902302393471397,-0.9648514641626234,1.0351675516460235,-0.8659124406667706,1.762004741679677,-1.6113790247565172,-0.8758969866342041,-0.926507623228923,-1.6710084996405723,17.29497,-0.9599542258242209,0.8768968518181971,-0.7036375813979244,-0.9423571826511782,-0.45703171142905796,-0.28598076034855846,1.1122647119848084,-0.7389030040721403,-0.9053819274006937,-0.8747317620278672,-0.643500177533433,11.64498,-0.9023990718075785,LR
0.9826909729669623,-1.6198334303384598,-0.9424949452418141,1.1101038879066014,-0.7137822318332916,1.7997927057167395,-1.6107900000758972,-0.8777518216486092,-0.9260187361459749,-1.631889940597316,17.62286,-0.9453598015130509,0.9068598587435572,-0.621892110303022,-0.8719184537548513,-0.5298910348919731,-0.6374082038817029,1.3682304558180378,-0.7378826275649363,-0.9057991544391297,-0.8746462637996308,-0.6240976093276531,11.38363,-0.9282053591554067,LR
0.9551047906925998,-1.585296205773374,-0.9808202193683765,1.0351675516460235,-0.5008000590407304,1.3841255963305883,-1.6104765832272563,-0.8785625442376868,-0.9263616207516623,-1.6417151961996426,17.87163,-0.9772305472131463,0.8630678152710146,-0.6802827575223952,-0.8266381801647369,-0.5298910348919731,-0.8951216522422306,-0.1344805583335649,-0.737981133857981,-0.9055488182160681,-0.8745119094409751,-0.6823327497032011,11.94769,-0.8618930005274438,LR
0.948208480525094,-1.5630945703683399,-0.9126866894019934,0.9602312153854454,-0.7746343950828896,1.610853133042195,-1.6091273983169188,-0.8796112630413612,-0.9253713110195366,-1.5833477436867902,17.87291,-0.9142922300267704,0.8930308221963745,-0.645246934178552,-0.9775765470993422,-0.7666848800873991,-1.0122641845721698,1.592200219707163,-0.7366949762204854,-0.9061322464384101,-0.8747073339626593,-0.5834048927512792,11.43983,-0.9510716897167721,LR
0.9872888269467455,-1.577895660638363,-0.9116218440888548,1.1350827211971597,-0.3790959318320505,1.53527720496807,-1.6079463640333116,-0.8809885701671235,-0.9243795265149128,-1.6012856775372637,17.6307,-0.9134244494776581,0.8884211433473138,-0.7561901205701734,-0.8115447556346984,-0.22023798554116927,-0.4265516763791471,0.9522860696960499,-0.7377265043835061,-0.9060901789188321,-0.8730462255283399,-0.7578103495881651,11.60431,-0.8321062778596727,LR
0.9321164623980212,-1.5458259580857974,-0.9031052618567047,0.6355068734414788,-0.07483559986001424,1.0062466984922682,-1.6065275309343876,-0.8809210099513674,-0.9234607432489206,-1.5659115840929554,17.97956,-0.904571913216071,0.9598712599142215,-1.15908654305866,-1.042982760607582,-0.4388165524676014,-0.40312329267849745,0.9202905088958667,-0.7434045558033769,-0.9078252916935512,-0.8700782156052526,-0.9628908131538517,10.30533,-0.7644388774206691,LR
0.899933367748213,-1.5482924696470428,-0.978690964796691,0.46065536762976467,-0.19653974101903038,0.3638522256520485,-1.606165360353736,-0.8802024149292302,-0.924229837106409,-1.6094548797629367,18.23714,-0.9736713254685642,0.9068598587435572,-0.645246934178552,-0.7813558457575103,-0.3113124679655409,-0.8951216522422306,0.47235014282977417,-0.7431555021568099,-0.9082556217298885,-0.8699072191487797,-0.6911377990379128,11.46163,-0.8817346841891569,LR
