this file contains data from all 3 sensors in the format of sensor1,2,3 with each sensor having accx,accy,accz,gyrox,gyroy,gyroz,gyro_biasedx,...,gyro_biasedz.

sensor-1-1,sensor-1-2,sensor-1-3,sensor-1-4,sensor-1-5,sensor-1-6,sensor-1-7,sensor-1-8,sensor-1-9,sensor-2-1,sensor-2-2,sensor-2-3,sensor-2-4,sensor-2-5,sensor-2-6,sensor-2-7,sensor-2-8,sensor-2-9,sensor-3-1,sensor-3-2,sensor-3-3,sensor-3-4,sensor-3-5,sensor-3-6,sensor-3-7,sensor-3-8,sensor-3-9,posture
-0.5249023,-0.8256836,0.04541016,-1.801527,-1.954198,1.129771,0.3413438,-0.2490375,-0.2932826,-0.6269531,0.2133789,0.8796387,-0.610687,0.778626,-0.9007633,0.6385953,-0.1712672,-0.5601833,0.4257813,0.2773438,0.1086426,-2.244275,0.4122138,-3.419847,1.556245,-0.3844886,-0.03947973,NEUTRAL
-0.5148926,-0.8208008,0.05029297,-1.954198,-1.419847,1.664122,0.188672,0.2853136,0.2410685,-0.6274414,0.1955566,0.8857422,-1.480916,0.8549618,-0.610687,-0.2316337,-0.09493131,-0.270107,0.425293,0.279541,0.1008301,-2.870229,2.21374,-3.832061,0.9302907,1.417038,-0.4516935,NEUTRAL
-0.5180664,-0.8337402,0.04711914,-2.70229,-1.633588,1.725191,-0.5594196,0.07157314,0.3021373,-0.6257324,0.1970215,0.8847656,-1.145038,0.3816794,-0.1374046,0.1042442,-0.5682137,0.2031754,0.4331055,0.2814941,0.107666,-3.694656,0.4732824,-3.770992,0.1058633,-0.3234199,-0.3906248,NEUTRAL
-0.5197754,-0.8283691,0.04956055,-2.854962,-1.526718,1.740458,-0.7120914,0.1784434,0.3174044,-0.6264648,0.1992188,0.880127,-1.450382,1.022901,-0.2442748,-0.2010993,0.0730077,0.09630518,0.4309082,0.279541,0.1008301,-4.732824,1.725191,-0.03053435,-0.9323046,0.9284885,3.349833,NEUTRAL
-0.5185547,-0.8327637,0.05151367,-2.366412,-1.725191,1.374046,-0.2235417,-0.0200299,-0.04900777,-0.626709,0.203125,0.8830566,-2.091603,0.7633588,-0.07633588,-0.8423206,-0.1865343,0.2642441,0.4257813,0.2783203,0.1054688,-3.664122,0.4274809,-3.450382,0.1363976,-0.3692214,-0.07001424,NEUTRAL
-0.5202637,-0.826416,0.05029297,-2.167939,-1.450382,1.236641,-0.02506852,0.2547793,-0.1864124,-0.6186523,0.1938477,0.8852539,-1.40458,0.4885496,-0.1832061,-0.1552978,-0.4613435,0.1573739,0.4291992,0.2663574,0.109375,-4.503817,1.053435,-3.435115,-0.7032969,0.2567327,-0.0547471,NEUTRAL
-0.5131836,-0.8293457,0.05078125,-2.549618,-1.328244,1.068702,-0.4067478,0.3769166,-0.3543513,-0.6203613,0.1987305,0.8845215,-0.5801527,0.4885496,-0.2900764,0.6691297,-0.4613435,0.05050364,0.4248047,0.2753906,0.109375,-4.534351,1.267176,-3.78626,-0.7338316,0.4704732,-0.4058921,NEUTRAL
-0.5185547,-0.831543,0.04614258,-2.229008,-1.328244,0.9923664,-0.08613729,0.3769166,-0.4306872,-0.6245117,0.2016602,0.8908691,-0.3206107,0.4427481,-0.4580153,0.9286717,-0.507145,-0.1174353,0.4287109,0.2758789,0.1096191,-4.427481,1.160305,-3.78626,-0.626961,0.3636031,-0.4058921,NEUTRAL
-0.517334,-0.8334961,0.04760742,-1.755725,-1.175573,1.160305,0.3871453,0.5295885,-0.2627482,-0.6237793,0.2099609,0.8935547,-1.328244,0.2137404,-0.6717557,-0.07896197,-0.7361526,-0.3311758,0.4294434,0.2819824,0.1096191,-4.549618,1.083969,-3.78626,-0.7490985,0.2872672,-0.4058921,NEUTRAL
-0.5195313,-0.8283691,0.04345703,-1.679389,-1.129771,1.129771,0.463481,0.57539,-0.2932826,-0.6184082,0.2050781,0.8876953,-1.236641,0.6412213,-0.7480916,0.01264119,-0.3086718,-0.4075116,0.4277344,0.2824707,0.09472656,-5.526718,0.6412213,-4.061069,-1.726198,-0.155481,-0.680701,NEUTRAL
-0.5178223,-0.8305664,0.0456543,-1.603053,-1.267176,1.740458,0.539817,0.4379854,0.3174044,-0.6152344,0.2028809,0.8876953,-0.7938931,0.3664122,-0.9160305,0.4553892,-0.5834809,-0.5754505,0.4260254,0.2858887,0.1118164,-5.496183,0.778626,-3.908397,-1.695664,-0.01807636,-0.5280294,NEUTRAL
-0.5251465,-0.8261719,0.04980469,-0.8091603,-1.526718,1.267176,1.33371,0.1784434,-0.1558781,-0.5942383,0.2075195,0.8964844,-1.236641,0.519084,-0.8549618,0.01264119,-0.4308091,-0.5143818,0.4287109,0.2780762,0.119873,-7.221374,-0.09160305,-4.21374,-3.420854,-0.8883054,-0.8333729,NEUTRAL
-0.5187988,-0.8295898,0.05200195,-0.8091603,-1.969466,0.5648855,1.33371,-0.2643046,-0.8581681,-0.6164551,0.2089844,0.8833008,-0.961832,0.519084,-1.145038,0.2874503,-0.4308091,-0.8044581,0.4272461,0.277832,0.1120605,-3.160305,0.2442748,-3.832061,0.6402144,-0.5524275,-0.4516935,NEUTRAL
-0.5178223,-0.828125,0.05249023,-1.160305,-1.419847,1.435114,0.982565,0.2853136,0.01206088,-0.6225586,0.1955566,0.8901367,-1.664122,0.1221374,-0.7480916,-0.4148397,-0.8277557,-0.4075116,0.4248047,0.2780762,0.1049805,-4.671756,2.458015,-4.534351,-0.871236,1.661313,-1.153984,NEUTRAL
-0.5151367,-0.8293457,0.05908203,-1.099237,-1.251908,1.328244,1.043634,0.4532526,-0.09480929,-0.614502,0.1989746,0.8857422,-1.328244,0.7633588,-1.160305,-0.07896197,-0.1865343,-0.8197254,0.4240723,0.2868652,0.1113281,-4.839694,-0.7175572,-3.541985,-1.039175,-1.51426,-0.1616173,NEUTRAL
-0.5253906,-0.8254395,0.05297852,-1.022901,-1.343511,1.236641,1.11997,0.3616495,-0.1864124,-0.6201172,0.1955566,0.8884277,-0.6717557,0.5954198,-0.870229,0.5775266,-0.3544733,-0.529649,0.4255371,0.2827148,0.1210938,-5.816794,1.618321,-4.137404,-2.016274,0.8216183,-0.7570369,NEUTRAL
-0.5253906,-0.8349609,0.046875,-1.145038,-2.290076,1.251908,0.9978323,-0.5849153,-0.1711452,-0.6196289,0.203125,0.8896484,-0.870229,0.9312977,-0.8854962,0.3790534,-0.0185954,-0.5449162,0.4284668,0.2666016,0.1149902,-4.396946,0.03053435,-3.938931,-0.5964267,-0.766168,-0.5585637,NEUTRAL
-0.5219727,-0.8322754,0.06323242,-1.343511,-2.015267,1.694656,0.7993589,-0.3101062,0.2716029,-0.6293945,0.1962891,0.8935547,-1.954198,0.3206107,-0.3358779,-0.7049161,-0.6292825,0.004702121,0.4255371,0.2780762,0.1044922,-4.412214,1.969466,-4.259542,-0.6116941,1.172763,-0.8791744,NEUTRAL
-0.5251465,-0.8259277,0.05810547,-2.290076,-2.061069,1.572519,-0.1472058,-0.3559078,0.1494654,-0.611084,0.1977539,0.8791504,-1.877863,0.5954198,-0.351145,-0.6285802,-0.3544733,-0.01056504,0.4228516,0.2822266,0.1057129,-4.519084,1.114504,-4.0,-0.7185643,0.3178015,-0.6196325,NEUTRAL
-0.5197754,-0.8242188,0.05224609,-1.755725,-2.427481,1.160305,0.3871453,-0.72232,-0.2627482,-0.6169434,0.1977539,0.8881836,-1.19084,0.4885496,-0.1068702,0.05844271,-0.4613435,0.2337098,0.4250488,0.2827148,0.123291,-3.465649,1.984733,-4.015267,0.3348708,1.18803,-0.6348999,NEUTRAL
-0.5202637,-0.8342285,0.05761719,-1.694656,-1.954198,1.480916,0.448214,-0.2490375,0.0578624,-0.6169434,0.1958008,0.8847656,-2.015267,0.2748091,-0.1832061,-0.7659848,-0.675084,0.1573739,0.4265137,0.2805176,0.1074219,-3.908397,1.419847,-3.633588,-0.1078773,0.6231451,-0.2532203,NEUTRAL
-0.5253906,-0.8322754,0.0546875,-1.694656,-1.770992,1.206107,0.448214,-0.06583142,-0.2169467,-0.6137695,0.2021484,0.895752,-1.083969,0.7480916,-0.1526718,0.1653129,-0.2018015,0.1879082,0.4233398,0.2680664,0.1162109,-4.900764,1.038168,-3.572519,-1.100244,0.2414656,-0.1921515,NEUTRAL
-0.5202637,-0.8405762,0.05834961,-1.358779,-2.015267,1.206107,0.7840919,-0.3101062,-0.2169467,-0.628418,0.2023926,0.888916,-0.2748091,0.01526718,0.1221374,0.9744732,-0.9346259,0.4627174,0.4257813,0.2792969,0.1237793,-3.083969,0.9770992,-3.664122,0.7165504,0.1803969,-0.2837546,NEUTRAL
-0.5209961,-0.8388672,0.04931641,-1.557252,-1.908397,1.938931,0.5856185,-0.203236,0.5158777,-0.6108398,0.1994629,0.8945313,-1.022901,1.19084,-0.5496183,0.2263815,0.2409465,-0.2090383,0.4199219,0.2871094,0.1005859,-2.305344,0.1526718,-2.992366,1.495176,-0.6440306,0.3880012,NEUTRAL
-0.5136719,-0.8295898,0.05957031,-2.198473,-2.21374,1.251908,-0.05560279,-0.5085793,-0.1711452,-0.6203613,0.2016602,0.8833008,-2.152672,1.618321,-0.4580153,-0.9033895,0.6684275,-0.1174353,0.4282227,0.2810059,0.1137695,-2.503817,1.709924,-3.603053,1.296703,0.9132213,-0.2226858,NEUTRAL
-0.517334,-0.8325195,0.05981445,-1.358779,-1.709924,1.664122,0.7840919,-0.00476265,0.2410685,-0.6174316,0.1945801,0.8774414,-1.954198,1.267176,-0.7480916,-0.7049161,0.3172824,-0.4075116,0.4204102,0.2773438,0.1142578,-2.961832,-0.1374046,-3.312977,0.8386877,-0.9341069,0.06739044,NEUTRAL
-0.527832,-0.8349609,0.06323242,-2.305344,-1.541985,1.847328,-0.1624732,0.1631763,0.4242745,-0.6157227,0.2062988,0.8876953,-1.770992,1.160305,-0.2442748,-0.52171,0.2104123,0.09630518,0.4311523,0.2807617,0.1203613,-3.89313,1.206107,-3.419847,-0.09261012,0.4094046,-0.03947973,NEUTRAL
-0.5224609,-0.829834,0.05688477,-2.610687,-1.78626,1.89313,-0.4678166,-0.08109856,0.4700762,-0.6120605,0.2016602,0.894043,-1.038168,1.328244,-0.6717557,0.2111144,0.3783512,-0.3311758,0.4238281,0.2810059,0.1132813,-3.954198,0.4274809,-3.282443,-0.1536787,-0.3692214,0.09792471,NEUTRAL
-0.5231934,-0.8256836,0.0559082,-2.137405,-1.374046,1.923664,0.005465746,0.3311151,0.5006104,-0.6252441,0.197998,0.8918457,-1.923664,0.8396947,-0.7328244,-0.6743817,-0.1101984,-0.3922445,0.4250488,0.2861328,0.1210938,-4.198473,0.8396947,-3.709924,-0.3979537,0.04299235,-0.3295562,NEUTRAL
-0.5229492,-0.8278809,0.05615234,-2.534351,-1.389313,1.572519,-0.3914807,0.315848,0.1494654,-0.6005859,0.1933594,0.8894043,-0.9160305,0.7022901,-0.5496183,0.3332518,-0.2476031,-0.2090383,0.4221191,0.2783203,0.111084,-4.030534,0.9007633,-4.091603,-0.2300146,0.104061,-0.7112358,NEUTRAL
-0.5273438,-0.8232422,0.05908203,-2.839695,-1.801527,1.312977,-0.6968243,-0.09636569,-0.1100765,-0.614502,0.2026367,0.8806152,-1.175573,1.068702,-0.1679389,0.07370985,0.1188092,0.172641,0.4284668,0.279541,0.1115723,-3.557252,1.022901,-3.572519,0.2432678,0.2261985,-0.1921515,NEUTRAL
-0.5192871,-0.8271484,0.05908203,-2.839695,-1.526718,2.198473,-0.6968243,0.1784434,0.7754196,-0.6162109,0.1931152,0.8901367,-1.587786,0.519084,-0.3053435,-0.338504,-0.4308091,0.03523648,0.4255371,0.2810059,0.1066895,-3.267176,0.870229,-3.877863,0.533344,0.07352668,-0.4974952,NEUTRAL
-0.5197754,-0.8242188,0.05419922,-2.610687,-1.480916,1.557252,-0.4678166,0.224245,0.1341983,-0.6171875,0.2011719,0.8896484,-1.709924,1.038168,-0.5648855,-0.4606413,0.08827484,-0.2243055,0.4226074,0.2822266,0.1088867,-3.603053,0.09160305,-3.358779,0.1974664,-0.7050993,0.0215888,NEUTRAL
-0.526123,-0.8312988,0.06152344,-2.625954,-1.847328,1.221374,-0.4830837,-0.1421672,-0.2016796,-0.6171875,0.1948242,0.892334,-1.038168,0.8549618,-0.4885496,0.2111144,-0.09493131,-0.1479696,0.4257813,0.2854004,0.1247559,-1.175573,0.519084,-3.038168,2.624947,-0.2776184,0.3421996,NEUTRAL
-0.5222168,-0.8291016,0.05322266,-2.916031,-1.694656,1.572519,-0.7731602,0.01050448,0.1494654,-0.6206055,0.1918945,0.8879395,-2.137405,1.557252,-0.4274809,-0.8881224,0.6073588,-0.08690092,0.4101563,0.2773438,0.0949707,-1.450382,0.6564885,-3.083969,2.350138,-0.1402138,0.2963982,NEUTRAL
-0.5263672,-0.8183594,0.05786133,-2.549618,-1.954198,1.221374,-0.4067478,-0.2490375,-0.2016796,-0.6218262,0.197998,0.8984375,-1.221374,1.51145,-0.519084,0.02790833,0.5615573,-0.178504,0.432373,0.2854004,0.1181641,-2.748092,1.328244,-3.587786,1.052428,0.531542,-0.2074187,NEUTRAL
-0.5266113,-0.8276367,0.06616211,-1.954198,-1.801527,1.175573,0.188672,-0.09636569,-0.2474811,-0.6123047,0.1877441,0.8840332,-1.175573,1.022901,-0.2137404,0.07370985,0.0730077,0.1268395,0.4250488,0.2878418,0.1088867,-3.160305,0.9007633,-3.022901,0.6402144,0.104061,0.3574667,NEUTRAL
-0.5222168,-0.8232422,0.05517578,-2.992366,-1.526718,0.8244275,-0.8494959,0.1784434,-0.5986261,-0.6152344,0.1877441,0.894043,-0.9312977,0.3206107,0.0610687,0.3179846,-0.6292825,0.4016487,0.4255371,0.2819824,0.1120605,-3.984733,1.618321,-3.541985,-0.1842132,0.8216183,-0.1616173,NEUTRAL
-0.5249023,-0.8288574,0.05029297,-2.442748,-1.389313,1.374046,-0.2998776,0.315848,-0.04900777,-0.614502,0.2028809,0.8803711,-0.4885496,0.7938931,-3.89313,0.7607327,-0.156,-3.55255,0.423584,0.2797852,0.1020508,-3.847328,2.183206,-3.40458,-0.04680848,1.386504,-0.0242126,NEUTRAL
-0.526123,-0.8310547,0.05322266,-2.549618,-1.954198,0.870229,-0.4067478,-0.2490375,-0.5528246,-0.6159668,0.2009277,0.8881836,-1.618321,1.40458,0.01526718,-0.3690382,0.454687,0.3558471,0.4245605,0.2832031,0.1193848,-4.320611,1.053435,-3.206107,-0.5200908,0.2567327,0.1742606,NEUTRAL
-0.5249023,-0.8237305,0.05737305,-2.305344,-1.587786,0.8244275,-0.1624732,0.1173747,-0.5986261,-0.6098633,0.1962891,0.887207,-1.053435,1.40458,0.07633588,0.1958473,0.454687,0.4169158,0.4240723,0.2844238,0.1179199,-3.984733,0.8244275,-3.068702,-0.1842132,0.02772516,0.3116653,NEUTRAL
-0.5236816,-0.8310547,0.04858398,-2.396947,-1.832061,0.8549618,-0.2540762,-0.1269001,-0.5680918,-0.6164551,0.2021484,0.8935547,-0.8854962,1.282443,-0.1984733,0.3637862,0.3325496,0.1421067,0.4245605,0.277832,0.112793,-3.541985,0.5343512,-2.793893,0.2585349,-0.2623512,0.5864744,NEUTRAL
-0.5180664,-0.8337402,0.05419922,-2.458015,-1.679389,1.114504,-0.3151448,0.02577162,-0.3085498,-0.6164551,0.1970215,0.8918457,-1.221374,1.236641,-0.1832061,0.02790833,0.286748,0.1573739,0.4226074,0.2807617,0.1103516,-3.496183,1.083969,-3.526718,0.3043365,0.2872672,-0.1463501,NEUTRAL
-0.5183105,-0.8305664,0.0546875,-2.625954,-0.5648855,1.557252,-0.4830837,1.140275,0.1341983,-0.6191406,0.1977539,0.887207,-1.801527,1.755725,-0.3816794,-0.5522443,0.805832,-0.0410994,0.4077148,0.277832,0.1135254,-5.068702,0.9160305,-3.526718,-1.268183,0.1193282,-0.1463501,NEUTRAL
-0.5166016,-0.8312988,0.05297852,-2.427481,-0.9770992,0.9923664,-0.2846105,0.7280617,-0.4306872,-0.6208496,0.197998,0.8952637,-1.389313,2.656489,-0.7480916,-0.1400306,1.706596,-0.4075116,0.4265137,0.2832031,0.1213379,-5.480916,-0.7328244,-2.839695,-1.680396,-1.529527,0.5406728,NEUTRAL
-0.5314941,-0.8293457,0.04882813,-1.694656,-0.7480916,1.679389,0.448214,0.9570694,0.2563357,-0.6120605,0.2155762,0.8879395,-0.8396947,2.549618,-0.9465649,0.4095877,1.599725,-0.6059849,0.4194336,0.2861328,0.09838867,-2.625954,0.4885496,-2.992366,1.174566,-0.3081527,0.3880012,NEUTRAL
-0.5131836,-0.8120117,0.05517578,-1.877863,-2.167939,0.7480916,0.2650079,-0.462778,-0.674962,-0.621582,0.1977539,0.894043,-1.541985,1.145038,-0.9770992,-0.2927023,0.195145,-0.6365192,0.432373,0.2844238,0.1271973,-2.137405,1.114504,-3.648855,1.663115,0.3178015,-0.2684875,NEUTRAL
-0.5212402,-0.8244629,0.05371094,-2.351145,-1.847328,1.267176,-0.2082746,-0.1421672,-0.1558781,-0.6208496,0.1940918,0.876709,-1.541985,-0.6412213,-0.2748091,-0.2927023,-1.591115,0.06577084,0.421875,0.2814941,0.1101074,-2.641221,0.4427481,-3.480916,1.159298,-0.3539542,-0.1005485,NEUTRAL
-0.5285645,-0.8146973,0.05419922,-3.236641,-1.557252,1.251908,-1.093771,0.147909,-0.1711452,-0.595459,0.1992188,0.8972168,-0.3053435,0.8854962,-0.3816794,0.9439388,-0.06439692,-0.0410994,0.4287109,0.2805176,0.111084,-3.389313,1.251908,-3.450382,0.4112067,0.4552061,-0.07001424,NEUTRAL
-0.5256348,-0.8356934,0.05541992,-2.793893,-1.908397,1.496183,-0.6510227,-0.203236,0.07312953,-0.6169434,0.2011719,0.8884277,-0.9923664,1.770992,-0.2442748,0.2569159,0.8210993,0.09630518,0.4248047,0.2756348,0.105957,-3.038168,0.6717557,-3.129771,0.7623518,-0.1249466,0.2505965,NEUTRAL
-0.5151367,-0.8269043,0.05737305,-2.870229,-2.0,1.770992,-0.7273586,-0.294839,0.3479388,-0.619873,0.201416,0.895752,-2.061069,1.450382,-0.5648855,-0.8117865,0.5004885,-0.2243055,0.4296875,0.2856445,0.1166992,-2.641221,0.7022901,-3.51145,1.159298,-0.09441227,-0.1310828,NEUTRAL
-0.5288086,-0.8254395,0.05639648,-2.580153,-1.801527,1.862595,-0.4372823,-0.09636569,0.4395418,-0.6206055,0.1958008,0.8840332,-1.603053,1.572519,-0.3664122,-0.3537711,0.6226259,-0.02583224,0.4274902,0.2790527,0.1040039,-3.29771,0.3969466,-3.374046,0.5028098,-0.3997557,0.006321669,NEUTRAL
-0.5229492,-0.8254395,0.05029297,-3.251908,-1.938931,1.633588,-1.109038,-0.2337704,0.2105342,-0.626709,0.1982422,0.8864746,-1.175573,1.557252,-0.2442748,0.07370985,0.6073588,0.09630518,0.4277344,0.2841797,0.1101074,-2.732824,0.3206107,-2.992366,1.067695,-0.4760917,0.3880012,NEUTRAL
-0.5266113,-0.8256836,0.05273438,-3.129771,-1.862595,1.236641,-0.9869005,-0.1574345,-0.1864124,-0.6191406,0.1982422,0.8994141,-1.053435,1.648855,-0.2748091,0.1958473,0.6989618,0.06577084,0.4287109,0.279541,0.1054688,-2.625954,1.221374,-3.175573,1.174566,0.4246717,0.2047949,NEUTRAL
-0.5163574,-0.8203125,0.046875,-2.229008,-2.442748,1.114504,-0.08613729,-0.7375871,-0.3085498,-0.6242676,0.1965332,0.8911133,-1.099237,1.541985,-0.2290076,0.1500458,0.5920916,0.1115724,0.4255371,0.2849121,0.1040039,-1.282443,-0.4274809,-2.656489,2.518077,-1.224183,0.7238789,NEUTRAL
-0.5263672,-0.8198242,0.04638672,-3.572519,-3.038168,1.679389,-1.429649,-1.333007,0.2563357,-0.6147461,0.192627,0.8823242,-1.465649,1.465649,-0.2748091,-0.2163665,0.5157557,0.06577084,0.4367676,0.284668,0.1132813,-2.427481,-2.10687,-2.793893,1.373039,-2.903573,0.5864744,NEUTRAL
-0.5229492,-0.8288574,0.05151367,-3.083969,-2.076336,1.282443,-0.941099,-0.3711749,-0.1406109,-0.6262207,0.1945801,0.8779297,-0.5801527,1.114504,-0.3664122,0.6691297,0.1646107,-0.02583224,0.4223633,0.2788086,0.08911133,0.01526718,0.8091603,-3.145038,3.815787,0.01245797,0.2353294,NEUTRAL
-0.470459,-0.815918,0.2705078,6.458015,-9.648855,1.496183,8.600885,-7.943694,0.07312953,-0.6845703,0.1035156,0.8032227,-5.221374,7.938931,-3.129771,-3.972092,6.989038,-2.789191,0.4279785,0.2619629,0.0234375,4.748092,-2.167939,-3.770992,8.548612,-2.964641,-0.3906248,SLOUCH_MOD
-0.4655762,-0.8120117,0.2922363,7.89313,-9.343512,0.6717557,10.036,-7.63835,-0.7512979,-0.7143555,0.1013184,0.8222656,-5.801527,10.8855,-3.343511,-4.552244,9.935603,-3.002931,0.4389648,0.2675781,0.03271484,2.458015,-3.694656,-2.030534,6.258535,-4.491359,1.349833,SLOUCH_MOD
-0.4611816,-0.802002,0.3105469,6.778626,-9.801527,1.099237,8.921496,-8.096366,-0.323817,-0.7285156,0.09912109,0.7954102,-6.992366,9.893129,-2.473282,-5.743084,8.943236,-2.132702,0.4370117,0.2695313,0.01904297,3.740458,-5.038168,-1.877863,7.540977,-5.83487,1.502505,SLOUCH_MOD
-0.4628906,-0.7963867,0.317627,2.839695,-7.78626,1.648855,4.982565,-6.081099,0.2258013,-0.7507324,0.08911133,0.8125,-5.038168,7.068702,-1.038168,-3.788886,6.118809,-0.697588,0.4543457,0.2763672,0.01318359,2.412214,-3.129771,-2.534351,6.212733,-3.926473,0.8460164,SLOUCH_MOD
-0.4626465,-0.8056641,0.3051758,1.679389,-7.496183,1.984733,3.82226,-5.791022,0.5616793,-0.7121582,0.09057617,0.7983398,-4.10687,5.862596,-0.2900764,-2.857588,4.912703,0.05050364,0.4345703,0.2629395,0.02368164,2.778626,-0.3664122,-2.671756,6.579145,-1.163115,0.7086117,SLOUCH_MOD
-0.4543457,-0.8049316,0.3337402,2.70229,-8.366412,1.328244,4.84516,-6.661251,-0.09480929,-0.7438965,0.08374023,0.8012695,-5.633588,6.38168,-0.4122138,-4.384305,5.431787,-0.07163376,0.4343262,0.267334,-0.002197266,4.564886,1.282443,-3.618321,8.365405,0.4857404,-0.2379532,SLOUCH_MOD
-0.4494629,-0.7956543,0.3364258,2.946565,-7.419847,1.541985,5.089436,-5.714686,0.1189311,-0.7441406,0.07885742,0.7998047,-6.671756,6.38168,-1.221374,-5.422473,5.431787,-0.880794,0.4440918,0.2697754,0.01000977,1.603053,-2.076336,-2.961832,5.403573,-2.873038,0.4185355,SLOUCH_MOD
-0.4533691,-0.7958984,0.3432617,3.053435,-7.755725,0.8091603,5.196305,-6.050564,-0.6138933,-0.7480469,0.08251953,0.8039551,-4.274809,5.862596,-1.343511,-3.025527,4.912703,-1.002931,0.4489746,0.2717285,0.015625,2.519084,-3.145038,-2.564885,6.319604,-3.941741,0.8154821,SLOUCH_MOD
-0.4523926,-0.8000488,0.3476563,1.648855,-5.832061,0.8854962,3.791725,-4.1269,-0.5375574,-0.7583008,0.07177734,0.7937012,-3.755725,4.534351,-0.9160305,-2.506443,3.584458,-0.5754505,0.4416504,0.2700195,0.009765625,0.5038168,-0.9923664,-2.992366,4.304337,-1.789069,0.3880012,SLOUCH_MOD
-0.4511719,-0.793457,0.3452148,2.412214,-5.984733,0.8091603,4.555084,-4.279572,-0.6138933,-0.7397461,0.07373047,0.7807617,-2.946565,5.007634,-1.847328,-1.697283,4.057741,-1.506748,0.4401855,0.2614746,0.008300781,0.1832061,-2.015267,-3.450382,3.983726,-2.81197,-0.07001424,SLOUCH_MOD
-0.4482422,-0.798584,0.3549805,2.687023,-4.610687,0.7633588,4.829893,-2.905526,-0.6596949,-0.7524414,0.0637207,0.7888184,-3.022901,6.21374,-2.0,-1.773618,5.263847,-1.65942,0.4470215,0.2700195,-0.004394531,-1.832061,-1.175573,-2.778626,1.968459,-1.972275,0.6017416,SLOUCH_MOD
-0.449707,-0.7944336,0.3601074,1.114504,-4.38168,0.2442748,3.257374,-2.676518,-1.178779,-0.7570801,0.07104492,0.7797852,-1.648855,4.458015,-1.984733,-0.3995726,3.508122,-1.644153,0.4448242,0.2680664,0.006835938,-2.122137,-3.770992,-2.290076,1.678382,-4.567695,1.090291,SLOUCH_MOD
-0.4414063,-0.7888184,0.3605957,0.870229,-4.59542,-0.1679389,3.013099,-2.890259,-1.590993,-0.7456055,0.06787109,0.7851563,-1.816794,4.030534,-1.572519,-0.5675116,3.080641,-1.231939,0.4396973,0.2646484,-0.002685547,-2.748092,-1.770992,-2.259542,1.052428,-2.567695,1.120826,SLOUCH_MOD
-0.4472656,-0.7946777,0.3579102,1.435114,-5.038168,0.3969466,3.577985,-3.333007,-1.026107,-0.7497559,0.07836914,0.7927246,-1.603053,4.732824,-1.083969,-0.3537711,3.782931,-0.7433895,0.4428711,0.2646484,0.000732422,-1.328244,-2.259542,-2.320611,2.472275,-3.056244,1.059757,SLOUCH_MOD
-0.4509277,-0.793457,0.3708496,-2.015267,-4.641222,2.030534,0.1276033,-2.93606,0.6074806,-0.7648926,0.07763672,0.7905273,-1.709924,2.21374,0.5038168,-0.4606413,1.263847,0.8443968,0.4682617,0.263916,-0.003662109,0.6259542,1.633588,-4.290076,4.426474,0.8368855,-0.9097088,SLOUCH_MOD
-0.4423828,-0.7963867,0.3664551,-2.519084,-5.877862,2.198473,-0.3762136,-4.172701,0.7754196,-0.744873,0.07226563,0.7751465,-3.679389,2.977099,0.5038168,-2.430107,2.027206,0.8443968,0.4338379,0.2546387,-0.00390625,3.526718,2.671756,-3.847328,7.327237,1.875053,-0.4669607,SLOUCH_MOD
-0.4370117,-0.7827148,0.3713379,-0.2900764,-6.763359,2.183206,1.852794,-5.058197,0.7601524,-0.7519531,0.06176758,0.7502441,-7.145038,5.725191,0.519084,-5.895756,4.775298,0.859664,0.4421387,0.2558594,0.006103516,-0.8091603,-0.2748091,-3.923664,2.99136,-1.071512,-0.5432966,SLOUCH_MOD
-0.4299316,-0.7912598,0.3730469,0.9312977,-6.625954,1.664122,3.074168,-4.920793,0.2410685,-0.7709961,0.0637207,0.7619629,-4.717557,6.152672,-0.7022901,-3.468275,5.202779,-0.3617101,0.442627,0.2612305,-0.01123047,3.557252,-0.5648855,-3.694656,7.357772,-1.361588,-0.3142889,SLOUCH_MOD
-0.4304199,-0.7932129,0.4013672,0.5496183,-5.679389,1.419847,2.692489,-3.974228,-0.003206253,-0.7836914,0.05493164,0.762207,-5.603054,7.068702,-0.9923664,-4.353771,6.118809,-0.6517864,0.4516602,0.2626953,-0.009521484,-0.870229,-2.274809,-1.801527,2.930291,-3.071512,1.578841,SLOUCH_MOD
-0.4333496,-0.7849121,0.3852539,0.7633588,-4.900764,0.7480916,2.906229,-3.195602,-0.674962,-0.7744141,0.05419922,0.7421875,-1.160305,4.717557,-1.709924,0.08897697,3.767664,-1.369344,0.4438477,0.2644043,-0.008300781,-0.4122138,-1.083969,-2.763359,3.388306,-1.880672,0.6170087,SLOUCH_MOD
-0.4284668,-0.7800293,0.3881836,2.641221,-4.198473,0.04580153,4.784092,-2.493312,-1.377252,-0.7719727,0.05175781,0.7663574,-0.5648855,4.610687,-2.48855,0.6843968,3.660794,-2.14797,0.4443359,0.2607422,0.01196289,-2.351145,-3.267176,-2.396947,1.449375,-4.063878,0.9834208,SLOUCH_MOD
-0.4282227,-0.7839355,0.4035645,1.312977,-3.374046,0.1984733,3.455848,-1.668885,-1.22458,-0.7758789,0.05566406,0.7626953,-0.3053435,3.51145,-2.519084,0.9439388,2.561557,-2.178504,0.4421387,0.2563477,-0.02124023,-0.3206107,-1.40458,-3.099237,3.479909,-2.201283,0.2811308,SLOUCH_MOD
-0.4362793,-0.7841797,0.3925781,0.0610687,-2.167939,0.2900764,2.203939,-0.462778,-1.132977,-0.7873535,0.05297852,0.7666016,-0.3816794,3.816794,-2.183206,0.8676029,2.866901,-1.842626,0.449707,0.2658691,-0.01611328,-2.931298,-2.290076,-2.549618,0.8692219,-3.086779,0.8307493,SLOUCH_MOD
-0.4360352,-0.777832,0.4055176,-2.70229,-1.923664,0.3206107,-0.5594196,-0.2185031,-1.102443,-0.7741699,0.04223633,0.7561035,0.2137404,2.366412,-1.480916,1.463023,1.416519,-1.140336,0.4370117,0.2568359,-0.02563477,-1.435114,0.2748091,-3.175573,2.365405,-0.5218931,0.2047949,SLOUCH_MOD
-0.4326172,-0.7824707,0.4082031,-2.137405,-1.251908,0.6412213,0.005465746,0.4532526,-0.7818323,-0.7919922,0.05175781,0.7463379,-0.8854962,2.717557,-0.7022901,0.3637862,1.767664,-0.3617101,0.4472656,0.2612305,-0.01098633,-3.221374,0.519084,-3.282443,0.5791457,-0.2776184,0.09792471,SLOUCH_MOD
-0.4345703,-0.7766113,0.4050293,-3.465649,-0.778626,0.610687,-1.322778,0.926535,-0.8123666,-0.7915039,0.05273438,0.7460938,-0.4885496,1.114504,-0.3206107,0.7607327,0.1646107,0.01996931,0.4458008,0.2624512,-0.02099609,-2.351145,1.78626,-4.137404,1.449375,0.9895572,-0.7570369,SLOUCH_MOD
-0.4265137,-0.7832031,0.4038086,-3.480916,-0.4732824,0.9160305,-1.338046,1.231879,-0.5070231,-0.7885742,0.04272461,0.7502441,0.9312977,-0.351145,-0.5954198,2.18058,-1.301038,-0.2548398,0.4360352,0.2666016,-0.01953125,-0.9007633,1.572519,-4.48855,2.899756,0.7758167,-1.108182,SLOUCH_MOD
-0.4279785,-0.7907715,0.3969727,-4.122138,-0.1526718,1.19084,-1.979267,1.552489,-0.232214,-0.7749023,0.04785156,0.7521973,-1.022901,0.8854962,-0.09160305,0.2263815,-0.06439692,0.2489769,0.4431152,0.2578125,-0.02490234,-2.70229,3.389313,-3.664122,1.09823,2.592611,-0.2837546,SLOUCH_MOD
-0.4265137,-0.7893066,0.3955078,-3.770992,-0.9007633,0.8091603,-1.628122,0.8043977,-0.6138933,-0.7773438,0.05932617,0.7519531,0.1068702,0.4732824,-0.07633588,1.356153,-0.4766107,0.2642441,0.4489746,0.2663574,-0.01171875,-4.137404,0.6717557,-3.801527,-0.3368847,-0.1249466,-0.4211593,SLOUCH_MOD
-0.4277344,-0.7907715,0.3955078,-4.290076,-0.1832061,0.9923664,-2.147206,1.521955,-0.4306872,-0.7756348,0.05078125,0.7453613,0.2137404,-0.8244275,0.3358779,1.463023,-1.774321,0.6764579,0.4401855,0.262207,-0.02124023,-3.160305,3.496183,-3.694656,0.6402144,2.699481,-0.3142889,SLOUCH_MOD
-0.4338379,-0.7885742,0.3879395,-3.389313,-0.9770992,0.8549618,-1.246443,0.7280617,-0.5680918,-0.7709961,0.05615234,0.7478027,-0.351145,-0.4274809,0.4580153,0.8981373,-1.377374,0.7985952,0.4423828,0.2592773,-0.008300781,-5.145038,1.664122,-3.251908,-1.344518,0.8674198,0.1284592,SLOUCH_MOD
-0.4257813,-0.7924805,0.3847656,-3.938931,-0.870229,0.8854962,-1.796061,0.8349319,-0.5375574,-0.7722168,0.05712891,0.7575684,-0.4274809,-0.8244275,0.8396947,0.8218014,-1.774321,1.180275,0.4458008,0.2585449,-0.02026367,-5.374046,2.946565,-3.450382,-1.573526,2.149863,-0.07001424,SLOUCH_MOD
-0.4414063,-0.7932129,0.3811035,-3.465649,-1.603053,1.068702,-1.322778,0.1021075,-0.3543513,-0.7749023,0.06665039,0.7651367,-0.8244275,-0.2748091,0.8854962,0.4248549,-1.224702,1.226076,0.4384766,0.2570801,-0.01391602,-4.167939,2.335878,-3.389313,-0.367419,1.539176,-0.008945465,SLOUCH_MOD
-0.4228516,-0.7866211,0.3881836,-3.328244,-1.78626,0.9465649,-1.185374,-0.08109856,-0.4764887,-0.7729492,0.05737305,0.7556152,-1.129771,-0.1068702,0.5954198,0.1195114,-1.056763,0.9359998,0.4418945,0.2629395,-0.008544922,-4.900764,1.78626,-2.778626,-1.100244,0.9895572,0.6017416,SLOUCH_MOD
-0.4309082,-0.7885742,0.3835449,-2.625954,-2.152672,1.053435,-0.4830837,-0.4475108,-0.3696185,-0.7744141,0.0703125,0.7634277,-0.870229,0.2442748,0.3969466,0.3790534,-0.7056183,0.7375265,0.4394531,0.2636719,-0.000732422,-3.984733,1.664122,-3.160305,-0.1842132,0.8674198,0.2200623,SLOUCH_MOD
-0.434082,-0.7885742,0.3791504,-2.580153,-1.801527,1.129771,-0.4372823,-0.09636569,-0.2932826,-0.7749023,0.06079102,0.7658691,-0.870229,0.1374046,0.1984733,0.3790534,-0.8124886,0.5390532,0.4414063,0.2626953,-0.01660156,-3.709924,1.847328,-3.526718,0.09059596,1.050626,-0.1463501,SLOUCH_MOD
-0.4611816,-0.7912598,0.3540039,-8.59542,0.4427481,1.954198,-6.452549,2.147909,0.5311449,-0.7629395,0.06518555,0.7741699,0.3664122,-2.763359,1.770992,1.615695,-3.713252,2.111572,0.4318848,0.2790527,0.004394531,-3.679389,2.687023,-4.290076,0.1211305,1.890321,-0.9097088,SLOUCH_MILD
-0.449707,-0.7939453,0.3388672,-6.931298,0.4427481,1.816794,-4.788427,2.147909,0.3937403,-0.7526855,0.07373047,0.7705078,-0.5954198,-1.587786,1.496183,0.6538625,-2.537679,1.836763,0.4306641,0.2680664,0.01416016,-4.335878,4.48855,-4.198473,-0.5353582,3.691847,-0.8181059,SLOUCH_MILD
-0.4555664,-0.7988281,0.3469238,-6.824428,0.8091603,2.427481,-4.681557,2.514321,1.004427,-0.7668457,0.07666016,0.7873535,1.129771,-2.076336,0.9160305,2.379053,-3.026229,1.256611,0.434082,0.2722168,0.005126953,-4.534351,2.351145,-4.549618,-0.7338316,1.554443,-1.169251,SLOUCH_MILD
-0.4599609,-0.8037109,0.3337402,-6.824428,0.9160305,2.549618,-4.681557,2.621192,1.126565,-0.7575684,0.06420898,0.784668,-0.351145,-1.114504,0.5954198,0.8981373,-2.064397,0.9359998,0.4382324,0.2717285,-0.000732422,-4.48855,2.992366,-4.335878,-0.68803,2.195664,-0.9555103,SLOUCH_MILD
-0.4580078,-0.7958984,0.3269043,-6.396946,1.572519,2.473282,-4.254076,3.27768,1.050229,-0.7490234,0.0847168,0.7814941,1.694656,-2.244275,-0.2290076,2.943939,-3.194168,0.1115724,0.4389648,0.2687988,0.0078125,-5.068702,0.5648855,-4.564886,-1.268183,-0.2318168,-1.184518,SLOUCH_MILD
-0.4655762,-0.8007813,0.3164063,-6.366412,1.541985,2.473282,-4.223542,3.247146,1.050229,-0.744873,0.08374023,0.7937012,0.6717557,-1.526718,0.3969466,1.921038,-2.476611,0.7375265,0.4399414,0.270752,0.008300781,-5.480916,3.618321,-4.534351,-1.680396,2.821618,-1.153984,SLOUCH_MILD
-0.4643555,-0.7971191,0.3190918,-6.931298,1.083969,2.503817,-4.788427,2.78913,1.080763,-0.7416992,0.0793457,0.7905273,0.1679389,-1.557252,0.3816794,1.417221,-2.507145,0.7222594,0.4455566,0.2749023,0.003173828,-3.770992,1.816794,-4.152672,0.02952743,1.020092,-0.7723043,SLOUCH_MILD
-0.46875,-0.7990723,0.317627,-5.526718,0.9160305,2.045802,-3.383847,2.621192,0.622748,-0.7380371,0.08251953,0.7844238,-0.1526718,-1.328244,0.7328244,1.096611,-2.278137,1.073404,0.4331055,0.2668457,0.01660156,-7.068702,1.709924,-4.137404,-3.268183,0.9132213,-0.7570369,SLOUCH_MILD
-0.473877,-0.8044434,0.3007813,-5.61832,0.6870229,1.496183,-3.47545,2.392184,0.07312953,-0.7365723,0.08642578,0.7832031,2.10687,-1.877863,-0.1832061,3.356153,-2.827756,0.1573739,0.4274902,0.2714844,0.01123047,-2.778626,-0.259542,-4.412214,1.021894,-1.056244,-1.031846,SLOUCH_MILD
-0.4716797,-0.8059082,0.3032227,-5.312977,0.6259542,1.816794,-3.170107,2.331115,0.3937403,-0.7443848,0.08691406,0.7998047,0.3206107,-0.5648855,0.3664122,1.569893,-1.514779,0.7069922,0.439209,0.2749023,0.03100586,-4.717557,2.320611,-4.152672,-0.9170378,1.523908,-0.7723043,SLOUCH_MILD
-0.4592285,-0.8005371,0.2978516,-5.160306,0.778626,1.633588,-3.017435,2.483787,0.2105342,-0.7348633,0.0859375,0.8015137,1.587786,-1.282443,0.2137404,2.837069,-2.232336,0.5543204,0.4274902,0.2741699,0.01171875,-4.931298,2.305344,-3.984733,-1.130778,1.508641,-0.6043653,SLOUCH_MILD
-0.4707031,-0.7995605,0.302002,-4.534351,0.6412213,1.114504,-2.391481,2.346382,-0.3085498,-0.739502,0.08886719,0.8041992,0.6717557,-0.4427481,0.2900764,1.921038,-1.392641,0.6306563,0.4360352,0.2719727,0.02172852,-6.351145,1.29771,-3.450382,-2.550626,0.5010076,-0.07001424,SLOUCH_MILD
-0.4719238,-0.8039551,0.2980957,-4.717557,0.5954198,1.251908,-2.574687,2.300581,-0.1711452,-0.7373047,0.09838867,0.8051758,1.312977,-0.9312977,-0.1526718,2.562259,-1.881191,0.1879082,0.4353027,0.2736816,0.006347656,-4.503817,1.175573,-4.030534,-0.7032969,0.3788702,-0.6501667,SLOUCH_MILD
-0.4802246,-0.810791,0.2949219,-4.076336,0.1068702,1.160305,-1.933465,1.812031,-0.2627482,-0.7194824,0.08911133,0.8024902,0.5801527,-0.1526718,-0.07633588,1.829435,-1.102565,0.2642441,0.4338379,0.2685547,0.02905273,-4.977099,2.183206,-3.389313,-1.17658,1.386504,-0.008945465,SLOUCH_MILD
-0.4746094,-0.810791,0.2929688,-3.801527,-0.2290076,1.175573,-1.658656,1.476153,-0.2474811,-0.7253418,0.09179688,0.7900391,-0.1832061,0.1984733,-0.1374046,1.066076,-0.7514198,0.2031754,0.4370117,0.270752,0.009033203,-4.732824,1.282443,-3.664122,-0.9323046,0.4857404,-0.2837546,SLOUCH_MILD
-0.4765625,-0.8093262,0.2993164,-3.526718,-0.5801527,1.236641,-1.383847,1.125008,-0.1864124,-0.7341309,0.09814453,0.8078613,0.4580153,0.1679389,-0.4427481,1.707298,-0.7819542,-0.1021681,0.4360352,0.2714844,0.01513672,-4.21374,0.3053435,-3.648855,-0.4132206,-0.4913588,-0.2684875,SLOUCH_MILD
-0.4667969,-0.8059082,0.291748,-4.351145,-0.3664122,1.603053,-2.208275,1.338749,0.1799998,-0.7390137,0.09912109,0.7937012,0.07633588,0.01526718,-0.4427481,1.325618,-0.9346259,-0.1021681,0.4375,0.2788086,0.01831055,-4.687023,1.282443,-3.496183,-0.886503,0.4857404,-0.1158156,SLOUCH_MILD
-0.4787598,-0.8095703,0.295166,-3.984733,-0.4732824,1.374046,-1.841862,1.231879,-0.04900777,-0.7250977,0.09936523,0.8029785,0.1679389,0.03053435,-0.07633588,1.417221,-0.9193588,0.2642441,0.4306641,0.2736816,0.008789063,-4.259542,1.694656,-3.78626,-0.4590223,0.8979542,-0.4058921,SLOUCH_MILD
-0.4677734,-0.8093262,0.2836914,-4.152672,-0.4427481,1.633588,-2.009801,1.262413,0.2105342,-0.7399902,0.09545898,0.7980957,-1.267176,-0.04580153,3.847328,-0.0178932,-0.9956946,4.187908,0.440918,0.2744141,0.006591797,-3.343511,1.007634,-3.29771,0.4570084,0.2109313,0.08265758,SLOUCH_MILD
-0.4699707,-0.810791,0.2998047,-3.587786,-0.1068702,1.908397,-1.444916,1.598291,0.4853434,-0.7463379,0.09375,0.795166,-2.122137,-0.7480916,0.04580153,-0.872855,-1.697985,0.3863815,0.4384766,0.2810059,0.02270508,-6.748092,1.648855,-4.030534,-2.947572,0.8521526,-0.6501667,SLOUCH_MILD
-0.4667969,-0.8095703,0.2893066,-4.396946,0.6259542,2.549618,-2.254076,2.331115,1.126565,-0.7338867,0.09643555,0.8041992,-0.4885496,-1.908397,-0.7480916,0.7607327,-2.85829,-0.4075116,0.4328613,0.2709961,-0.002441406,-3.435115,-0.3206107,-4.10687,0.3654051,-1.117313,-0.7265027,SLOUCH_MILD
-0.4777832,-0.7966309,0.2746582,-4.458015,0.7480916,2.977099,-2.315145,2.453253,1.554046,-0.729248,0.09155273,0.8083496,-1.40458,-0.6870229,-0.7480916,-0.1552978,-1.636916,-0.4075116,0.434082,0.2797852,0.02197266,-7.267176,2.167939,-4.167939,-3.466656,1.371237,-0.7875712,SLOUCH_MILD
-0.4802246,-0.8083496,0.2963867,-3.022901,0.4885496,2.076336,-0.8800304,2.193711,0.6532823,-0.7214355,0.09912109,0.8071289,-0.4274809,-2.091603,-0.6870229,0.8218014,-3.041496,-0.3464429,0.4274902,0.2758789,0.01977539,-6.442748,3.343511,-5.328244,-2.642228,2.546809,-1.947877,SLOUCH_MILD
-0.4868164,-0.8012695,0.2729492,-2.732824,0.03053435,1.007634,-0.5899539,1.735695,-0.4154201,-0.7182617,0.09716797,0.810791,-0.4732824,-1.038168,-0.0610687,0.7759999,-1.988061,0.2795113,0.4360352,0.2780762,0.03320313,-7.923664,2.076336,-3.740458,-4.123144,1.279634,-0.3600905,SLOUCH_MILD
-0.4912109,-0.8012695,0.2709961,-0.5038168,-1.435114,-0.351145,1.639054,0.2700465,-1.774199,-0.701416,0.09082031,0.8056641,0.0,-0.3053435,-0.2137404,1.249282,-1.255237,0.1268395,0.4260254,0.2736816,0.02148438,-5.557252,0.1832061,-2.198473,-1.756732,-0.6134962,1.181894,SLOUCH_MILD
-0.4697266,-0.810791,0.2749023,-0.9007633,-0.7328244,0.1984733,1.242107,0.9723366,-1.22458,-0.7282715,0.09619141,0.8117676,0.961832,0.4885496,-0.4427481,2.211114,-0.4613435,-0.1021681,0.4350586,0.277832,0.02416992,-6.931298,0.7633588,-2.59542,-3.130778,-0.03334355,0.7849476,SLOUCH_MILD
-0.4829102,-0.8068848,0.286377,0.5038168,-2.259542,-0.4122138,2.646687,-0.554381,-1.835267,-0.7121582,0.09423828,0.8098145,0.6717557,1.068702,-0.778626,1.921038,0.1188092,-0.438046,0.4272461,0.2717285,0.0222168,-4.839694,0.8549618,-2.564885,-1.039175,0.05825949,0.8154821,SLOUCH_MILD
-0.4821777,-0.8034668,0.2817383,-0.3969466,-2.473282,-0.3969466,1.745924,-0.7681213,-1.82,-0.71875,0.09765625,0.815918,-0.4885496,1.862595,-0.9160305,0.7607327,0.9127024,-0.5754505,0.4331055,0.2785645,0.02807617,-6.167939,-0.870229,-2.305344,-2.367419,-1.666931,1.075024,SLOUCH_MILD
-0.4780273,-0.8056641,0.2790527,-0.4885496,-1.832061,0.3816794,1.654321,-0.1269001,-1.041374,-0.7265625,0.08959961,0.8132324,-1.633588,1.099237,-0.3206107,-0.3843055,0.1493435,0.01996931,0.4362793,0.2744141,0.02197266,-4.458015,1.160305,-2.183206,-0.6574957,0.3636031,1.197161,SLOUCH_MILD
-0.4819336,-0.8078613,0.2744141,-1.358779,-2.137405,0.3816794,0.7840919,-0.4322437,-1.041374,-0.7177734,0.09594727,0.8200684,-0.6717557,1.053435,-0.351145,0.5775266,0.103542,-0.01056504,0.4362793,0.2770996,0.02734375,-5.29771,-3.908397,-2.687023,-1.49719,-4.705099,0.6933446,SLOUCH_MILD
-0.4863281,-0.8078613,0.265625,-3.603053,-1.450382,1.022901,-1.460183,0.2547793,-0.4001528,-0.7270508,0.09570313,0.8215332,0.8244275,-0.6870229,0.519084,2.07371,-1.636916,0.859664,0.4328613,0.2819824,0.02392578,-4.427481,2.961832,-3.801527,-0.626961,2.16513,-0.4211593,SLOUCH_MILD
-0.4716797,-0.8100586,0.2746582,-4.564886,-0.7938931,1.328244,-2.422015,0.9112679,-0.09480929,-0.7263184,0.07910156,0.8085938,-2.0,-0.4580153,1.099237,-0.7507176,-1.407908,1.439817,0.4321289,0.2783203,0.02270508,-3.664122,4.625954,-2.900763,0.1363976,3.829252,0.4796042,SLOUCH_MILD
-0.4760742,-0.8115234,0.276123,-5.129771,-0.4885496,1.267176,-2.9869,1.216611,-0.1558781,-0.7172852,0.1118164,0.8183594,0.6870229,-2.21374,0.8091603,1.936305,-3.163633,1.14974,0.4401855,0.2727051,0.02636719,-4.458015,2.778626,-4.061069,-0.6574957,1.981924,-0.680701,SLOUCH_MILD
-0.4760742,-0.8122559,0.2731934,-4.473282,-0.9770992,1.389313,-2.330412,0.7280617,-0.03374064,-0.717041,0.1062012,0.8093262,-1.725191,-1.541985,1.053435,-0.4759085,-2.491878,1.394015,0.4301758,0.2717285,0.02709961,-3.832061,3.419847,-3.847328,-0.03154135,2.623145,-0.4669607,SLOUCH_MILD
-0.4794922,-0.8127441,0.2712402,-3.954198,-0.961832,1.374046,-1.811328,0.743329,-0.04900777,-0.7226563,0.1088867,0.8173828,-0.2137404,-1.40458,0.4580153,1.035542,-2.354473,0.7985952,0.439209,0.2700195,0.03662109,-5.221374,2.351145,-4.045802,-1.420854,1.554443,-0.6654341,SLOUCH_MILD
-0.4787598,-0.8278809,0.2709961,-3.725191,-0.8091603,1.89313,-1.58232,0.8960007,0.4700762,-0.7165527,0.1066895,0.8205566,-0.9770992,-0.8396947,0.1221374,0.2721831,-1.789588,0.4627174,0.4328613,0.2719727,0.02050781,-4.961832,3.175573,-4.045802,-1.161312,2.37887,-0.6654341,SLOUCH_MILD
-0.4987793,-0.8068848,0.2666016,-3.19084,-1.282443,1.709924,-1.047969,0.4227183,0.28687,-0.7155762,0.1142578,0.8208008,-1.114504,0.3969466,-0.259542,0.1347785,-0.5529466,0.081038,0.4353027,0.2746582,0.03198242,-5.206107,1.40458,-4.122138,-1.405587,0.6078778,-0.74177,SLOUCH_MILD
-0.4824219,-0.8139648,0.2585449,-2.564885,-0.9770992,1.618321,-0.422015,0.7280617,0.195267,-0.7150879,0.1057129,0.824707,-0.8396947,-0.09160305,-0.5038168,0.4095877,-1.041496,-0.1632368,0.432373,0.2788086,0.03149414,-5.022901,0.07633588,-3.709924,-1.222381,-0.7203665,-0.3295562,SLOUCH_MILD
-0.4846191,-0.810791,0.2583008,-3.129771,-0.7175572,1.496183,-0.9869005,0.9876038,0.07312953,-0.7133789,0.1103516,0.8181152,-0.8396947,0.4427481,-0.610687,0.4095877,-0.507145,-0.270107,0.4350586,0.2751465,0.03027344,-4.656488,1.358779,-3.679389,-0.8559687,0.5620763,-0.2990217,SLOUCH_MILD
-0.4824219,-0.8122559,0.2631836,-2.59542,-0.6259542,1.526718,-0.4525495,1.079207,0.1036639,-0.7072754,0.1010742,0.8193359,-0.9770992,0.4122138,-0.7633588,0.2721831,-0.5376794,-0.4227788,0.4331055,0.2744141,0.02856445,-4.671756,0.8244275,-3.480916,-0.871236,0.02772516,-0.1005485,SLOUCH_MILD
-0.4914551,-0.8078613,0.2609863,-2.961832,-0.5954198,1.358779,-0.8189616,1.109741,-0.06427503,-0.7104492,0.1037598,0.8149414,-0.2900764,0.4274809,-0.5648855,0.959206,-0.5224122,-0.2243055,0.434082,0.2788086,0.0402832,-4.610687,1.358779,-3.618321,-0.8101675,0.5620763,-0.2379532,SLOUCH_MILD
-0.4880371,-0.8061523,0.2587891,-2.763359,-1.160305,1.374046,-0.6204884,0.5448556,-0.04900777,-0.7163086,0.105957,0.8220215,-0.6412213,0.5496183,-0.6259542,0.608061,-0.4002748,-0.2853742,0.4279785,0.2788086,0.03173828,-1.251908,1.938931,-4.030534,2.548611,1.142229,-0.6501667,SLOUCH_MILD
-0.4846191,-0.8146973,0.263916,-2.900763,-1.312977,1.755725,-0.7578928,0.3921839,0.3326715,-0.7072754,0.1057129,0.8225098,-2.167939,1.282443,-0.2137404,-0.9186565,0.3325496,0.1268395,0.4370117,0.2700195,0.02758789,-2.824427,1.358779,-3.312977,0.9760923,0.5620763,0.06739044,SLOUCH_MILD
-0.484375,-0.8044434,0.2614746,-2.671756,-2.183206,1.29771,-0.5288854,-0.4780451,-0.1253437,-0.7165527,0.1169434,0.8222656,-1.755725,1.51145,-0.5496183,-0.5064428,0.5615573,-0.2090383,0.4372559,0.2773438,0.0456543,-2.656489,-0.0610687,-3.587786,1.144031,-0.857771,-0.2074187,SLOUCH_MILD
-0.4829102,-0.8088379,0.2678223,-2.290076,-1.587786,1.526718,-0.1472058,0.1173747,0.1036639,-0.7041016,0.1018066,0.8151855,-1.145038,0.9160305,-0.4274809,0.1042442,-0.03386259,-0.08690092,0.4299316,0.2780762,0.02368164,-2.458015,1.648855,-4.045802,1.342505,0.8521526,-0.6654341,SLOUCH_MILD
-0.4770508,-0.8110352,0.2541504,-1.801527,-1.664122,1.267176,0.3413438,0.04103887,-0.1558781,-0.7260742,0.1040039,0.8161621,-1.78626,1.129771,-0.3969466,-0.5369772,0.1798779,-0.05636659,0.4401855,0.2844238,0.03393555,-4.259542,0.0610687,-3.480916,-0.4590223,-0.7356336,-0.1005485,SLOUCH_MILD
-0.4807129,-0.8144531,0.2651367,-2.259542,-1.282443,1.618321,-0.1166716,0.4227183,0.195267,-0.7077637,0.1049805,0.8166504,-0.3206107,0.1374046,-0.351145,0.9286717,-0.8124886,-0.01056504,0.4379883,0.2727051,0.02490234,-4.137404,2.70229,-4.183206,-0.3368847,1.905588,-0.8028385,SLOUCH_MILD
-0.4807129,-0.810791,0.262207,-2.183206,-1.618321,1.374046,-0.04033566,0.08684039,-0.04900777,-0.7119141,0.1020508,0.8203125,-1.908397,0.9007633,-0.3664122,-0.6591146,-0.04912978,-0.02583224,0.4365234,0.2751465,0.03491211,-5.068702,1.465649,-3.816794,-1.268183,0.6689466,-0.4364264,SLOUCH_MILD
-0.4782715,-0.8088379,0.2631836,-1.969466,-1.51145,1.251908,0.1734048,0.1937106,-0.1711452,-0.7109375,0.1142578,0.8256836,-0.8549618,-0.04580153,-0.2748091,0.3943205,-0.9956946,0.06577084,0.434082,0.2805176,0.03295898,-4.229008,0.1679389,-3.648855,-0.428488,-0.6287634,-0.2684875,SLOUCH_MILD
-0.4831543,-0.809082,0.2614746,-1.832061,-2.015267,1.435114,0.3108094,-0.3101062,0.01206088,-0.7111816,0.1032715,0.8195801,-1.755725,0.6870229,-0.4885496,-0.5064428,-0.2628702,-0.1479696,0.4335938,0.2753906,0.02075195,-3.954198,0.7022901,-3.633588,-0.1536787,-0.09441227,-0.2532203,SLOUCH_MILD
-0.4885254,-0.8085938,0.2512207,-2.412214,-1.40458,1.450382,-0.2693434,0.3005809,0.02732801,-0.7145996,0.1071777,0.8239746,-1.29771,0.7480916,-0.1832061,-0.04842758,-0.2018015,0.1573739,0.4477539,0.279541,0.02905273,-3.526718,1.29771,-3.862595,0.273802,0.5010076,-0.4822278,SLOUCH_MILD
-0.482666,-0.8093262,0.2644043,-2.503817,-0.778626,1.465649,-0.3609464,0.926535,0.04259527,-0.7106934,0.1083984,0.8168945,-2.045802,1.221374,-0.4122138,-0.7965193,0.2714809,-0.07163376,0.4404297,0.2685547,0.04248047,-5.419847,-0.03053435,-3.572519,-1.619328,-0.8272367,-0.1921515,SLOUCH_MILD
-0.4853516,-0.8151855,0.2646484,-2.045802,-1.251908,1.282443,0.09706879,0.4532526,-0.1406109,-0.7097168,0.107666,0.8312988,-0.3969466,1.083969,-0.7175572,0.8523358,0.1340764,-0.3769773,0.4301758,0.2814941,0.04443359,-5.343512,-0.1832061,-3.145038,-1.542992,-0.9799085,0.2353294,SLOUCH_MILD
-0.4897461,-0.8154297,0.2526855,-2.656489,-1.160305,1.29771,-0.5136182,0.5448556,-0.1253437,-0.715332,0.09619141,0.8337402,-2.412214,1.450382,-0.9312977,-1.162931,0.5004885,-0.5907177,0.4291992,0.2751465,0.02172852,-2.549618,1.618321,-3.374046,1.250901,0.8216183,0.006321669,SLOUCH_MILD
-0.4938965,-0.810791,0.2580566,-2.59542,-2.244275,0.9007633,-0.4525495,-0.5391139,-0.5222903,-0.7097168,0.109375,0.8400879,-1.587786,2.10687,-0.6717557,-0.338504,1.156977,-0.3311758,0.4519043,0.2824707,0.0456543,-2.992366,3.89313,-3.114504,0.8081533,3.096427,0.2658637,SLOUCH_MILD
-0.4882813,-0.8115234,0.2573242,-3.053435,-0.9007633,1.435114,-0.9105646,0.8043977,0.01206088,-0.7158203,0.1005859,0.8168945,-0.1068702,-0.3816794,-0.09160305,1.142412,-1.331573,0.2489769,0.4384766,0.2741699,0.02685547,-2.977099,2.625954,-3.541985,0.8234205,1.829252,-0.1616173,SLOUCH_MILD
-0.498291,-0.8117676,0.2529297,-2.946565,-1.648855,1.053435,-0.8036945,0.056306,-0.3696185,-0.697998,0.1040039,0.8339844,-0.5954198,1.267176,0.07633588,0.6538625,0.3172824,0.4169158,0.4299316,0.2729492,0.0390625,-0.01526718,1.664122,-3.374046,3.785253,0.8674198,0.006321669,SLOUCH_MILD
-0.487793,-0.8215332,0.2490234,-2.59542,-1.78626,0.8549618,-0.4525495,-0.08109856,-0.5680918,-0.7070313,0.1032715,0.824707,-0.7328244,1.78626,0.1984733,0.5164579,0.8363665,0.5390532,0.4353027,0.2758789,0.03173828,-3.007634,1.29771,-2.931298,0.792886,0.5010076,0.4490697,SLOUCH_MILD
-0.4912109,-0.8098145,0.2529297,-3.19084,-2.335878,1.114504,-1.047969,-0.6307169,-0.3085498,-0.706543,0.1049805,0.8188477,-2.122137,2.534351,-0.1679389,-0.872855,1.584458,0.172641,0.4294434,0.2785645,0.03222656,-2.656489,1.022901,-3.19084,1.144031,0.2261985,0.1895278,SLOUCH_MILD
-0.4851074,-0.8071289,0.2653809,-2.412214,-1.89313,0.9465649,-0.2693434,-0.1879688,-0.4764887,-0.7104492,0.1049805,0.8195801,-0.7633588,1.770992,-0.351145,0.4859236,0.8210993,-0.01056504,0.434082,0.2763672,0.03442383,-2.824427,0.4885496,-2.885496,0.9760923,-0.3081527,0.4948714,SLOUCH_MILD
-0.487793,-0.8151855,0.2543945,-2.732824,-2.167939,0.6870229,-0.5899539,-0.462778,-0.7360307,-0.7133789,0.1083984,0.8154297,-1.145038,2.122137,-0.1526718,0.1042442,1.172244,0.1879082,0.4377441,0.2722168,0.04174805,-2.885496,0.2900764,-2.549618,0.9150236,-0.506626,0.8307493,SLOUCH_MILD
-0.4912109,-0.8110352,0.2553711,-2.564885,-1.206107,0.9923664,-0.422015,0.4990541,-0.4306872,-0.7180176,0.1235352,0.828125,0.07633588,1.282443,-0.0610687,1.325618,0.3325496,0.2795113,0.4399414,0.279541,0.03515625,-3.419847,0.8549618,-3.038168,0.3806725,0.05825949,0.3421996,SLOUCH_MILD
-0.4814453,-0.8112793,0.2595215,-2.335878,-1.89313,0.7022901,-0.1930075,-0.1879688,-0.7207636,-0.7045898,0.1174316,0.8222656,-1.114504,1.984733,-0.2748091,0.1347785,1.03484,0.06577084,0.4343262,0.2714844,0.0324707,-1.709924,-0.2290076,-2.534351,2.090596,-1.02571,0.8460164,SLOUCH_MILD
-0.4897461,-0.8110352,0.2558594,-1.648855,-1.984733,0.870229,0.4940155,-0.2795719,-0.5528246,-0.7224121,0.1101074,0.8129883,-1.679389,2.335878,-0.04580153,-0.430107,1.385985,0.2947785,0.4350586,0.2758789,0.04956055,-5.251908,-0.6412213,-2.625954,-1.451389,-1.437924,0.7544134,SLOUCH_MILD
-0.4868164,-0.8122559,0.2651367,-2.717557,-2.091603,1.022901,-0.5746868,-0.3864421,-0.4001528,-0.7143555,0.1069336,0.8271484,0.5343512,1.236641,-0.6259542,1.783633,0.286748,-0.2853742,0.4313965,0.2780762,0.03173828,-1.206107,-0.3664122,-3.465649,2.594413,-1.163115,-0.08528137,SLOUCH_MILD
-0.4875488,-0.8117676,0.2575684,-2.717557,-2.152672,1.801527,-0.5746868,-0.4475108,0.378473,-0.7131348,0.1054688,0.8198242,-1.847328,1.908397,-0.1374046,-0.5980458,0.9585038,0.2031754,0.4394531,0.2805176,0.02587891,-2.671756,1.389313,-3.419847,1.128764,0.5926106,-0.03947973,SLOUCH_MILD
-0.4741211,-0.8110352,0.2590332,-3.160305,-1.816794,1.816794,-1.017435,-0.1116329,0.3937403,-0.717041,0.1098633,0.8220215,-1.557252,1.022901,-0.03053435,-0.3079696,0.0730077,0.3100456,0.435791,0.2758789,0.01879883,-3.19084,0.351145,-3.755725,0.6096799,-0.4455573,-0.3753576,SLOUCH_MILD
-0.4855957,-0.8110352,0.2526855,-2.671756,-1.938931,1.587786,-0.5288854,-0.2337704,0.1647327,-0.7231445,0.111084,0.8105469,-2.335878,1.450382,0.0610687,-1.086596,0.5004885,0.4016487,0.4226074,0.2768555,0.0378418,-3.984733,1.374046,-3.312977,-0.1842132,0.5773435,0.06739044,SLOUCH_MILD
-0.4853516,-0.8103027,0.253418,-2.916031,-2.183206,1.374046,-0.7731602,-0.4780451,-0.04900777,-0.7165527,0.1123047,0.8112793,-0.2900764,1.267176,-0.2290076,0.959206,0.3172824,0.1115724,0.4316406,0.2758789,0.03442383,-3.282443,-0.03053435,-3.114504,0.5180769,-0.8272367,0.2658637,SLOUCH_MILD
-0.4782715,-0.8125,0.2578125,-2.320611,-1.633588,1.557252,-0.1777403,0.07157314,0.1341983,-0.7180176,0.1088867,0.8190918,-1.648855,1.129771,-0.4885496,-0.3995726,0.1798779,-0.1479696,0.4411621,0.2736816,0.01708984,-3.664122,0.9160305,-3.572519,0.1363976,0.1193282,-0.1921515,SLOUCH_MILD
-0.4855957,-0.802002,0.2470703,-2.717557,-1.78626,1.618321,-0.5746868,-0.08109856,0.195267,-0.7165527,0.1105957,0.8146973,-0.7022901,0.8091603,-0.4122138,0.5469923,-0.1407328,-0.07163376,0.4331055,0.279541,0.02758789,-3.496183,0.9923664,-3.740458,0.3043365,0.1956641,-0.3600905,SLOUCH_MILD
-0.4863281,-0.7995605,0.2358398,0.8854962,-4.427481,0.7633588,3.028367,-2.72232,-0.6596949,-0.7067871,0.1157227,0.8356934,-1.480916,3.496183,-1.816794,-0.2316337,2.54629,-1.476214,0.4345703,0.2963867,0.04711914,-2.396947,-2.458015,-3.068702,1.403573,-3.254718,0.3116653,SLOUCH_EXT
-0.4978027,-0.8171387,0.2419434,1.526718,-4.015267,1.053435,3.669588,-2.310106,-0.3696185,-0.6965332,0.1115723,0.838623,-0.3664122,3.450382,-2.48855,0.8828701,2.500489,-2.14797,0.4287109,0.2687988,0.02783203,2.045802,-2.045802,-3.206107,5.846321,-2.842504,0.1742606,SLOUCH_EXT
-0.4909668,-0.8046875,0.2490234,1.40458,-4.687023,0.7022901,3.547451,-2.981862,-0.7207636,-0.7084961,0.1149902,0.8234863,-2.167939,5.603054,-1.51145,-0.9186565,4.653161,-1.17087,0.4399414,0.2822266,0.03320313,-0.4274809,-1.419847,-2.076336,3.373039,-2.21655,1.304032,SLOUCH_EXT
-0.4816895,-0.807373,0.2805176,2.381679,-5.129771,0.1832061,4.524549,-3.42461,-1.239848,-0.717041,0.1166992,0.8122559,-3.633588,5.114504,-1.221374,-2.384305,4.164611,-0.880794,0.4309082,0.2709961,0.02514648,1.725191,-1.847328,-2.59542,5.525711,-2.644031,0.7849476,SLOUCH_EXT
-0.4765625,-0.7978516,0.2756348,3.29771,-4.992366,0.4580153,5.44058,-3.287205,-0.9650384,-0.7143555,0.1083984,0.8049316,-3.603053,5.648855,-1.740458,-2.353771,4.698962,-1.399878,0.4284668,0.2773438,0.01904297,0.4732824,-3.312977,-2.473282,4.273802,-4.109679,0.9070852,SLOUCH_EXT
-0.4782715,-0.8110352,0.2878418,3.923664,-7.08397,0.1526718,6.066535,-5.378808,-1.270382,-0.7163086,0.1040039,0.8034668,-3.419847,7.068702,-1.770992,-2.170565,6.118809,-1.430412,0.4321289,0.2702637,0.02758789,1.969466,-1.114504,-2.641221,5.769985,-1.911206,0.7391462,SLOUCH_EXT
-0.479248,-0.8061523,0.2766113,2.961832,-6.229008,0.5343512,5.104702,-4.523847,-0.8887025,-0.7407227,0.09521484,0.8066406,-3.145038,8.274809,-1.709924,-1.895756,7.324916,-1.369344,0.4414063,0.2800293,0.02270508,-0.5343512,-4.351145,-1.496183,3.266169,-5.147848,1.884184,SLOUCH_EXT
-0.4836426,-0.8095703,0.2758789,3.480916,-7.099236,-0.3358779,5.623786,-5.394075,-1.758932,-0.697998,0.1015625,0.8046875,-1.725191,6.625954,-1.633588,-0.4759085,5.676061,-1.293008,0.4196777,0.2680664,0.02246094,2.80916,-2.10687,-1.419847,6.60968,-2.903573,1.96052,SLOUCH_EXT
-0.4770508,-0.800293,0.2956543,3.465649,-6.70229,0.07633588,5.60852,-4.997129,-1.346718,-0.7407227,0.09301758,0.8032227,-4.0,8.152672,-1.068702,-2.750718,7.202779,-0.7281223,0.4421387,0.2834473,0.01953125,0.1526718,-2.656489,-1.435114,3.953192,-3.453191,1.945253,SLOUCH_EXT
-0.4941406,-0.8005371,0.295166,4.564886,-7.770992,0.2290076,6.707756,-6.065831,-1.194046,-0.7150879,0.09960938,0.8046875,-2.534351,6.625954,-1.267176,-1.285069,5.676061,-0.9265956,0.4221191,0.2663574,0.008056641,3.740458,-2.961832,-2.076336,7.540977,-3.758534,1.304032,SLOUCH_EXT
-0.4645996,-0.7944336,0.3022461,4.0,-6.091603,0.7633588,6.14287,-4.386442,-0.6596949,-0.7700195,0.07080078,0.8051758,-7.832061,7.312977,-0.5801527,-6.582779,6.363084,-0.2395727,0.4487305,0.2849121,0.01635742,0.6717557,0.6564885,-2.900763,4.472275,-0.1402138,0.4796042,SLOUCH_EXT
-0.4741211,-0.8015137,0.307373,4.061069,-6.229008,0.7175572,6.203939,-4.523847,-0.7054964,-0.7158203,0.09375,0.7922363,-2.549618,4.198473,-1.633588,-1.300336,3.24858,-1.293008,0.4296875,0.2663574,0.006591797,2.061069,-4.412214,-2.015267,5.861588,-5.208916,1.3651,SLOUCH_EXT
-0.4711914,-0.7888184,0.3220215,6.122138,-6.778626,0.03053435,8.265008,-5.073465,-1.392519,-0.7460938,0.08007813,0.7736816,-7.160306,7.007634,-1.725191,-5.911023,6.057741,-1.384611,0.4350586,0.2666016,0.01513672,-1.29771,-0.2900764,-3.664122,2.50281,-1.086779,-0.2837546,SLOUCH_EXT
-0.4716797,-0.7885742,0.3347168,7.557252,-8.564885,-0.2442748,9.700123,-6.859724,-1.667328,-0.7229004,0.09008789,0.7822266,-2.183206,7.877862,-2.671756,-0.9339237,6.927969,-2.331176,0.4277344,0.2648926,-0.0078125,3.984733,-5.648855,-1.022901,7.785253,-6.445557,2.357467,SLOUCH_EXT
-0.4645996,-0.7851563,0.3569336,7.19084,-9.068703,-0.7328244,9.33371,-7.363542,-2.155878,-0.7736816,0.07397461,0.7719727,-8.152672,8.992367,-0.870229,-6.903389,8.042474,-0.529649,0.4499512,0.2805176,0.0,2.549618,-2.290076,-0.1832061,6.350138,-3.086779,3.197161,SLOUCH_EXT
-0.4628906,-0.7839355,0.345459,3.984733,-8.396947,0.1679389,6.127604,-6.691786,-1.255115,-0.7524414,0.07861328,0.7880859,-1.740458,5.78626,-0.3206107,-0.4911757,4.836367,0.01996931,0.4418945,0.2727051,0.01000977,1.236641,-3.877863,-0.4427481,5.037161,-4.674565,2.937619,SLOUCH_EXT
-0.4501953,-0.7873535,0.3596191,5.78626,-8.656488,-1.282443,7.92913,-6.951327,-2.705496,-0.7585449,0.0690918,0.7651367,-5.51145,8.534351,-0.1832061,-4.262168,7.584458,0.1573739,0.4272461,0.2612305,-0.000244141,1.129771,0.2900764,-0.8854962,4.930291,-0.506626,2.494871,SLOUCH_EXT
-0.451416,-0.7919922,0.362793,5.648855,-8.870229,0.1832061,7.791725,-7.165068,-1.239848,-0.7644043,0.0871582,0.7888184,-3.78626,6.610687,-0.3664122,-2.536977,5.660794,-0.02583224,0.4487305,0.2658691,0.005126953,0.8396947,-3.221374,-0.610687,4.640214,-4.018076,2.769681,SLOUCH_EXT
-0.4399414,-0.793457,0.388916,5.038168,-8.305344,-0.5954198,7.181038,-6.600183,-2.018473,-0.7924805,0.05737305,0.7490234,-10.19847,6.137404,0.4427481,-8.94919,5.187511,0.7833281,0.4404297,0.2705078,-0.01416016,2.412214,0.5801527,-1.29771,6.212733,-0.2165496,2.082658,SLOUCH_EXT
-0.4335938,-0.7827148,0.3806152,3.801527,-6.274809,-0.8396947,5.944397,-4.569648,-2.262748,-0.7805176,0.06591797,0.7529297,-2.366412,3.664122,-1.251908,-1.11713,2.714229,-0.9113284,0.4453125,0.2705078,-0.001220703,-2.946565,-6.763359,0.04580153,0.8539548,-7.560061,3.426169,SLOUCH_EXT
-0.4428711,-0.7885742,0.3989258,5.312977,-5.877862,-1.343511,7.455848,-4.172701,-2.766565,-0.7802734,0.07446289,0.7570801,-4.030534,6.38168,-0.7328244,-2.781252,5.431787,-0.3922445,0.4475098,0.2539063,-0.01269531,-2.274809,-0.778626,-0.4580153,1.525711,-1.575328,2.922352,SLOUCH_EXT
-0.4382324,-0.7780762,0.3920898,2.10687,-5.679389,0.0,4.249741,-3.974228,-1.423054,-0.7875977,0.06933594,0.7536621,-2.503817,3.664122,-0.5038168,-1.254534,2.714229,-0.1632368,0.4526367,0.2736816,-0.01025391,-3.847328,-3.694656,-0.5954198,-0.04680848,-4.491359,2.784948,SLOUCH_EXT
-0.4428711,-0.7756348,0.3896484,1.969466,-7.129771,-1.114504,4.112336,-5.42461,-2.537558,-0.7436523,0.07495117,0.7502441,-1.343511,4.198473,-0.1221374,-0.09422911,3.24858,0.2184426,0.423584,0.2424316,-0.002685547,1.648855,-0.7328244,-1.526718,5.449375,-1.529527,1.85365,SLOUCH_EXT
-0.4304199,-0.7822266,0.4086914,6.412214,-10.80916,-0.8549618,8.555084,-9.103999,-2.278015,-0.7495117,0.0690918,0.75,-6.015267,8.290076,-1.328244,-4.765985,7.340183,-0.9876643,0.4238281,0.2438965,-0.03515625,3.053435,-2.167939,-0.4580153,6.853955,-2.964641,2.922352,SLOUCH_EXT
-0.4353027,-0.7766113,0.4162598,9.954199,-12.53435,-0.9160305,12.09707,-10.82919,-2.339084,-0.7636719,0.0637207,0.7475586,-9.61832,12.24428,-1.725191,-8.369038,11.29438,-1.384611,0.4350586,0.2539063,-0.01928711,2.061069,-5.496183,1.328244,5.861588,-6.292886,4.708612,SLOUCH_EXT
-0.439209,-0.7758789,0.4262695,10.47328,-14.36641,0.04580153,12.61615,-12.66125,-1.377252,-0.7932129,0.06079102,0.7519531,-8.38168,13.41985,-3.40458,-7.132397,12.46995,-3.064,0.4470215,0.2617188,-0.01635742,5.221374,-11.80153,1.29771,9.021894,-12.59823,4.678078,SLOUCH_EXT
-0.4089355,-0.7841797,0.4460449,9.496183,-14.56489,1.038168,11.63905,-12.85972,-0.3848857,-0.8051758,0.04321289,0.729248,-10.83969,11.8626,-3.328244,-9.590412,10.9127,-2.987664,0.4377441,0.2597656,-0.0378418,6.366412,-10.06107,-1.129771,10.16693,-10.85777,2.250597,SLOUCH_EXT
-0.4133301,-0.7617188,0.4602051,9.526717,-12.1374,0.2748091,11.66959,-10.43224,-1.148245,-0.7990723,0.02368164,0.7072754,-7.969466,12.0,-4.625954,-6.720183,11.05011,-4.285374,0.4423828,0.2565918,-0.03051758,3.541985,-10.29008,-2.0,7.342505,-11.08678,1.380368,SLOUCH_EXT
-0.3964844,-0.7519531,0.4765625,7.89313,-10.85496,0.259542,10.036,-9.1498,-1.163512,-0.8032227,0.02416992,0.7041016,-7.419847,12.59542,-4.549618,-6.170565,11.64553,-4.209038,0.4453125,0.2492676,-0.03955078,2.931298,-10.9771,-0.7328244,6.731817,-11.7738,2.647543,SLOUCH_EXT
-0.3913574,-0.7409668,0.4934082,9.068703,-10.9313,-0.1984733,11.21157,-9.226136,-1.621527,-0.8171387,0.02441406,0.7019043,-6.48855,12.42748,-4.152672,-5.239267,11.47759,-3.812092,0.4382324,0.2460938,-0.04785156,2.977099,-10.53435,-0.9770992,6.777619,-11.33105,2.403268,SLOUCH_EXT
-0.3833008,-0.7421875,0.5141602,8.152672,-9.557252,-0.3053435,10.29554,-7.852091,-1.728397,-0.8339844,0.009521484,0.6896973,-6.290076,10.70229,-2.839695,-5.040794,9.752398,-2.499115,0.4506836,0.253418,-0.06005859,2.0,-6.427481,-2.030534,5.80052,-7.224183,1.349833,SLOUCH_EXT
-0.3901367,-0.7404785,0.510498,5.251908,-7.969466,-0.961832,7.394779,-6.264305,-2.384886,-0.8449707,0.006591797,0.682373,-6.152672,9.19084,-1.89313,-4.903389,8.240947,-1.55255,0.4665527,0.2524414,-0.05322266,1.175573,-6.320611,-1.343511,4.976092,-7.117313,2.036856,SLOUCH_EXT
-0.3752441,-0.7397461,0.5622559,3.603053,-5.923664,-0.9770992,5.745924,-4.218503,-2.400153,-0.8635254,0.003662109,0.6696777,-5.343512,8.488549,-1.679389,-4.094229,7.538656,-1.338809,0.4443359,0.2553711,-0.07177734,-2.564885,-4.763359,-1.038168,1.235634,-5.560061,2.3422,SLOUCH_EXT
-0.362793,-0.720459,0.5332031,2.122137,-4.671756,-1.312977,4.265008,-2.966595,-2.736031,-0.8525391,-0.01538086,0.6569824,-1.175573,4.351145,-1.801527,0.07370985,3.401252,-1.460947,0.4416504,0.244873,-0.06860352,-1.51145,-3.175573,-1.78626,2.289069,-3.972275,1.594108,SLOUCH_EXT
-0.3684082,-0.7189941,0.550293,1.175573,-2.687023,-0.870229,3.318443,-0.981862,-2.293283,-0.8596191,0.001953125,0.6652832,-0.7022901,3.29771,-1.984733,0.5469923,2.347817,-1.644153,0.4484863,0.2429199,-0.07714844,-0.2137404,-1.969466,-2.396947,3.586779,-2.766168,0.9834208,SLOUCH_EXT
-0.357666,-0.7214355,0.5454102,-0.0610687,-1.908397,0.01526718,2.081802,-0.203236,-1.407786,-0.8598633,0.001220703,0.6591797,-1.083969,1.847328,-1.877863,0.1653129,0.8974351,-1.537283,0.4506836,0.2441406,-0.0793457,-4.854962,-1.740458,-3.847328,-1.054442,-2.53716,-0.4669607,SLOUCH_EXT
-0.3818359,-0.7402344,0.5092773,-10.94656,3.022901,1.770992,-8.803694,4.728062,0.3479388,-0.8225098,0.009277344,0.6894531,2.748092,-3.938931,1.816794,3.997374,-4.888824,2.157374,0.4477539,0.2463379,-0.05908203,-6.610687,7.038168,-5.099236,-2.810168,6.241466,-1.718869,HUNCH_MOD
-0.392334,-0.7570801,0.489502,-11.17557,3.282443,1.954198,-9.032701,4.987604,0.5311449,-0.8271484,0.02148438,0.6887207,2.824427,-5.648855,2.70229,4.073709,-6.598748,3.04287,0.4455566,0.2470703,-0.04858398,-6.351145,5.923664,-5.51145,-2.550626,5.126962,-2.131083,HUNCH_MOD
-0.3876953,-0.7585449,0.4887695,-11.51145,3.694656,2.305344,-9.36858,5.399817,0.88229,-0.8395996,0.02856445,0.6962891,1.618321,-6.030534,2.824427,2.867603,-6.980427,3.165007,0.439209,0.2531738,-0.04174805,-6.076336,7.557252,-5.801527,-2.275816,6.76055,-2.421159,HUNCH_MOD
-0.3813477,-0.7646484,0.4729004,-11.38931,3.969466,2.717557,-9.246443,5.674627,1.294504,-0.8098145,0.03051758,0.7021484,1.938931,-7.068702,1.938931,3.188214,-8.018596,2.279511,0.4350586,0.2456055,-0.04101563,-6.610687,5.740458,-6.473282,-2.810168,4.943756,-3.092915,HUNCH_MOD
-0.3815918,-0.7714844,0.4604492,-9.267176,4.59542,2.290076,-7.124305,6.300581,0.8670226,-0.8139648,0.02636719,0.6984863,1.908397,-6.992366,0.7480916,3.157679,-7.942259,1.088672,0.4284668,0.2519531,-0.04907227,-7.51145,8.259542,-7.89313,-3.710931,7.462839,-4.512762,HUNCH_MOD
-0.3891602,-0.7753906,0.4648438,-9.19084,5.19084,1.923664,-7.047969,6.896001,0.5006104,-0.8059082,0.03588867,0.6982422,1.908397,-5.480916,0.3664122,3.157679,-6.430809,0.7069922,0.4416504,0.2470703,-0.04980469,-7.648855,6.732824,-5.496183,-3.848335,5.936122,-2.115816,HUNCH_MOD
-0.3981934,-0.776123,0.4521484,-10.06107,4.503817,1.938931,-7.918198,6.208978,0.5158777,-0.8041992,0.046875,0.7214355,4.091603,-5.908397,0.3206107,5.340886,-6.85829,0.6611906,0.4506836,0.2492676,-0.03100586,-8.015267,0.3053435,-4.412214,-4.214747,-0.4913588,-1.031846,HUNCH_MOD
-0.4013672,-0.7663574,0.4519043,-10.99237,4.473282,2.656489,-8.849497,6.178443,1.233435,-0.8017578,0.04052734,0.7260742,2.839695,-6.992366,1.496183,4.088977,-7.942259,1.836763,0.4455566,0.2519531,-0.03320313,-7.61832,5.450382,-5.221374,-3.817801,4.653679,-1.841006,HUNCH_MOD
-0.4108887,-0.7751465,0.440918,-11.25191,4.534351,2.70229,-9.109037,6.239512,1.279236,-0.7946777,0.03686523,0.7272949,2.076336,-7.496183,2.48855,3.325618,-8.446076,2.82913,0.4428711,0.2614746,-0.02856445,-8.671756,9.603053,-7.19084,-4.871236,8.806351,-3.810472,HUNCH_MOD
-0.4072266,-0.7790527,0.4313965,-13.22137,5.007634,2.931298,-11.0785,6.712795,1.508244,-0.8022461,0.04467773,0.7336426,1.251908,-8.061069,2.839695,2.501191,-9.010962,3.180275,0.4433594,0.2578125,-0.01928711,-12.30534,3.022901,-4.320611,-8.504824,2.226198,-0.940243,HUNCH_MOD
-0.4228516,-0.795166,0.4082031,-13.35878,6.229008,3.587786,-11.21591,7.934169,2.164732,-0.8046875,0.05249023,0.7495117,1.664122,-7.175572,2.931298,2.913404,-8.125465,3.271878,0.4499512,0.2595215,-0.02319336,-9.954199,8.152672,-5.908397,-6.153679,7.355969,-2.528029,HUNCH_MOD
-0.4230957,-0.786377,0.3916016,-13.70992,5.526718,4.473282,-11.56705,7.231879,3.050229,-0.7800293,0.05859375,0.7490234,-0.9465649,-6.274809,1.816794,0.3027174,-7.224702,2.157374,0.4440918,0.2675781,-0.02368164,-13.16031,1.312977,-3.679389,-9.359785,0.5162747,-0.2990217,HUNCH_MOD
-0.4250488,-0.798584,0.3735352,-13.28244,6.732824,4.946565,-11.13957,8.437985,3.523511,-0.7888184,0.04858398,0.7539063,-1.78626,-6.656488,0.1526718,-0.5369772,-7.606381,0.4932518,0.435791,0.2602539,-0.01708984,-13.03817,8.610687,-8.106871,-9.237648,7.813985,-4.726503,HUNCH_MOD
-0.4338379,-0.7910156,0.3867188,-13.38931,6.38168,6.900764,-11.24644,8.086841,5.47771,-0.7807617,0.06689453,0.7661133,-3.175573,-3.572519,-2.183206,-1.92629,-4.522412,-1.842626,0.4438477,0.2565918,-0.03149414,-12.99237,4.366412,-6.931298,-9.191847,3.56971,-3.55093,HUNCH_MOD
-0.4458008,-0.7929688,0.3522949,-13.22137,5.801527,5.664122,-11.0785,7.506688,4.241068,-0.7612305,0.06445313,0.7697754,-1.40458,-5.969466,0.259542,-0.1552978,-6.919359,0.600122,0.4462891,0.2683105,0.006591797,-9.877863,4.625954,-7.572519,-6.077343,3.829252,-4.192152,HUNCH_MOD
-0.4467773,-0.8039551,0.3427734,-11.31298,4.687023,5.251908,-9.170107,6.392184,3.828855,-0.7575684,0.05786133,0.7729492,-2.015267,-6.366412,0.6870229,-0.7659848,-7.316305,1.027603,0.4333496,0.2636719,-0.01464844,-8.473283,6.580153,-7.312977,-4.672763,5.78345,-3.93261,HUNCH_MOD
-0.4521484,-0.8039551,0.3254395,-12.58015,4.870229,4.946565,-10.43728,6.57539,3.523511,-0.769043,0.05395508,0.7797852,-2.564885,-6.396946,0.2748091,-1.315603,-7.346839,0.6153891,0.4494629,0.2783203,0.01586914,-9.267176,4.412214,-6.244275,-5.466656,3.615511,-2.863907,HUNCH_MOD
-0.4677734,-0.8056641,0.3098145,-19.57252,3.541985,5.007634,-17.42965,5.247146,3.58458,-0.7612305,0.0703125,0.7980957,-0.519084,-8.549619,0.07633588,0.7301984,-9.499512,0.4169158,0.4291992,0.2651367,0.009765625,-3.984733,6.503817,-9.160305,-0.1842132,5.707114,-5.779938,HUNCH_MOD
-0.4555664,-0.8190918,0.3083496,-19.80153,3.832061,5.282443,-17.65866,5.537222,3.859389,-0.7563477,0.04858398,0.7807617,-5.694656,-9.725191,-1.068702,-4.445374,-10.67508,-0.7281223,0.4328613,0.270752,0.006347656,-4.167939,3.541985,-8.458015,-0.367419,2.745282,-5.077648,HUNCH_MOD
-0.4838867,-0.828125,0.2854004,-16.19847,2.198473,4.396946,-14.0556,3.903634,2.973893,-0.7553711,0.0534668,0.8146973,-0.7938931,-8.351145,-2.320611,0.4553892,-9.301038,-1.980031,0.4379883,0.2849121,0.004394531,-5.557252,3.374046,-8.656488,-1.756732,2.577343,-5.276121,HUNCH_MOD
-0.4655762,-0.8376465,0.2824707,-13.81679,2.305344,4.442748,-11.67392,4.010505,3.019694,-0.7429199,0.05224609,0.8249512,-2.290076,-12.24428,-3.145038,-1.040794,-13.19417,-2.804458,0.435791,0.2888184,0.03027344,-6.885496,-2.427481,-7.099236,-3.084976,-3.224183,-3.718869,HUNCH_MOD
-0.4699707,-0.8017578,0.2636719,-20.8855,3.40458,5.954198,-18.74263,5.109741,4.531145,-0.7189941,0.04150391,0.7966309,-5.450382,-10.71756,-4.290076,-4.201099,-11.66745,-3.949496,0.4204102,0.2775879,0.004150391,-10.0916,-0.6717557,-7.969466,-6.291083,-1.468458,-4.589098,HUNCH_MOD
-0.4804688,-0.8220215,0.2543945,-16.65649,3.572519,5.358778,-14.51362,5.27768,3.935725,-0.7199707,0.04760742,0.8225098,-1.816794,-8.015267,-4.885496,-0.5675116,-8.96516,-4.544916,0.4260254,0.2770996,0.01147461,-11.19084,1.206107,-7.633588,-7.39032,0.4094046,-4.253221,HUNCH_MOD
-0.4924316,-0.8171387,0.2207031,-19.46565,3.038168,6.10687,-17.32278,4.743329,4.683816,-0.685791,0.03588867,0.8227539,-2.244275,-7.740458,-3.984733,-0.9949924,-8.690351,-3.644153,0.4211426,0.2827148,0.01220703,-9.297709,1.801527,-7.541985,-5.49719,1.004824,-4.161617,HUNCH_MOD
-0.5,-0.8208008,0.206543,-20.48855,1.465649,6.0,-18.34568,3.17081,4.576946,-0.6989746,0.02954102,0.8486328,-1.007634,-4.793893,-3.648855,0.2416488,-5.743786,-3.308275,0.4291992,0.2878418,0.0078125,-7.877862,0.961832,-7.022901,-4.077343,0.1651297,-3.642533,HUNCH_MOD
-0.5026855,-0.8295898,0.1994629,-19.31298,0.1068702,6.885496,-17.17011,1.812031,5.462442,-0.7026367,0.03808594,0.8395996,-4.290076,-4.656488,-3.496183,-3.040794,-5.606381,-3.155603,0.4316406,0.2849121,0.01879883,-7.526718,-1.145038,-7.328244,-3.726198,-1.941741,-3.947877,HUNCH_MOD
-0.5061035,-0.809082,0.166748,-13.72519,-2.671756,4.763359,-11.58232,-0.9665948,3.340305,-0.6689453,0.02612305,0.8513184,-2.793893,-3.541985,-2.366412,-1.544611,-4.491878,-2.025832,0.4226074,0.2670898,0.02148438,-6.366412,1.19084,-7.114504,-2.565892,0.3941373,-3.734136,HUNCH_MOD
-0.4997559,-0.795166,0.1865234,-5.450382,-3.221374,3.541985,-3.307511,-1.516213,2.118931,-0.7023926,0.02197266,0.8544922,-8.488549,-3.877863,-1.450382,-7.239267,-4.827756,-1.109802,0.4296875,0.2924805,0.03076172,-9.236641,-1.572519,-5.374046,-5.436121,-2.369221,-1.993678,HUNCH_MOD
-0.501709,-0.8261719,0.1953125,-1.160305,-4.458015,2.351145,0.982565,-2.752854,0.9280914,-0.6870117,0.02050781,0.8491211,-5.740458,-3.022901,0.2290076,-4.491176,-3.972794,0.5695876,0.4155273,0.2866211,0.008544922,-8.610687,0.2290076,-5.908397,-4.810167,-0.5676947,-2.528029,HUNCH_MOD
-0.5021973,-0.807373,0.1865234,-3.78626,-4.045802,3.89313,-1.643389,-2.340641,2.470076,-0.7087402,0.007324219,0.8693848,-9.877863,-1.007634,-0.8091603,-8.62858,-1.957527,-0.4685803,0.4304199,0.3061523,0.02709961,-9.78626,-3.022901,-6.076336,-5.98574,-3.819603,-2.695968,HUNCH_MOD
-0.4975586,-0.8347168,0.2053223,-12.74809,-4.076336,5.496183,-10.60522,-2.371175,4.07313,-0.697998,-0.002441406,0.8364258,-11.38931,-3.954198,-0.9923664,-10.14003,-4.904091,-0.6517864,0.4135742,0.2915039,0.01806641,-4.061069,-2.793893,-6.274809,-0.2605488,-3.590595,-2.894442,HUNCH_MOD
-0.5063477,-0.8242188,0.1669922,-14.41221,-2.717557,6.320611,-12.26934,-1.012396,4.897557,-0.6879883,-0.01757813,0.8383789,-7.648855,-1.832061,-1.51145,-6.399572,-2.781954,-1.17087,0.4208984,0.2993164,0.01147461,-5.419847,-0.04580153,-5.923664,-1.619328,-0.8425038,-2.543297,HUNCH_MOD
-0.5368652,-0.8256836,0.1599121,-13.43511,-1.847328,5.541985,-11.29224,-0.1421672,4.118931,-0.6835938,-0.01708984,0.8444824,-5.51145,-1.740458,-1.282443,-4.262168,-2.690351,-0.9418627,0.4196777,0.296875,0.009765625,-3.221374,0.1832061,-5.557252,0.5791457,-0.6134962,-2.176884,HUNCH_MOD
-0.517334,-0.8112793,0.1618652,-15.52672,-3.312977,4.70229,-13.38385,-1.607816,3.279236,-0.6906738,-0.02587891,0.8474121,-7.816794,-0.2900764,-1.40458,-6.567512,-1.239969,-1.064,0.4213867,0.3022461,0.01025391,-6.427481,0.1832061,-4.458015,-2.626961,-0.6134962,-1.077648,HUNCH_MOD
-0.5195313,-0.7883301,0.1599121,-14.21374,-1.312977,5.954198,-12.07087,0.3921839,4.531145,-0.6806641,-0.01513672,0.847168,-3.282443,-1.725191,-0.2748091,-2.03316,-2.675084,0.06577084,0.4099121,0.2907715,0.02783203,-5.755725,1.496183,-4.687023,-1.955206,0.6994808,-1.306655,HUNCH_MOD
-0.5244141,-0.8027344,0.15625,-10.9313,-1.374046,5.358778,-8.788427,0.3311151,3.935725,-0.6745605,-0.01367188,0.8544922,-3.358779,-1.206107,0.5038168,-2.109496,-2.156,0.8443968,0.4172363,0.2929688,0.01269531,-6.320611,4.977099,-5.725191,-2.520091,4.180397,-2.344823,HUNCH_MOD
-0.512207,-0.8068848,0.1345215,-12.50382,-1.419847,5.908397,-10.36095,0.2853136,4.485343,-0.6828613,-0.02172852,0.8554688,-3.068702,-2.580153,0.9465649,-1.81942,-3.530046,1.287145,0.4243164,0.3029785,0.02636719,-7.801527,5.29771,-4.854962,-4.001007,4.501008,-1.474594,HUNCH_MOD
-0.5253906,-0.8200684,0.1196289,-4.748092,1.496183,4.580153,-2.605221,3.201344,3.157099,-0.6740723,-0.006347656,0.8547363,-1.312977,-2.320611,2.091603,-0.06369472,-3.270504,2.432183,0.4116211,0.293457,0.02734375,-8.824428,5.633588,-4.38168,-5.023908,4.836885,-1.001312,HUNCH_MOD
-0.526123,-0.8308105,0.1289063,-4.427481,0.8854962,4.21374,-2.28461,2.590657,2.790687,-0.6875,0.006347656,0.876709,0.1374046,-1.633588,1.694656,1.386687,-2.583481,2.035236,0.4169922,0.302002,0.03588867,-7.801527,5.068702,-4.885496,-4.001007,4.272,-1.505129,HUNCH_MOD
-0.5375977,-0.8254395,0.1276855,-12.01527,-2.183206,6.137404,-9.872396,-0.4780451,4.714351,-0.6745605,0.000244141,0.8811035,-3.328244,-1.648855,0.0610687,-2.078962,-2.598748,0.4016487,0.4287109,0.298584,0.03222656,-5.954198,3.679389,-5.755725,-2.153679,2.882687,-2.375358,HUNCH_MOD
-0.5402832,-0.8017578,0.09912109,-10.24428,-2.10687,6.244275,-8.101404,-0.4017092,4.821221,-0.6733398,-0.01049805,0.8862305,-4.824428,0.2290076,-1.312977,-3.575145,-0.7208855,-0.972397,0.4118652,0.2998047,0.03222656,-0.01526718,4.305344,-5.908397,3.785253,3.508641,-2.528029,HUNCH_MOD
-0.5385742,-0.833252,0.1005859,-4.198473,-0.9007633,6.854962,-2.055603,0.8043977,5.431908,-0.6748047,0.0,0.8920898,-9.328244,3.40458,-2.396947,-8.078962,2.454687,-2.056367,0.4140625,0.2915039,0.02539063,-3.770992,-1.89313,-4.870229,0.02952743,-2.689832,-1.489862,HUNCH_MOD
-0.604248,-0.8508301,0.0871582,-0.3664122,-0.610687,5.358778,1.776458,1.094474,3.935725,-0.6623535,-0.02587891,0.8737793,-6.977099,4.473282,-1.053435,-5.727817,3.523389,-0.7128551,0.4111328,0.3061523,0.03076172,-2.427481,0.04580153,-5.480916,1.373039,-0.7509008,-2.100549,HUNCH_MOD
-0.5629883,-0.793457,0.1655273,0.7480916,-4.48855,3.465649,2.890962,-2.783389,2.042595,-0.6699219,-0.02441406,0.8562012,-3.587786,7.89313,-2.274809,-2.338504,6.943237,-1.934229,0.4069824,0.3005371,0.01000977,5.954198,4.763359,-7.053435,9.754718,3.966656,-3.673068,HUNCH_MOD
-0.5178223,-0.7634277,0.1330566,-11.22137,-7.862596,0.3053435,-9.078505,-6.157434,-1.11771,-0.697998,-0.0378418,0.7966309,-4.839694,7.465649,-0.5954198,-3.590412,6.515756,-0.2548398,0.4189453,0.3137207,0.04443359,5.938931,-3.465649,-1.358779,9.739451,-4.262351,2.021589,HUNCH_MOD
-0.5280762,-0.7871094,0.1276855,-14.33588,-7.129771,1.083969,-12.19301,-5.42461,-0.3390841,-0.6989746,-0.0612793,0.8427734,4.503817,-0.5954198,-0.6717557,5.753099,-1.545313,-0.3311758,0.4150391,0.3071289,0.02587891,-1.923664,0.870229,-1.19084,1.876856,0.07352668,2.189528,HUNCH_MOD
-0.5212402,-0.770752,0.135498,-13.31298,-3.847328,4.38168,-11.17011,-2.142167,2.958626,-0.706543,-0.02172852,0.8493652,-1.587786,0.6564885,-2.335878,-0.338504,-0.2934046,-1.995298,0.407959,0.3066406,0.02563477,-5.145038,-0.778626,-4.427481,-1.344518,-1.575328,-1.047113,HUNCH_MOD
-0.5375977,-0.7583008,0.09838867,-9.664123,-1.374046,5.312977,-7.521252,0.3311151,3.889924,-0.677002,-0.03857422,0.8601074,0.519084,-4.076336,-2.534351,1.768366,-5.026229,-2.193771,0.4204102,0.3049316,0.01293945,-9.969465,3.175573,-5.251908,-6.168945,2.37887,-1.871541,HUNCH_MOD
-0.5498047,-0.7922363,0.08374023,-6.80916,-0.6412213,5.08397,-4.66629,1.06394,3.660916,-0.6657715,-0.02734375,0.8427734,-4.427481,-1.572519,-0.5954198,-3.178198,-2.522412,-0.2548398,0.4018555,0.2922363,0.0300293,-10.76336,3.068702,-4.80916,-6.962839,2.272,-1.428793,HUNCH_MOD
-0.5646973,-0.7958984,0.07250977,-8.931297,-3.450382,6.229008,-6.788427,-1.745221,4.805954,-0.6630859,-0.04199219,0.8869629,-3.282443,-1.251908,-0.6717557,-2.03316,-2.201802,-0.3311758,0.4296875,0.3154297,0.04223633,-13.05344,5.206107,-6.320611,-9.252915,4.409404,-2.940243,HUNCH_MOD
-0.5759277,-0.8039551,0.06958008,0.7328244,-1.053435,3.923664,2.875695,0.6517259,2.50061,-0.6315918,-0.01611328,0.8796387,-1.160305,0.6717557,0.9923664,0.08897697,-0.2781374,1.332946,0.3950195,0.296875,0.02075195,-6.763359,3.114504,-4.992366,-2.962839,2.317801,-1.611999,HUNCH_MOD
-0.5744629,-0.7958984,0.08276367,6.015267,-0.5954198,2.259542,8.158138,1.109741,0.8364883,-0.6594238,-0.02685547,0.8847656,-3.679389,2.824427,-0.01526718,-2.430107,1.874534,0.3253128,0.4042969,0.298584,0.01782227,-2.442748,5.694656,-5.343512,1.357772,4.897954,-1.963144,HUNCH_MOD
-0.5742188,-0.8066406,0.08569336,4.473282,-0.6259542,1.847328,6.616153,1.079207,0.4242745,-0.7011719,-0.0324707,0.8720703,-6.183206,3.389313,1.19084,-4.933924,2.43942,1.53142,0.4238281,0.3173828,0.03491211,-4.946565,2.839695,-3.938931,-1.146045,2.042992,-0.5585637,HUNCH_MOD
-0.5625,-0.7949219,0.09887695,-0.2290076,-1.236641,1.374046,1.913863,0.4685198,-0.04900777,-0.6826172,-0.03442383,0.8591309,-2.793893,0.5038168,0.09160305,-1.544611,-0.4460763,0.432183,0.4150391,0.3122559,0.04516602,-1.083969,0.5038168,-3.679389,2.71655,-0.2928855,-0.2990217,HUNCH_MOD
-0.5881348,-0.7854004,0.1054688,-0.09160305,-0.6259542,1.419847,2.051267,1.079207,-0.003206253,-0.7053223,-0.03442383,0.8632813,-1.526718,0.6717557,-0.7328244,-0.2774352,-0.2781374,-0.3922445,0.4211426,0.3151855,0.04467773,-3.78626,1.694656,-4.030534,0.01426005,0.8979542,-0.6501667,HUNCH_EXT
-0.5883789,-0.7724609,0.09716797,-2.793893,-1.419847,2.687023,-0.6510227,0.2853136,1.263969,-0.6826172,-0.05395508,0.8513184,-4.137404,0.09160305,-0.778626,-2.888122,-0.8582901,-0.438046,0.4091797,0.3164063,0.05493164,-2.931298,2.015267,-4.70229,0.8692219,1.218565,-1.321923,HUNCH_EXT
-0.5825195,-0.7736816,0.1018066,-3.450382,-1.78626,2.59542,-1.307511,-0.08109856,1.172366,-0.6955566,-0.0390625,0.8547363,-5.557252,0.5343512,-0.6717557,-4.30797,-0.4155419,-0.3311758,0.409668,0.3110352,0.04345703,0.8396947,0.9923664,-5.129771,4.640214,0.1956641,-1.749403,HUNCH_EXT
-0.5825195,-0.7929688,0.119873,-7.572519,-4.59542,3.450382,-5.429649,-2.890259,2.027328,-0.7070313,-0.04736328,0.8676758,-5.923664,1.740458,-2.198473,-4.674382,0.7905649,-1.857893,0.4152832,0.307373,0.03662109,3.068702,-0.4122138,-4.641222,6.869222,-1.208916,-1.260854,HUNCH_EXT
-0.5825195,-0.7714844,0.09521484,-15.45038,-8.122137,3.832061,-13.30751,-6.416976,2.409008,-0.6821289,-0.07250977,0.8305664,-6.549618,1.236641,-2.091603,-5.300336,0.286748,-1.751023,0.4074707,0.3173828,0.05712891,-0.7480916,-2.396947,-4.030534,3.052428,-3.193649,-0.6501667,HUNCH_EXT
-0.5878906,-0.7705078,0.1086426,-14.68702,-9.603053,3.557252,-12.54415,-7.897892,2.134198,-0.6950684,-0.06079102,0.857666,-4.351145,4.167939,-3.145038,-3.101863,3.218046,-2.804458,0.4038086,0.3076172,0.05419922,-0.7480916,-1.480916,-4.351145,3.052428,-2.277618,-0.9707777,HUNCH_EXT
-0.5776367,-0.7443848,0.1005859,-8.763359,-7.435114,2.763359,-6.620489,-5.729953,1.340305,-0.7009277,-0.08886719,0.8425293,-4.442748,3.725191,-1.450382,-3.193466,2.775298,-1.109802,0.4211426,0.3149414,0.05395508,-1.40458,-1.78626,-2.763359,2.39594,-2.582962,0.6170087,HUNCH_EXT
-0.6035156,-0.7739258,0.06689453,-11.32824,-9.175572,2.412214,-9.185373,-7.470411,0.9891602,-0.6760254,-0.07470703,0.8562012,-3.282443,4.137404,-0.8396947,-2.03316,3.187511,-0.4991147,0.4064941,0.3112793,0.04760742,-1.022901,0.3664122,-3.145038,2.777619,-0.4302901,0.2353294,HUNCH_EXT
-0.5837402,-0.7612305,0.08691406,-6.473282,-4.473282,2.305344,-4.330412,-2.768121,0.88229,-0.6899414,-0.09472656,0.8417969,-3.770992,1.725191,0.4580153,-2.52171,0.7752977,0.7985952,0.4035645,0.3105469,0.03637695,-1.78626,2.442748,-4.10687,2.01426,1.646046,-0.7265027,HUNCH_EXT
-0.5939941,-0.7702637,0.1005859,-3.419847,-2.519084,2.045802,-1.276977,-0.813923,0.622748,-0.7019043,-0.08129883,0.8376465,-3.358779,0.870229,0.1068702,-2.109496,-0.07966411,0.4474502,0.4060059,0.315918,0.04296875,-1.832061,1.587786,-4.458015,1.968459,0.791084,-1.077648,HUNCH_EXT
-0.5910645,-0.7814941,0.09594727,-2.656489,-1.969466,2.366412,-0.5136182,-0.2643046,0.9433585,-0.7111816,-0.09155273,0.8493652,-3.832061,1.221374,-0.8396947,-2.582779,0.2714809,-0.4991147,0.4116211,0.3244629,0.04516602,-5.160306,1.755725,-4.076336,-1.359786,0.9590228,-0.6959684,HUNCH_EXT
-0.588623,-0.7807617,0.09301758,-5.389313,-2.656489,2.503817,-3.246442,-0.9513277,1.080763,-0.7075195,-0.07763672,0.8334961,-3.694656,0.3664122,-0.7022901,-2.445374,-0.5834809,-0.3617101,0.4084473,0.3146973,0.05761719,-4.641222,-0.778626,-4.259542,-0.8407019,-1.575328,-0.8791744,HUNCH_EXT
-0.5908203,-0.7770996,0.08813477,-4.70229,-1.282443,3.022901,-2.55942,0.4227183,1.599847,-0.6896973,-0.08349609,0.8413086,-3.694656,-0.3816794,-1.328244,-2.445374,-1.331573,-0.9876643,0.4025879,0.3112793,0.04052734,-4.290076,2.870229,-6.061069,-0.4895566,2.073527,-2.680701,HUNCH_EXT
-0.5803223,-0.760498,0.08032227,-3.694656,-1.664122,2.412214,-1.551786,0.04103887,0.9891602,-0.6887207,-0.09716797,0.8271484,-3.038168,0.5648855,-1.343511,-1.788886,-0.3850076,-1.002931,0.4023438,0.3181152,0.04394531,-3.206107,0.1832061,-3.847328,0.5944128,-0.6134962,-0.4669607,HUNCH_EXT
-0.5930176,-0.7851563,0.1010742,-3.038168,-1.29771,1.40458,-0.8952975,0.4074511,-0.01847351,-0.713623,-0.07397461,0.8483887,-0.2290076,0.3053435,-1.221374,1.020275,-0.6445496,-0.880794,0.4035645,0.3166504,0.03564453,-2.366412,1.954198,-4.70229,1.434108,1.157496,-1.321923,HUNCH_EXT
-0.588623,-0.7697754,0.08398438,-4.778626,-1.282443,1.770992,-2.635756,0.4227183,0.3479388,-0.7026367,-0.08691406,0.8374023,-1.816794,3.877863,-0.870229,-0.5675116,2.927969,-0.529649,0.4140625,0.3259277,0.04052734,-7.389313,-0.3969466,-3.282443,-3.588793,-1.193649,0.09792471,HUNCH_EXT
-0.6044922,-0.7797852,0.07080078,-5.267176,-2.229008,1.343511,-3.124305,-0.5238467,-0.07954216,-0.6789551,-0.08081055,0.8557129,-1.938931,0.1526718,-1.465649,-0.689649,-0.7972214,-1.125069,0.3994141,0.3156738,0.04882813,-1.862595,-0.3664122,-4.259542,1.937924,-1.163115,-0.8791744,HUNCH_EXT
-0.5922852,-0.7763672,0.0690918,-6.167939,-4.564886,2.763359,-4.025068,-2.859725,1.340305,-0.6838379,-0.0925293,0.8503418,-6.442748,0.7938931,-1.236641,-5.193466,-0.156,-0.8960611,0.4042969,0.3212891,0.03491211,-3.664122,2.091603,-5.587786,0.1363976,1.294901,-2.207419,HUNCH_EXT
-0.5998535,-0.7575684,0.07202148,-9.343512,-6.748092,3.755725,-7.200641,-5.042931,2.332672,-0.703125,-0.0793457,0.8564453,-4.671756,0.6717557,-0.2748091,-3.422473,-0.2781374,0.06577084,0.3984375,0.3156738,0.0390625,-4.198473,1.328244,-4.946565,-0.3979537,0.531542,-1.566197,HUNCH_EXT
-0.6049805,-0.7502441,0.08740234,-9.175572,-4.229008,4.198473,-7.032702,-2.523847,2.77542,-0.6877441,-0.1069336,0.8481445,-4.763359,-0.2290076,-0.3206107,-3.514076,-1.178901,0.01996931,0.4101563,0.3190918,0.04589844,-6.748092,3.328244,-4.778626,-2.947572,2.531542,-1.398258,HUNCH_EXT
-0.6005859,-0.7646484,0.06445313,-9.312977,-6.10687,2.534351,-7.170106,-4.401709,1.111297,-0.6608887,-0.1291504,0.8349609,-4.625954,0.1526718,1.29771,-3.376672,-0.7972214,1.63829,0.3989258,0.3217773,0.05834961,-4.10687,-0.03053435,-2.534351,-0.3063505,-0.8272367,0.8460164,HUNCH_EXT
-0.5986328,-0.7683105,0.06567383,-2.916031,-1.89313,-0.1374046,-0.7731602,-0.1879688,-1.560458,-0.6875,-0.08911133,0.8327637,-2.839695,0.5038168,2.0,-1.590412,-0.4460763,2.34058,0.3999023,0.3190918,0.05712891,-4.152672,1.770992,-2.335878,-0.3521521,0.9742901,1.04449,HUNCH_EXT
-0.6000977,-0.7834473,0.04614258,-4.076336,-2.687023,-0.04580153,-1.933465,-0.981862,-1.468855,-0.6970215,-0.104248,0.8395996,-2.274809,0.8396947,1.251908,-1.025527,-0.1101984,1.592488,0.4001465,0.3327637,0.04858398,-3.40458,1.145038,-1.603053,0.3959396,0.3483358,1.777314,HUNCH_EXT
-0.576416,-0.7624512,0.08032227,-4.259542,-2.442748,0.8091603,-2.116672,-0.7375871,-0.6138933,-0.7094727,-0.08789063,0.8562012,-3.038168,-0.5801527,-0.1526718,-1.788886,-1.530046,0.1879082,0.4072266,0.3183594,0.04125977,-3.801527,-0.870229,-1.114504,-0.00100708,-1.666931,2.265864,HUNCH_EXT
-0.588623,-0.7717285,0.04956055,-4.992366,-2.183206,0.8091603,-2.849496,-0.4780451,-0.6138933,-0.6833496,-0.1000977,0.8496094,0.1679389,0.5648855,-0.6870229,1.417221,-0.3850076,-0.3464429,0.3989258,0.3186035,0.06225586,-5.374046,-1.129771,-0.9312977,-1.573526,-1.926473,2.44907,HUNCH_EXT
-0.6147461,-0.7949219,0.03198242,-5.633588,-1.923664,0.9007633,-3.490717,-0.2185031,-0.5222903,-0.6835938,-0.09423828,0.8591309,-1.374046,1.374046,-0.6564885,-0.1247635,0.4241528,-0.3159086,0.40625,0.3234863,0.05297852,-4.824428,-0.07633588,-1.129771,-1.023908,-0.8730382,2.250597,HUNCH_EXT
-0.5961914,-0.7536621,0.0559082,-9.022901,-3.282443,2.183206,-6.88003,-1.577282,0.7601524,-0.6818848,-0.09472656,0.8596191,-2.70229,0.778626,-0.1679389,-1.453008,-0.1712672,0.172641,0.4077148,0.3195801,0.05249023,-3.633588,-1.206107,-1.557252,0.1669319,-2.002809,1.823116,HUNCH_EXT
-0.5947266,-0.7756348,0.07250977,-6.21374,-2.580153,2.229008,-4.07087,-0.8749918,0.8059541,-0.7089844,-0.09936523,0.8439941,-0.961832,1.145038,-1.40458,0.2874503,0.195145,-1.064,0.4008789,0.3115234,0.04272461,-1.603053,-0.9770992,-2.244275,2.197466,-1.773802,1.136093,HUNCH_EXT
-0.6010742,-0.7766113,0.03857422,-5.862596,-4.656488,2.732824,-3.719725,-2.951327,1.309771,-0.6970215,-0.1132813,0.8381348,-1.923664,3.206107,-1.938931,-0.6743817,2.256214,-1.598351,0.3935547,0.3164063,0.03930664,-4.91603,-3.038168,-2.183206,-1.115511,-3.83487,1.197161,HUNCH_EXT
-0.5900879,-0.770752,0.04443359,-3.328244,-1.29771,2.091603,-1.185374,0.4074511,0.6685494,-0.6789551,-0.09521484,0.8300781,-2.564885,2.122137,-1.282443,-1.315603,1.172244,-0.9418627,0.4030762,0.3122559,0.05224609,-4.580153,-1.526718,-2.534351,-0.7796328,-2.32342,0.8460164,HUNCH_EXT
-0.5917969,-0.7685547,0.04663086,-1.51145,-2.229008,0.870229,0.63142,-0.5238467,-0.5528246,-0.6896973,-0.1054688,0.8505859,-1.664122,1.709924,-0.8396947,-0.4148397,0.7600305,-0.4991147,0.4035645,0.310791,0.03881836,-5.816794,1.358779,-2.015267,-2.016274,0.5620763,1.3651,HUNCH_EXT
-0.5952148,-0.7895508,0.05371094,-2.641221,-1.465649,1.618321,-0.4983509,0.2395121,0.195267,-0.7055664,-0.09228516,0.8342285,-2.793893,-0.3053435,-0.4580153,-1.544611,-1.255237,-0.1174353,0.4074707,0.3137207,0.04589844,-3.755725,0.8396947,-3.068702,0.04479456,0.04299235,0.3116653,HUNCH_EXT
-0.5991211,-0.7724609,0.03808594,0.3206107,-0.6412213,1.587786,2.463481,1.06394,0.1647327,-0.7055664,-0.1022949,0.8435059,-2.0,1.465649,-0.4885496,-0.7507176,0.5157557,-0.1479696,0.4145508,0.3200684,0.04321289,-6.305344,-1.969466,-2.091603,-2.504824,-2.766168,1.288764,HUNCH_EXT
-0.5861816,-0.7700195,0.03637695,-2.442748,-2.076336,1.526718,-0.2998776,-0.3711749,0.1036639,-0.6901855,-0.1108398,0.8291016,-3.450382,0.3664122,-0.519084,-2.201099,-0.5834809,-0.178504,0.4128418,0.3125,0.05371094,-5.51145,-1.832061,-1.770992,-1.710931,-2.628763,1.609375,HUNCH_EXT
-0.6081543,-0.7658691,0.03222656,-3.862595,-2.335878,2.076336,-1.719725,-0.6307169,0.6532823,-0.6853027,-0.09277344,0.8654785,0.5648855,1.480916,-1.328244,1.814168,0.5310229,-0.9876643,0.4101563,0.3115234,0.05419922,-5.969466,0.5496183,-3.053435,-2.168946,-0.247084,0.3269324,HUNCH_EXT
-0.5991211,-0.7583008,0.05664063,-5.816794,-3.755725,2.687023,-3.673923,-2.050564,1.263969,-0.689209,-0.1193848,0.847168,-3.954198,0.8396947,-0.8091603,-2.704916,-0.1101984,-0.4685803,0.4089355,0.3105469,0.03466797,-3.694656,1.160305,-3.648855,0.1058633,0.3636031,-0.2684875,HUNCH_EXT
-0.6184082,-0.8151855,0.02905273,-1.969466,-1.755725,2.503817,0.1734048,-0.05056417,1.080763,-0.6945801,-0.09448242,0.8859863,-1.236641,2.320611,-1.038168,0.01264119,1.370718,-0.697588,0.4101563,0.3083496,0.04174805,-4.442748,-0.3969466,-2.916031,-0.6422284,-1.193649,0.4643369,HUNCH_EXT
-0.6052246,-0.7421875,0.04248047,0.1526718,-2.0,2.48855,2.295542,-0.294839,1.065496,-0.673584,-0.1049805,0.8520508,-4.564886,0.7175572,-0.3358779,-3.315603,-0.2323359,0.004702121,0.4060059,0.3100586,0.05297852,-4.931298,-0.1832061,-4.305344,-1.130778,-0.9799085,-0.9249762,HUNCH_EXT
-0.592041,-0.7731934,0.02661133,-2.458015,-4.045802,2.21374,-0.3151448,-2.340641,0.7906867,-0.6789551,-0.1188965,0.8359375,-4.503817,0.7633588,0.1526718,-3.254534,-0.1865343,0.4932518,0.4016113,0.3105469,0.03662109,-3.19084,1.89313,-4.396946,0.6096799,1.096427,-1.016579,HUNCH_EXT
-0.6105957,-0.7575684,0.04125977,-2.427481,-3.389313,1.541985,-0.2846105,-1.684152,0.1189311,-0.6860352,-0.1169434,0.8540039,-1.282443,1.083969,-3.847328,-0.03316033,0.1340764,-3.506748,0.4091797,0.3105469,0.04077148,-2.961832,1.038168,-3.312977,0.8386877,0.2414656,0.06739044,HUNCH_EXT
-0.5861816,-0.7663574,0.04370117,-3.954198,-3.312977,1.954198,-1.811328,-1.607816,0.5311449,-0.7023926,-0.1242676,0.8364258,-2.80916,0.6564885,-0.7022901,-1.559878,-0.2934046,-0.3617101,0.4108887,0.3093262,0.04321289,-3.236641,-1.206107,-2.992366,0.5638785,-2.002809,0.3880012,HUNCH_EXT
-0.6086426,-0.7668457,0.03979492,-1.618321,-0.3664122,1.038168,0.5245499,1.338749,-0.3848857,-0.6882324,-0.1091309,0.8510742,-1.145038,1.572519,-0.1526718,0.1042442,0.6226259,0.1879082,0.4157715,0.3154297,0.06152344,-8.656488,-4.137404,-1.740458,-4.855968,-4.934107,1.63991,HUNCH_EXT
-0.6291504,-0.7802734,0.01196289,-3.236641,-0.2290076,0.9312977,-1.093771,1.476153,-0.4917559,-0.6745605,-0.112793,0.8581543,4.396946,0.2442748,-0.8854962,5.646229,-0.7056183,-0.5449162,0.390625,0.3112793,0.0390625,-9.206107,2.152672,-2.183206,-5.405587,1.355969,1.197161,HUNCH_EXT
-0.6135254,-0.7663574,0.04199219,-2.977099,-0.8091603,0.9465649,-0.8342287,0.8960007,-0.4764887,-0.6699219,-0.119873,0.8415527,0.610687,0.4732824,-0.7328244,1.859969,-0.4766107,-0.3922445,0.3991699,0.302002,0.01855469,-5.389313,3.435115,-3.557252,-1.588793,2.638412,-0.1768844,HUNCH_EXT
-0.5925293,-0.7653809,0.05761719,-1.374046,-0.4122138,0.7175572,0.7688246,1.292947,-0.7054964,-0.7138672,-0.09936523,0.8300781,-0.870229,0.9160305,-0.2748091,0.3790534,-0.03386259,0.06577084,0.4165039,0.3251953,0.04858398,-4.0,-0.9312977,-2.305344,-0.1994803,-1.728,1.075024,HUNCH_EXT
-0.6166992,-0.7775879,0.03564453,-0.01526718,0.0610687,1.160305,2.127603,1.76623,-0.2627482,-0.6992188,-0.08007813,0.8474121,-0.1832061,0.1221374,-0.2900764,1.066076,-0.8277557,0.05050364,0.4094238,0.3068848,0.05908203,-4.38168,-1.007634,-3.633588,-0.5811598,-1.804336,-0.2532203,HUNCH_EXT
-0.6115723,-0.7722168,0.03149414,-2.519084,-1.099237,1.801527,-0.3762136,0.6059244,0.378473,-0.677002,-0.1149902,0.8520508,-0.3969466,0.07633588,-0.5954198,0.8523358,-0.8735572,-0.2548398,0.4123535,0.3083496,0.03857422,-4.70229,1.664122,-3.648855,-0.9017704,0.8674198,-0.2684875,HUNCH_EXT
-0.605957,-0.7666016,0.05175781,-4.610687,-3.282443,2.122137,-2.467817,-1.577282,0.6990837,-0.6938477,-0.1027832,0.8544922,-3.847328,1.068702,-0.6259542,-2.598046,0.1188092,-0.2853742,0.4086914,0.310791,0.04907227,-2.885496,1.175573,-3.557252,0.9150236,0.3788702,-0.1768844,HUNCH_EXT
-0.6020508,-0.7624512,0.0378418,-2.687023,-2.549618,1.068702,-0.5441525,-0.8444572,-0.3543513,-0.6862793,-0.1000977,0.8417969,-1.633588,1.496183,0.2442748,-0.3843055,0.54629,0.5848548,0.3911133,0.3083496,0.04199219,-1.526718,-0.9465649,-2.10687,2.273802,-1.743267,1.273497,HUNCH_EXT
-0.5935059,-0.7751465,0.03662109,-2.305344,-3.51145,1.587786,-0.1624732,-1.806289,0.1647327,-0.6921387,-0.1152344,0.8349609,-3.618321,1.801527,-0.7022901,-2.369038,0.8516335,-0.3617101,0.4108887,0.310791,0.05419922,-3.709924,-1.78626,-2.381679,0.09059596,-2.582962,0.9986882,HUNCH_EXT
-0.6123047,-0.769043,0.02905273,-1.572519,-2.152672,1.175573,0.5703514,-0.4475108,-0.2474811,-0.684082,-0.09814453,0.8520508,0.01526718,2.412214,-0.3206107,1.264549,1.462321,0.01996931,0.4111328,0.3085938,0.0402832,-1.755725,1.007634,-3.755725,2.044795,0.2109313,-0.3753576,HUNCH_EXT
-0.6132813,-0.7663574,0.04223633,-1.251908,-1.221374,1.51145,0.890962,0.483787,0.08839679,-0.6875,-0.1083984,0.8361816,-1.099237,0.9465649,-0.1374046,0.1500458,-0.003328204,0.2031754,0.4047852,0.3098145,0.03857422,-1.526718,3.145038,-4.167939,2.273802,2.348336,-0.7875712,HUNCH_EXT
-0.6015625,-0.7641602,0.03369141,-1.40458,-0.1374046,0.9770992,0.7382903,1.567756,-0.4459544,-0.6784668,-0.1223145,0.8430176,-0.519084,-3.908397,-0.2137404,0.7301984,-4.85829,0.1268395,0.4042969,0.3056641,0.0390625,-1.923664,4.671756,-4.015267,1.876856,3.875053,-0.6348999,HUNCH_EXT
-0.619873,-0.7541504,0.1027832,-0.5954198,-0.7328244,2.48855,1.547451,0.9723366,1.065496,-0.6835938,-0.1181641,0.8583984,-1.358779,0.04580153,-1.480916,-0.1094962,-0.9040916,-1.140336,0.3959961,0.3273926,0.08227539,-5.038168,-0.351145,-4.519084,-1.237648,-1.147847,-1.138716,HUNCH_RIGHT
-0.6237793,-0.7592773,0.09228516,-0.6259542,0.259542,2.427481,1.516916,1.964703,1.004427,-0.6767578,-0.1037598,0.8613281,-1.099237,-0.4122138,-1.282443,0.1500458,-1.362107,-0.9418627,0.3969727,0.3220215,0.06103516,-4.824428,2.351145,-5.114504,-1.023908,1.554443,-1.734136,HUNCH_RIGHT
-0.6201172,-0.75,0.1032715,1.114504,-0.2442748,2.259542,3.257374,1.460886,0.8364883,-0.6811523,-0.114502,0.854248,-2.183206,0.3053435,-0.519084,-0.9339237,-0.6445496,-0.178504,0.394043,0.3249512,0.0690918,-4.290076,3.083969,-5.435114,-0.4895566,2.287267,-2.054747,HUNCH_RIGHT
-0.6057129,-0.7485352,0.1032715,0.09160305,-0.6717557,2.0,2.234473,1.033405,0.5769464,-0.6816406,-0.1049805,0.8376465,-1.19084,-0.1068702,-0.5648855,0.05844271,-1.056763,-0.2243055,0.3881836,0.3249512,0.06884766,-3.022901,2.778626,-5.328244,0.7776189,1.981924,-1.947877,HUNCH_RIGHT
-0.6193848,-0.7409668,0.109375,0.778626,-0.09160305,2.503817,2.921496,1.613558,1.080763,-0.6782227,-0.1257324,0.8498535,-1.068702,1.007634,-0.5038168,0.18058,0.05774045,-0.1632368,0.3447266,0.3688965,0.03637695,0.7022901,1.022901,-3.160305,4.50281,0.2261985,0.2200623,HUNCH_RIGHT
-0.614502,-0.739502,0.1074219,6.290076,2.366412,0.09160305,8.432947,4.071573,-1.331451,-0.6904297,-0.1118164,0.8417969,-2.900763,0.9923664,0.5343512,-1.651481,0.04247332,0.8749311,0.3935547,0.3303223,0.06811523,-2.916031,3.923664,-5.022901,0.8844891,3.126962,-1.642533,HUNCH_RIGHT
-0.6166992,-0.7492676,0.1154785,4.992366,2.473282,-0.5648855,7.135237,4.178443,-1.987939,-0.6740723,-0.1125488,0.8439941,-1.007634,0.4427481,0.9923664,0.2416488,-0.507145,1.332946,0.3928223,0.3283691,0.06225586,-2.412214,3.740458,-5.312977,1.388306,2.943756,-1.93261,HUNCH_RIGHT
-0.612793,-0.75,0.1240234,2.442748,3.374046,-3.419847,4.585618,5.079207,-4.842901,-0.6691895,-0.1176758,0.8349609,-1.236641,0.2137404,3.847328,0.01264119,-0.7361526,4.187908,0.3920898,0.3178711,0.09008789,3.832061,5.450382,-4.0,7.632581,4.653679,-0.6196325,HUNCH_RIGHT
-0.6142578,-0.802002,0.07226563,6.717557,6.641222,-7.358778,8.860428,8.346382,-8.781832,-0.6911621,-0.1064453,0.8671875,-0.2290076,5.267176,4.335878,1.020275,4.317283,4.676458,0.3952637,0.3334961,0.08081055,-8.793893,4.21374,-1.480916,-4.993373,3.417038,1.899451,HUNCH_RIGHT
-0.6103516,-0.7810059,0.09960938,15.8626,5.603054,-3.679389,18.00547,7.308215,-5.102443,-0.7126465,-0.08813477,0.8908691,0.9312977,2.549618,0.3206107,2.18058,1.599725,0.6611906,0.3916016,0.3442383,0.08520508,-3.984733,3.160305,-6.061069,-0.1842132,2.363603,-2.680701,HUNCH_RIGHT
-0.6083984,-0.746582,0.1425781,8.916031,2.961832,0.9312977,11.0589,4.666993,-0.4917559,-0.6940918,-0.0859375,0.855957,-4.59542,-0.9465649,-1.206107,-3.346138,-1.896458,-0.865527,0.3869629,0.3322754,0.08227539,-1.099237,4.198473,-8.564885,2.701283,3.401771,-5.184518,HUNCH_RIGHT
-0.6115723,-0.7460938,0.1391602,6.244275,0.259542,3.114504,8.387145,1.964703,1.69145,-0.6882324,-0.1064453,0.8632813,-5.61832,0.5496183,-1.725191,-4.369038,-0.4002748,-1.384611,0.388916,0.3330078,0.06884766,-2.091603,0.2900764,-6.610687,1.708917,-0.506626,-3.23032,HUNCH_RIGHT
-0.6123047,-0.7485352,0.142334,1.770992,-1.068702,3.51145,3.913863,0.6364586,2.088397,-0.6782227,-0.104248,0.861084,-2.824427,-0.3206107,-1.969466,-1.575145,-1.270504,-1.628886,0.3916016,0.3393555,0.09033203,2.152672,1.053435,-6.183206,5.953192,0.2567327,-2.802839,HUNCH_RIGHT
-0.607666,-0.7429199,0.1376953,2.641221,1.236641,3.236641,4.784092,2.941802,1.813588,-0.6689453,-0.1264648,0.8552246,-3.312977,-1.450382,-0.5496183,-2.063695,-2.400275,-0.2090383,0.3942871,0.3459473,0.08325195,1.374046,-2.992366,-2.473282,5.174565,-3.789069,0.9070852,HUNCH_RIGHT
-0.6057129,-0.7460938,0.128418,0.1221374,-0.1374046,1.038168,2.265008,1.567756,-0.3848857,-0.6774902,-0.1120605,0.8520508,-2.244275,-1.374046,0.2442748,-0.9949924,-2.323939,0.5848548,0.3833008,0.3339844,0.08447266,-4.396946,-0.01526718,-2.763359,-0.5964267,-0.8119696,0.6170087,HUNCH_RIGHT
-0.6130371,-0.7541504,0.1452637,2.320611,1.328244,1.160305,4.463481,3.033405,-0.2627482,-0.6760254,-0.123291,0.8603516,0.5954198,0.1221374,-1.29771,1.844702,-0.8277557,-0.95713,0.3891602,0.342041,0.08374023,-6.641222,-0.5496183,-3.832061,-2.840702,-1.346321,-0.4516935,HUNCH_RIGHT
-0.6069336,-0.7402344,0.1325684,0.6412213,0.6870229,1.618321,2.784092,2.392184,0.195267,-0.6855469,-0.1079102,0.8605957,1.908397,0.01526718,-2.656489,3.157679,-0.9346259,-2.315909,0.3857422,0.3366699,0.0793457,-6.580153,0.1068702,-5.419847,-2.779633,-0.6898321,-2.03948,HUNCH_RIGHT
-0.6086426,-0.7277832,0.138916,1.572519,0.3664122,1.633588,3.715389,2.071573,0.2105342,-0.6682129,-0.1169434,0.845459,0.1984733,-1.038168,-2.717557,1.447756,-1.988061,-2.376977,0.3811035,0.3291016,0.07226563,-4.717557,0.09160305,-5.312977,-0.9170378,-0.7050993,-1.93261,HUNCH_RIGHT
-0.6311035,-0.7385254,0.152832,0.7022901,-1.450382,0.6412213,2.84516,0.2547793,-0.7818323,-0.6618652,-0.1206055,0.8598633,1.51145,0.9160305,-0.961832,2.760733,-0.03386259,-0.6212521,0.3798828,0.333252,0.07080078,-5.480916,-0.07633588,-4.305344,-1.680396,-0.8730382,-0.9249762,HUNCH_RIGHT
-0.6315918,-0.739502,0.1335449,0.09160305,-0.6717557,1.374046,2.234473,1.033405,-0.04900777,-0.6728516,-0.1098633,0.8730469,1.725191,1.832061,-1.251908,2.974473,0.8821679,-0.9113284,0.3918457,0.3464355,0.08227539,-5.694656,0.7328244,-3.648855,-1.894137,-0.06387788,-0.2684875,HUNCH_RIGHT
-0.642334,-0.7424316,0.1350098,-2.519084,-0.2748091,1.908397,-0.3762136,1.430352,0.4853434,-0.6708984,-0.1123047,0.8725586,-1.603053,-0.6870229,0.01526718,-0.3537711,-1.636916,0.3558471,0.3818359,0.3361816,0.07446289,-5.358778,2.305344,-4.763359,-1.558259,1.508641,-1.382991,HUNCH_RIGHT
-0.6235352,-0.7341309,0.152832,-2.381679,-1.099237,1.923664,-0.2388089,0.6059244,0.5006104,-0.6706543,-0.1179199,0.8669434,-0.9923664,1.816794,-3.89313,0.2569159,0.8669008,-3.55255,0.3884277,0.3325195,0.07373047,-5.603054,-0.4274809,-3.29771,-1.802534,-1.224183,0.08265758,HUNCH_RIGHT
-0.6125488,-0.7353516,0.1501465,-3.709924,-3.358779,2.0,-1.567053,-1.653618,0.5769464,-0.6804199,-0.112793,0.8481445,-3.160305,2.763359,-0.259542,-1.911023,1.813466,0.081038,0.376709,0.3383789,0.06982422,-0.5648855,0.9770992,-3.480916,3.235634,0.1803969,-0.1005485,HUNCH_RIGHT
-0.614502,-0.7382813,0.1401367,-4.458015,-2.748092,1.801527,-2.315145,-1.042931,0.378473,-0.6640625,-0.09985352,0.8381348,0.07633588,2.717557,0.7328244,1.325618,1.767664,1.073404,0.3605957,0.3288574,0.06616211,-3.816794,3.450382,-4.167939,-0.01627421,2.653679,-0.7875712,HUNCH_RIGHT
-0.6252441,-0.7416992,0.1335449,-1.114504,-3.419847,-0.4885496,1.028367,-1.714686,-1.911603,-0.6794434,-0.1066895,0.854248,0.4122138,3.755725,0.259542,1.661496,2.805832,0.600122,0.3901367,0.3435059,0.0793457,0.7480916,1.832061,-2.366412,4.548611,1.035359,1.013955,HUNCH_RIGHT
-0.619873,-0.7429199,0.1542969,-2.70229,-3.038168,-0.5648855,-0.5594196,-1.333007,-1.987939,-0.6918945,-0.107666,0.8681641,0.1221374,2.076336,0.9312977,1.37142,1.126443,1.271878,0.4023438,0.3444824,0.0769043,-2.671756,1.526718,-1.847328,1.128764,0.7300152,1.533039,HUNCH_RIGHT
-0.6091309,-0.7390137,0.1499023,-5.496183,-1.709924,0.3053435,-3.353313,-0.00476265,-1.11771,-0.6906738,-0.1008301,0.8432617,0.3206107,0.1984733,0.7633588,1.569893,-0.7514198,1.103939,0.3833008,0.3391113,0.08129883,-3.954198,3.114504,-2.793893,-0.1536787,2.317801,0.5864744,HUNCH_RIGHT
-0.6057129,-0.7390137,0.1401367,-5.816794,-1.282443,1.267176,-3.673923,0.4227183,-0.1558781,-0.6784668,-0.1044922,0.8447266,-0.4885496,1.007634,0.5801527,0.7607327,0.05774045,0.9207327,0.3806152,0.3374023,0.07348633,-5.61832,2.687023,-2.839695,-1.817801,1.890321,0.5406728,HUNCH_RIGHT
-0.6083984,-0.744873,0.1386719,-3.206107,-0.9312977,1.679389,-1.063236,0.7738633,0.2563357,-0.6887207,-0.09326172,0.8552246,-0.03053435,1.557252,0.3053435,1.218748,0.6073588,0.6459235,0.3859863,0.3347168,0.0793457,-3.312977,2.167939,-3.236641,0.4875426,1.371237,0.1437263,HUNCH_RIGHT
-0.611084,-0.7504883,0.1437988,-4.625954,-1.648855,2.931298,-2.483084,0.056306,1.508244,-0.6767578,-0.09375,0.8508301,-2.152672,1.282443,-0.1068702,-0.9033895,0.3325496,0.2337098,0.3818359,0.3291016,0.07641602,-1.29771,1.19084,-4.244275,2.50281,0.3941373,-0.8639071,HUNCH_RIGHT
-0.6086426,-0.7470703,0.1445313,-3.587786,-2.229008,2.717557,-1.444916,-0.5238467,1.294504,-0.685791,-0.08666992,0.8598633,-2.70229,3.099237,-0.3664122,-1.453008,2.149343,-0.02583224,0.3803711,0.3278809,0.06640625,-2.030534,1.679389,-4.137404,1.769985,0.882687,-0.7570369,HUNCH_RIGHT
-0.6237793,-0.7573242,0.1333008,-3.175573,-4.015267,3.343511,-1.032702,-2.310106,1.920458,-0.6879883,-0.09326172,0.8762207,-4.610687,2.610687,-1.282443,-3.361405,1.660794,-0.9418627,0.3828125,0.3339844,0.07861328,-1.78626,4.366412,-6.549618,2.01426,3.56971,-3.169251,HUNCH_RIGHT
-0.6064453,-0.7485352,0.1276855,-4.183206,-3.572519,5.038168,-2.040336,-1.867358,3.615114,-0.6923828,-0.1154785,0.8393555,-9.465649,0.6717557,-1.755725,-8.216366,-0.2781374,-1.415145,0.392334,0.3442383,0.08056641,-1.358779,4.564886,-7.465649,2.441741,3.768183,-4.085281,HUNCH_RIGHT
-0.6357422,-0.7358398,0.1391602,-1.862595,-3.251908,3.801527,0.280275,-1.546747,2.378473,-0.671875,-0.1152344,0.8452148,-3.969466,1.541985,-0.8549618,-2.720183,0.5920916,-0.5143818,0.3825684,0.3364258,0.07470703,-1.145038,2.854962,-6.290076,2.655482,2.058259,-2.909709,HUNCH_RIGHT
-0.6208496,-0.7263184,0.138916,-3.572519,-3.221374,3.664122,-1.429649,-1.516213,2.241068,-0.6777344,-0.1257324,0.838623,-3.664122,1.938931,-0.3816794,-2.41484,0.9890383,-0.0410994,0.3820801,0.3508301,0.09301758,-5.129771,0.9923664,-4.412214,-1.329251,0.1956641,-1.031846,HUNCH_RIGHT
-0.6242676,-0.7429199,0.137207,-1.877863,-1.664122,2.076336,0.2650079,0.04103887,0.6532823,-0.6772461,-0.105957,0.8530273,0.9160305,1.40458,-0.2290076,2.165313,0.454687,0.1115724,0.3781738,0.3449707,0.08862305,-1.969466,2.625954,-7.801527,1.831054,1.829252,-4.421159,HUNCH_RIGHT
-0.557373,-0.7727051,0.1481934,-1.053435,-0.9923664,-4.534351,1.089435,0.7127945,-5.957405,-0.6809082,-0.02099609,0.8547363,6.091603,1.969466,2.946565,7.340886,1.019572,3.287145,0.4060059,0.3151855,0.06152344,-1.496183,-0.3358779,2.473282,2.304337,-1.13258,5.85365,HUNCH_LEFT
-0.5583496,-0.7912598,0.1518555,-0.9465649,-0.8549618,-4.961832,1.196306,0.8501991,-6.384886,-0.6970215,0.01635742,0.84375,7.175572,2.167939,1.465649,8.424854,1.218046,1.806229,0.3928223,0.3093262,0.07617188,-2.061069,-2.229008,3.328244,1.739451,-3.02571,6.708611,HUNCH_LEFT
-0.5461426,-0.7756348,0.1564941,-2.793893,-0.1679389,-4.473282,-0.6510227,1.537222,-5.896336,-0.6943359,-0.00390625,0.8356934,7.954198,0.3358779,1.923664,9.203481,-0.6140152,2.264244,0.4104004,0.3112793,0.0637207,-2.687023,1.221374,2.625954,1.113497,0.4246717,6.006322,HUNCH_LEFT
-0.5415039,-0.7924805,0.1608887,-1.206107,0.6564885,-5.160306,0.9367636,2.36165,-6.583359,-0.6716309,0.02050781,0.8342285,9.328244,-0.6259542,2.259542,10.57753,-1.575847,2.600122,0.4099121,0.3063965,0.0769043,-3.480916,-1.526718,3.877863,0.3196037,-2.32342,7.25823,HUNCH_LEFT
-0.5600586,-0.8022461,0.1315918,-0.351145,-0.6259542,-6.274809,1.791725,1.079207,-7.697863,-0.6616211,0.03588867,0.8664551,14.01527,1.053435,3.175573,15.26455,0.103542,3.516153,0.4240723,0.3041992,0.06933594,-4.10687,3.725191,4.992366,-0.3063505,2.928489,8.372734,HUNCH_LEFT
-0.5412598,-0.7922363,0.15625,-2.48855,-2.290076,-5.89313,-0.3456793,-0.5849153,-7.316184,-0.6928711,0.04931641,0.8850098,12.79389,3.664122,4.290076,14.04317,2.714229,4.630656,0.4250488,0.2939453,0.07373047,-0.2137404,3.435115,7.236641,3.586779,2.638412,10.61701,HUNCH_LEFT
-0.5446777,-0.815918,0.166748,-6.778626,-3.175573,-3.770992,-4.635756,-1.470412,-5.194046,-0.7121582,0.06933594,0.8603516,8.396947,2.916031,5.435114,9.646229,1.966138,5.775694,0.4277344,0.3103027,0.06079102,-0.5496183,3.938931,4.748092,3.250901,3.142229,8.128459,HUNCH_LEFT
-0.5209961,-0.7971191,0.1494141,-8.900764,-3.480916,-2.015267,-6.757893,-1.775755,-3.438321,-0.701416,0.07763672,0.8393555,4.412214,1.160305,4.580153,5.661496,0.2104123,4.920732,0.4204102,0.3015137,0.05810547,-1.114504,2.442748,2.458015,2.686016,1.646046,5.838383,HUNCH_LEFT
-0.5219727,-0.807373,0.157959,-7.78626,-2.900763,-2.091603,-5.643389,-1.195602,-3.514657,-0.703125,0.06787109,0.8303223,7.954198,1.267176,4.274809,9.203481,0.3172824,4.615389,0.4228516,0.293457,0.0637207,-3.755725,6.015267,0.7022901,0.04479456,5.218565,4.082658,HUNCH_LEFT
-0.5141602,-0.810791,0.1350098,-9.496183,-0.4122138,-2.412214,-7.353313,1.292947,-3.835268,-0.6794434,0.07202148,0.8510742,11.80153,-0.7175572,2.717557,13.05081,-1.66745,3.058137,0.4265137,0.2971191,0.06396484,-3.648855,4.396946,1.145038,0.1516647,3.600244,4.525406,HUNCH_LEFT
-0.5268555,-0.8212891,0.130127,-2.977099,1.770992,-3.89313,-0.8342287,3.476153,-5.316184,-0.6738281,0.1120605,0.8212891,9.068703,1.526718,1.648855,10.31799,0.5768244,1.989435,0.4191895,0.2905273,0.05810547,-4.015267,1.51145,4.259542,-0.2147477,0.7147481,7.63991,HUNCH_LEFT
-0.5200195,-0.8205566,0.128418,-4.70229,1.923664,-3.633588,-2.55942,3.628825,-5.056642,-0.6689453,0.09326172,0.8361816,15.31298,-0.3358779,1.954198,16.56226,-1.285771,2.294778,0.4274902,0.2756348,0.07543945,-0.7480916,1.419847,3.465649,3.052428,0.6231451,6.846016,HUNCH_LEFT
-0.5231934,-0.8449707,0.1196289,12.15267,1.877863,-8.656488,14.29554,3.583024,-10.07954,-0.619873,0.130127,0.859375,26.70229,0.2442748,2.763359,27.95157,-0.7056183,3.103939,0.4387207,0.2734375,0.04833984,7.801527,0.2748091,5.587786,11.60205,-0.5218931,8.968154,HUNCH_LEFT
-0.5175781,-0.7958984,0.1787109,12.1374,-0.259542,-7.175572,14.28028,1.445619,-8.598626,-0.7629395,0.1813965,0.873291,7.206107,7.603054,4.122138,8.455389,6.653161,4.462718,0.4404297,0.2529297,0.04101563,3.068702,3.603053,11.1145,6.869222,2.806351,14.49487,HUNCH_LEFT
-0.5053711,-0.8525391,0.1335449,-6.885496,-3.282443,-3.450382,-4.742626,-1.577282,-4.873435,-0.7304688,0.1455078,0.8811035,8.259542,-0.5496183,4.183206,9.508823,-1.499511,4.523786,0.4440918,0.2856445,0.0612793,-2.519084,2.091603,1.694656,1.281436,1.294901,5.075024,HUNCH_LEFT
-0.4997559,-0.8276367,0.1523438,-5.709924,-1.007634,-0.1374046,-3.567053,0.6975274,-1.560458,-0.6916504,0.1647949,0.8566895,3.89313,0.09160305,2.580153,5.142412,-0.8582901,2.920733,0.439209,0.2770996,0.07055664,-3.145038,4.473282,-1.862595,0.6554816,3.67658,1.517772,HUNCH_LEFT
-0.4919434,-0.8308105,0.1391602,-5.251908,-0.6717557,0.7633588,-3.109038,1.033405,-0.6596949,-0.6879883,0.1489258,0.8293457,-2.473282,-0.7633588,1.29771,-1.224,-1.713252,1.63829,0.4338379,0.2729492,0.0637207,-4.946565,2.274809,-2.900763,-1.146045,1.478107,0.4796042,HUNCH_LEFT
-0.4914551,-0.8334961,0.135498,-4.38168,0.7328244,0.6870229,-2.238809,2.437985,-0.7360307,-0.6828613,0.1491699,0.8317871,0.8396947,-0.7938931,0.6870229,2.088977,-1.743786,1.027603,0.4362793,0.2709961,0.0715332,-6.610687,2.687023,-2.80916,-2.810168,1.890321,0.5712073,HUNCH_LEFT
-0.4909668,-0.8344727,0.1257324,-5.328244,0.1679389,0.2748091,-3.185374,1.8731,-1.148245,-0.6721191,0.1638184,0.8422852,1.984733,-0.778626,0.351145,3.234015,-1.728519,0.691725,0.4528809,0.2617188,0.06616211,-4.320611,1.938931,-2.137405,-0.5200908,1.142229,1.242963,HUNCH_LEFT
-0.4746094,-0.8464355,0.1269531,-3.480916,1.083969,-1.496183,-1.338046,2.78913,-2.919237,-0.6689453,0.1550293,0.8195801,3.114504,-1.206107,1.312977,4.363786,-2.156,1.653557,0.4313965,0.2666016,0.07470703,-7.206107,0.4580153,-0.1679389,-3.405587,-0.3386871,3.212429,HUNCH_LEFT
-0.4716797,-0.8129883,0.1247559,-4.320611,2.549618,-2.061069,-2.17774,4.254779,-3.484122,-0.6594238,0.1643066,0.8171387,6.045802,-1.450382,1.175573,7.295084,-2.400275,1.516152,0.4274902,0.2475586,0.06567383,-8.80916,1.954198,0.07633588,-5.00864,1.157496,3.456703,HUNCH_LEFT
-0.4851074,-0.824707,0.1403809,-0.9923664,1.862595,-1.206107,1.150504,3.567756,-2.62916,-0.6416016,0.1877441,0.8515625,10.01527,-0.5801527,0.1068702,11.26455,-1.530046,0.4474502,0.4399414,0.260498,0.08544922,-3.312977,4.38168,0.7480916,0.4875426,3.584977,4.128459,HUNCH_LEFT
-0.5302734,-0.8977051,0.1394043,-4.80916,-0.6870229,-2.183206,-2.66629,1.018138,-3.60626,-0.6804199,0.1962891,0.8688965,8.076336,-2.412214,2.656489,9.325619,-3.362107,2.997069,0.4562988,0.2712402,0.09130859,-2.580153,2.580153,-1.099237,1.220367,1.78345,2.281131,HUNCH_LEFT
-0.4758301,-0.854248,0.126709,-4.931298,-2.152672,-4.656488,-2.788427,-0.4475108,-6.079542,-0.7004395,0.2038574,0.8540039,-0.1068702,-1.435114,1.374046,1.142412,-2.385008,1.714626,0.4331055,0.2561035,0.05932617,-2.351145,-0.610687,1.755725,1.449375,-1.407389,5.136093,HUNCH_LEFT
-0.4819336,-0.8549805,0.1166992,-4.152672,-0.8854962,-3.145038,-2.009801,0.8196648,-4.568092,-0.6813965,0.1931152,0.840332,-0.4580153,-0.3664122,1.312977,0.7912671,-1.316305,1.653557,0.447998,0.2685547,0.07568359,-1.694656,0.9923664,-0.4122138,2.105863,0.1956641,2.968154,HUNCH_LEFT
-0.4736328,-0.8457031,0.1101074,-5.664122,-0.03053435,-2.045802,-3.521252,1.674627,-3.468855,-0.6794434,0.1889648,0.8457031,1.740458,1.740458,-0.7175572,2.98974,0.7905649,-0.3769773,0.4501953,0.262207,0.07397461,-8.564885,0.3358779,-0.7938931,-4.764365,-0.4608244,2.586474,HUNCH_LEFT
-0.4865723,-0.8537598,0.1108398,-8.259542,-2.717557,-2.351145,-6.116671,-1.012396,-3.774199,-0.6499023,0.2028809,0.8496094,4.717557,2.274809,-1.312977,5.96684,1.324916,-0.972397,0.4394531,0.2526855,0.07592773,-4.900764,0.6259542,-0.3969466,-1.100244,-0.1707481,2.983421,HUNCH_LEFT
-0.4667969,-0.8447266,0.119873,-9.221375,-4.21374,-1.19084,-7.078504,-2.508579,-2.613893,-0.6765137,0.2058105,0.8476563,2.519084,4.137404,-0.2137404,3.768366,3.187511,0.1268395,0.4492188,0.2558594,0.06884766,-4.70229,0.3664122,0.1068702,-0.9017704,-0.4302901,3.487238,HUNCH_LEFT
-0.4924316,-0.8579102,0.1018066,-8.412213,-6.290076,-0.4427481,-6.269343,-4.584915,-1.865802,-0.6628418,0.2009277,0.8532715,0.3206107,5.61832,-0.7328244,1.569893,4.668427,-0.3922445,0.4487305,0.246582,0.07226563,-1.862595,-1.038168,0.5648855,1.937924,-1.83487,3.945253,HUNCH_LEFT
-0.4716797,-0.8586426,0.1083984,-10.90076,-7.51145,-0.778626,-8.757893,-5.806289,-2.20168,-0.6818848,0.2055664,0.8408203,-3.984733,6.519084,0.3358779,-2.735451,5.569191,0.6764579,0.4462891,0.2546387,0.0769043,-0.2900764,-1.389313,1.267176,3.510443,-2.186015,4.647543,HUNCH_LEFT
-0.4528809,-0.8527832,0.09545898,-11.29771,-7.129771,-0.9465649,-9.154839,-5.42461,-2.369618,-0.6796875,0.2094727,0.8327637,-1.51145,2.900763,0.8396947,-0.262168,1.95087,1.180275,0.4509277,0.2446289,0.0559082,-0.1984733,-0.2290076,0.6412213,3.602046,-1.02571,4.021589,HUNCH_LEFT
-0.4543457,-0.864502,0.08618164,-8.519084,-5.984733,-0.778626,-6.376214,-4.279572,-2.20168,-0.6901855,0.2019043,0.8269043,-2.625954,4.854962,0.7328244,-1.376672,3.905069,1.073404,0.4523926,0.2521973,0.06298828,0.6717557,-2.732824,2.152672,4.472275,-3.529527,5.533039,HUNCH_LEFT
-0.4543457,-0.8791504,0.078125,-9.374045,-5.832061,-1.083969,-7.231175,-4.1269,-2.507023,-0.6855469,0.2143555,0.8220215,1.40458,2.015267,-0.04580153,2.653862,1.065374,0.2947785,0.4633789,0.248291,0.06005859,-3.328244,-0.8396947,0.7480916,0.4722755,-1.636397,4.128459,HUNCH_LEFT
-0.4436035,-0.8515625,0.09350586,-10.50382,-5.709924,-0.3358779,-8.360947,-4.004763,-1.758932,-0.6918945,0.1940918,0.8125,-2.839695,2.641221,-0.9770992,-1.590412,1.691328,-0.6365192,0.4528809,0.2487793,0.07910156,-2.015267,-3.282443,1.129771,1.785253,-4.079145,4.510139,HUNCH_LEFT
-0.4638672,-0.8813477,0.07348633,-10.01527,-4.839694,-0.3664122,-7.872397,-3.134533,-1.789466,-0.6865234,0.1992188,0.8154297,2.656489,2.0,-1.145038,3.905771,1.050107,-0.8044581,0.4501953,0.2441406,0.0625,-4.80916,-1.19084,0.1832061,-1.008641,-1.987542,3.563574,HUNCH_LEFT
-0.4575195,-0.871582,0.07543945,-9.374045,-5.175572,-0.4885496,-7.231175,-3.470411,-1.911603,-0.6860352,0.2060547,0.8256836,3.541985,3.267176,-1.450382,4.791267,2.317283,-1.109802,0.4562988,0.2460938,0.06152344,-4.748092,-2.122137,0.351145,-0.9475719,-2.91884,3.731513,HUNCH_LEFT
