xa_S1,ya_S1,za_S1,xgb_S1,ybg_S1,zbg_S1,tilt_x_S1,tilt_y_S1,tilt_z_S1,tilt_accx_S1,tilt_accy_S1,xa_S2,ya_S2,za_S2,xgb_S2,ybg_S2,zbg_S2,tilt_x_S2,tilt_y_S2,tilt_z_S2,tilt_accx_S2,tilt_accy_S2,State_S2
-0.08325195,-0.1401367,-0.449707,-0.07565641,-0.031771,0.3200917,-0.3410831,0.2003053,0.001600459,-17.03567,10.02308,-0.623291,-0.4118652,0.7961426,0.3266413,-0.1188473,0.09139694,-0.4416616,0.6956737,0.0004569847,-22.16311,34.81288,Unknown
-0.08276367,-0.1325684,-0.4399414,0.0922823,-0.1539084,-0.0310533,-0.6627344,0.3981029,0.001103606,-16.49598,10.21087,-0.6345215,-0.4047852,0.7858887,0.0976336,-0.1951832,-0.07654199,-0.8680664,1.392097,-0.0007676873,-21.83845,35.66992,Unknown
-0.08666992,-0.135498,-0.449707,-0.1214581,-0.1691756,0.0147481,-0.980891,0.5967583,0.001324827,-16.4813,10.45524,-0.625,-0.4121094,0.7922363,-0.009236574,-0.1493817,0.3509389,-1.295139,2.061807,0.004496396,-22.21495,34.98732,Unknown
-0.07958984,-0.1342773,-0.4443359,-0.381,-0.2455115,-0.1379237,-1.297817,0.7760438,-0.0006061048,-16.56582,9.729474,-0.6269531,-0.4064941,0.7819824,0.08236647,-0.1951832,0.09139694,-1.709624,2.726434,0.005775953,-22.07595,35.42712,Unknown
-0.09057617,-0.135498,-0.4460449,-0.1367252,-0.2760458,0.06054974,-1.605436,0.9763739,0.0003021412,-16.57831,10.99546,-0.6223145,-0.4099121,0.8007813,-0.02450383,-0.1188473,0.3509389,-2.11595,3.363643,0.01104004,-22.00795,34.67427,Unknown
-0.08349609,-0.1362305,-0.4453125,-0.4420686,-0.4897862,0.3658931,-1.914526,1.152947,0.005790538,-16.73505,10.16499,-0.626709,-0.4042969,0.796875,-0.02450383,-0.08831299,-0.1070763,-2.50883,3.995953,0.009433892,-21.74195,35.04408,Unknown
-0.0859375,-0.1335449,-0.440918,-0.09092379,-0.2455115,-0.01578617,-2.208612,1.337847,0.00556953,-16.55644,10.56637,-0.6259766,-0.40625,0.8024902,0.2045038,0.1254275,-0.0002061129,-2.891045,4.614471,0.009431007,-21.75994,34.83585,Unknown
-0.08422852,-0.1357422,-0.4445801,0.1075497,-0.1081069,-0.1837251,-2.496833,1.514909,0.002813654,-16.69873,10.27047,-0.6276855,-0.4038086,0.7770996,0.2961069,0.1254275,0.01506107,-3.269081,5.236636,0.009656923,-22.01047,35.63058,Unknown
-0.0859375,-0.1328125,-0.4431152,0.5502977,0.227771,-0.04632068,-2.767268,1.698218,0.002165165,-16.3961,10.52411,-0.626709,-0.40625,0.7844238,0.05183208,0.01855725,-0.04600763,-3.643569,5.83923,0.009012817,-22.02913,35.35359,Unknown
-0.0859375,-0.1306152,-0.4440918,0.32129,0.1667023,0.07581687,-3.029333,1.877048,0.003302418,-16.10664,10.5172,-0.6245117,-0.4064941,0.786377,0.219771,-0.3173206,4.030328,-4.008225,6.421825,0.06946774,-22.03795,35.20229,Unknown
-0.08984375,-0.1384277,-0.4526367,0.3976259,0.3499084,0.091084,-3.297246,2.059258,0.004577594,-16.69783,10.74755,-0.6252441,-0.4108887,0.7929688,0.4640458,-0.2257175,0.3204046,-4.364516,6.990195,0.0739534,-22.14113,34.99519,Unknown
-0.08789063,-0.137207,-0.4431152,0.0006792545,0.01403052,0.07581687,-3.569188,2.232855,0.005714847,-16.89485,10.72876,-0.6296387,-0.4025879,0.7890625,-0.1161069,-0.4852595,0.3509389,-4.713778,7.551353,0.07921749,-21.74233,35.40478,Unknown
-0.08154297,-0.1384277,-0.4431152,-0.07565641,-0.09283972,0.1063511,-3.840495,2.386081,0.007310114,-17.07894,9.962406,-0.6254883,-0.4074707,0.7832031,0.2961069,-0.2257175,0.1982672,-5.057611,8.103345,0.0821915,-22.12313,35.31683,Unknown
-0.0847168,-0.1350098,-0.451416,-0.3046641,-0.4592519,-0.1837251,-4.095478,2.535916,0.004737963,-16.38064,10.19286,-0.6403809,-0.4177246,0.7827148,0.0976336,0.003290057,0.1066641,-5.403986,8.657752,0.0836848,-22.44339,35.82153,Unknown
-0.09057617,-0.1330566,-0.4418945,-0.09092379,-0.123374,0.1521528,-4.343596,2.705467,0.007020254,-16.4346,11.10419,-0.6279297,-0.4072266,0.7832031,-0.02450383,0.09489316,0.1524656,-5.737882,9.194505,0.08597178,-22.08078,35.42564,Unknown
-0.08520508,-0.135498,-0.4431152,-0.1214581,-0.642458,-0.04632068,-4.592674,2.850928,0.006371765,-16.71418,10.41925,-0.6323242,-0.4033203,0.7927246,-0.299313,0.1254275,0.04559542,-6.061027,9.720542,0.08661012,-21.6898,35.41034,Unknown
-0.08911133,-0.1335449,-0.4499512,0.1991527,0.01403052,0.03001523,-4.822546,3.009121,0.006821993,-16.2326,10.75027,-0.6264648,-0.4086914,0.7927246,0.08236647,0.1101603,-0.1223435,-6.379054,10.22944,0.08477496,-22.02295,35.08471,Unknown
-0.08520508,-0.1340332,-0.4489746,0.1838853,-0.001236677,-0.0310533,-5.050497,3.15505,0.006387247,-16.34625,10.30643,-0.6257324,-0.401123,0.7856445,0.2045038,-0.02724427,-0.1223435,-6.684076,10.73148,0.08306216,-21.77048,35.34999,Unknown
-0.08886719,-0.1364746,-0.453125,0.3976259,0.04456491,0.1368854,-5.272948,3.305316,0.008440528,-16.46531,10.6356,-0.6340332,-0.3999023,0.7819824,0.2655725,-0.1493817,0.1219313,-6.979781,11.23115,0.08489113,-21.66451,35.82489,Unknown
-0.09130859,-0.1342773,-0.4521484,0.4434273,0.1819695,0.1216183,-5.48601,3.460831,0.01014318,-16.23027,10.95622,-0.6296387,-0.4020996,0.7915039,0.219771,-0.01197708,-0.09180916,-7.270793,11.71327,0.08360579,-21.68122,35.34518,Unknown
-0.08374023,-0.1408691,-0.4467773,0.1533511,0.1056336,-0.04632068,-5.718554,3.595763,0.009494695,-17.21842,10.13496,-0.6225586,-0.4035645,0.7905273,0.4182443,-0.1646488,0.3051374,-7.556717,12.17767,0.08787772,-21.8539,35.04626,Unknown
-0.08569336,-0.1408691,-0.4438477,-0.1825268,-0.001236677,0.1674199,-5.953035,3.732371,0.01200599,-17.30844,10.42709,-0.626709,-0.4074707,0.7805176,0.00603056,-0.2715191,0.1982672,-7.848489,12.63898,0.09085173,-22.14974,35.44263,Unknown
-0.08300781,-0.1403809,-0.439209,-0.4573359,-0.7951298,0.1979542,-6.18896,3.850918,0.01477735,-17.43554,10.2052,-0.6254883,-0.4089355,0.8012695,0.1129008,-0.05777865,-0.07654199,-8.128267,13.08163,0.08978015,-21.91484,34.81105,Unknown
-0.08813477,-0.1369629,-0.4389648,-0.2588627,-0.291313,0.2895572,-6.409172,3.986618,0.01912071,-17.00931,10.85005,-0.6228027,-0.3964844,0.7912598,0.3571756,-0.04251146,-0.01547329,-8.390285,13.52205,0.08954804,-21.49167,35.13412,Unknown
-0.08520508,-0.1391602,-0.449707,-0.1825268,-0.5203207,0.06054974,-6.621717,4.104937,0.0199684,-16.91122,10.25946,-0.6398926,-0.4042969,0.7932129,0.0976336,0.04909158,-0.01547329,-8.653908,13.9664,0.08933142,-21.6384,35.7061,Unknown
-0.08911133,-0.1401367,-0.4511719,-0.01458788,-0.123374,0.1368854,-6.828438,4.234658,0.02202169,-16.94699,10.68172,-0.6254883,-0.4020996,0.7805176,-0.1161069,0.03382444,0.06086259,-8.920548,14.39689,0.09024436,-21.90065,35.46598,Unknown
-0.08984375,-0.1352539,-0.4465332,-0.02985501,-0.2149771,0.1216183,-7.02305,4.365008,0.02372434,-16.53862,10.89964,-0.6289063,-0.4072266,0.7854004,0.2350382,0.03382444,0.01506107,-9.179605,14.81758,0.09045521,-22.03464,35.40798,Unknown
-0.08618164,-0.1359863,-0.4443359,0.4128931,0.05983204,0.1368854,-7.210972,4.488727,0.02577762,-16.72263,10.50697,-0.6257324,-0.404541,0.7819824,0.4029771,-0.1341145,0.07612977,-9.429994,15.22729,0.09159716,-21.99516,35.402,Unknown
-0.08520508,-0.137207,-0.4511719,0.4128931,0.1972366,0.0147481,-7.393843,4.606495,0.0259841,-16.63774,10.24184,-0.638916,-0.409668,0.7902832,0.1434351,-0.1341145,0.1524656,-9.67853,15.63429,0.09373167,-21.95524,35.66921,Unknown
-0.08569336,-0.1376953,-0.4455566,-0.1214581,-0.07757253,-0.09212208,-7.585271,4.721544,0.02469439,-16.88195,10.41217,-0.6281738,-0.4023438,0.793457,0.2503054,-0.3631221,0.07612977,-9.915148,16.02114,0.0947975,-21.68112,35.22596,Unknown
-0.08349609,-0.1413574,-0.4443359,0.03121376,-0.001236677,0.04528236,-7.780354,4.83014,0.02537363,-17.36235,10.15229,-0.6210938,-0.4116211,0.7956543,0.4487787,-0.179916,0.2593359,-10.15396,16.39277,0.09868753,-22.18568,34.73444,Unknown
-0.08325195,-0.1398926,-0.4465332,-0.3504658,-0.3065802,0.1063511,-7.97191,4.931094,0.02686254,-17.11773,10.08817,-0.6254883,-0.4104004,0.7915039,0.05183208,-0.1493817,0.04559542,-10.39291,16.7639,0.09932587,-22.13713,35.05173,Unknown
-0.08349609,-0.1357422,-0.4421387,-0.5947404,-0.6577252,-0.01578617,-8.156965,5.027471,0.02662575,-16.78754,10.23335,-0.6206055,-0.4055176,0.7944336,0.08236647,0.06435877,0.1066641,-10.6221,17.12616,0.1009258,-21.91282,34.82971,Unknown
-0.08349609,-0.1315918,-0.4377441,-0.3657329,-0.7035267,0.442229,-8.32787,5.124307,0.03281695,-16.45133,10.3519,-0.6203613,-0.4089355,0.7802734,0.1129008,0.1101603,0.07612977,-10.85421,17.48821,0.1019916,-22.30515,35.15336,Unknown
-0.08911133,-0.1335449,-0.4477539,0.3518243,-0.3218473,-0.0005190372,-8.482589,5.233357,0.03280969,-16.30517,10.79758,-0.6269531,-0.4082031,0.7924805,0.08236647,0.03382444,0.1066641,-11.07594,17.84129,0.1034849,-21.99696,35.11903,Unknown
-0.08862305,-0.1330566,-0.4414063,0.2754886,-0.1386412,0.04528236,-8.638448,5.344413,0.03344364,-16.46453,10.88127,-0.6242676,-0.4077148,0.7927246,-0.08557248,-0.01197708,-0.01547329,-11.29564,18.18437,0.1032683,-22.00216,35.00358,Unknown
-0.0847168,-0.1350098,-0.4489746,-0.06038928,-0.3523817,0.03001523,-8.795807,5.437197,0.03389387,-16.46202,10.24263,-0.6271973,-0.4140625,0.7866211,0.1739695,0.1101603,-0.1070763,-11.51458,18.5264,0.1016622,-22.37059,35.20502,Unknown
-0.08691406,-0.1345215,-0.4443359,0.2144198,0.05983204,-0.0310533,-8.9479,5.541349,0.03345912,-16.54756,10.60376,-0.6401367,-0.4055176,0.7954102,0.4182443,-0.08831299,-0.0002061129,-11.71178,18.86746,0.1016593,-21.66172,35.63998,Unknown
-0.08813477,-0.1359863,-0.4509277,-0.04512215,-0.1844428,0.1063511,-9.099349,5.639792,0.03505439,-16.48716,10.59907,-0.6225586,-0.4038086,0.7932129,0.08236647,-0.04251146,-3.725397,-11.91282,19.1889,0.04577834,-21.8244,34.97043,Unknown
-0.08691406,-0.1328125,-0.4460449,-0.2283282,0.09036642,0.06054974,-9.246325,5.739801,0.03590208,-16.29149,10.57826,-0.6298828,-0.4047852,0.7841797,0.3266413,-0.04251146,0.01506107,-12.10852,19.51489,0.04598919,-21.92181,35.51759,Unknown
-0.08300781,-0.1357422,-0.4462891,0.04648089,-0.1386412,0.04528236,-9.393679,5.824767,0.03658132,-16.6482,10.08997,-0.6223145,-0.4118652,0.7937012,0.3266413,0.07962596,0.1677328,-12.30581,19.82248,0.04850519,-22.21318,34.8358,Unknown
-0.08789063,-0.1362305,-0.4506836,-0.1519923,-0.4439847,0.06054974,-9.538538,5.913224,0.03748956,-16.52489,10.57395,-0.6262207,-0.4064941,0.8063965,-0.03977096,-0.05777865,0.2288015,-12.49446,20.11996,0.05193721,-21.70928,34.73918,Unknown
-0.08740234,-0.1367188,-0.449707,-0.3657329,-0.550855,0.03001523,-9.685122,5.998079,0.03790977,-16.61685,10.53386,-0.6123047,-0.4001465,0.7910156,-0.299313,0.03382444,-0.03074045,-12.68473,20.4107,0.05150684,-21.80249,34.63381,Unknown
-0.08959961,-0.1306152,-0.4360352,-0.3351984,-0.2760458,0.03001523,-9.823402,6.096779,0.03836,-16.35281,11.13602,-0.6247559,-0.4038086,0.7919922,0.1892367,0.09489316,-0.0002061129,-12.86459,20.70585,0.05150375,-21.81657,35.09824,Unknown
-0.08789063,-0.1323242,-0.4516602,-0.2130611,-0.2760458,-0.09212208,-9.95074,6.182613,0.03707029,-16.04411,10.57787,-0.6240234,-0.4006348,0.7861328,0.479313,0.06435877,-0.168145,-13.03592,20.998,0.04914972,-21.75984,35.26955,Unknown
-0.08398438,-0.138916,-0.4470215,0.4586947,0.1361679,0.1521528,-10.08465,6.26439,0.03935258,-16.9835,10.17134,-0.6254883,-0.4003906,0.7912598,0.1129008,-0.1341145,-0.07654199,-13.20656,21.28,0.04800159,-21.6514,35.19669,Unknown
-0.08447266,-0.1333008,-0.449707,0.2449541,0.3346412,-0.0005190372,-10.20444,6.347877,0.03934532,-16.242,10.20919,-0.6271973,-0.404541,0.7763672,0.3266413,0.04909158,0.1066641,-13.37923,21.56746,0.04949489,-22.06407,35.61912,Unknown
-0.08642578,-0.1394043,-0.4587402,0.2144198,0.1056336,0.3964274,-10.32995,6.426735,0.0448953,-16.62728,10.21833,-0.6096191,-0.4040527,0.7910156,0.38771,-0.08831299,0.2288015,-13.54688,21.82415,0.05269811,-22.02781,34.46279,Unknown
-0.08740234,-0.1394043,-0.4470215,0.01594663,0.01403052,-0.1531909,-10.46349,6.509838,0.013,Unknown,,-0.6271973,-0.407959,0.8103027,-0.1466411,-0.3020534,0.2898702,-13.712,22.07698,0.05646643,-21.70916,34.65808,Unknown
-0.08374023,-0.1303711,-0.4345703,-0.4115343,-0.7035267,0.4574962,-11.13462,5.644923,0.6692161,-16.41395,10.45739,-0.6281738,-0.4020996,0.7941895,0.128168,0.3697023,0.09139694,-13.69897,22.83563,0.1815888,-21.65803,35.20948,Unknown
-0.08959961,-0.135498,-0.4355469,0.1533511,-0.123374,0.1979542,-11.24876,5.752595,0.6719875,-16.94691,11.1132,-0.6276855,-0.4077148,0.7836914,0.08236647,0.2475649,-0.04600763,-13.86586,23.09022,0.1809447,-22.10016,35.39494,Unknown
-0.08569336,-0.1347656,-0.4470215,0.03121376,-0.5355878,0.1216183,-11.35322,5.838201,0.6736901,-16.49314,10.40027,-0.6271973,-0.4089355,0.7924805,0.2045038,-0.07304579,-0.1376107,-14.02633,23.3298,0.1790182,-22.02966,35.11939,Unknown
-0.08544922,-0.1350098,-0.4436035,0.2754886,-0.07757253,0.1521528,-11.45516,5.929198,0.6758203,-16.63898,10.4413,-0.6313477,-0.4086914,0.7937012,0.5709161,-0.1493817,-0.1070763,-14.17694,23.56651,0.1775191,-21.94831,35.26794,Unknown
-0.09155273,-0.1379395,-0.4460449,-0.01458788,0.2583054,-0.09212208,-11.56332,6.036047,0.6745306,-16.85338,11.09447,-0.6308594,-0.4018555,0.7888184,0.2350382,0.01855725,0.183,-14.32408,23.80492,0.1800811,-21.69532,35.47403,Unknown
-0.08276367,-0.1369629,-0.4523926,0.03121376,-0.1386412,0.0147481,-11.66331,6.112058,0.674737,-16.58403,9.931684,-0.6228027,-0.4052734,0.7897949,0.06709921,-0.1646488,0.3509389,-14.4756,24.02762,0.1849942,-21.94605,35.05298,Unknown
-0.09204102,-0.135498,-0.4499512,-0.5947404,-0.6119237,0.1063511,-11.76696,6.203064,0.6762259,-16.43764,11.08218,-0.6264648,-0.4130859,0.7956543,0.1434351,-0.02724427,-0.04600763,-14.62794,24.2456,0.1843501,-22.19118,34.94556,Unknown
-0.08691406,-0.1320801,-0.4379883,-0.3504658,-0.5050534,0.1674199,-11.86598,6.28722,0.6785698,-16.47785,10.75733,-0.626709,-0.4064941,0.7893066,-0.05503809,0.3544351,-0.1070763,-14.77545,24.46991,0.1828511,-21.96553,35.21782,Unknown
-0.08300781,-0.1325684,-0.4416504,-0.2283282,-0.2149771,-0.1837251,-11.96231,6.360937,0.6745279,-16.43609,10.20477,-0.6240234,-0.4035645,0.7922363,-0.1771755,0.03382444,0.2593359,-14.91995,24.68251,0.1885565,-21.80974,35.0634,Unknown
-0.08789063,-0.1325684,-0.4482422,-0.02985501,-0.3065802,0.1521528,-12.04715,6.442489,0.6766581,-16.18406,10.64885,-0.6223145,-0.4064941,0.7929688,-0.2535114,-0.2867863,0.2288015,-15.06428,24.88351,0.1917597,-21.96254,34.92954,Unknown
-0.08862305,-0.1323242,-0.4384766,-0.5184045,-0.6577252,0.06054974,-12.14289,6.523639,0.6775057,-16.47824,10.95121,-0.625,-0.407959,0.8061523,-0.02450383,-0.179916,0.1066641,-15.1993,25.07685,0.193253,-21.79841,34.67371,Unknown
-0.08447266,-0.1376953,-0.442627,-0.1061909,-0.3218473,-0.09212208,-12.24132,6.595304,0.676216,-16.99167,10.32768,-0.6289063,-0.4016113,0.7902832,0.3571756,-0.05777865,-0.06127481,-15.32411,25.28159,0.1923952,-21.68478,35.35362,Unknown
-0.0793457,-0.1325684,-0.4475098,-0.1214581,-0.3218473,-0.1073892,-12.32338,6.651946,0.6747126,-16.26124,9.648184,-0.6259766,-0.4052734,0.7868652,0.1434351,0.04909158,-0.06127481,-15.45471,25.48202,0.1915373,-21.95249,35.26938,Unknown
-0.08325195,-0.1298828,-0.4482422,0.229687,-0.1386412,0.2437558,-12.3918,6.719299,0.6781251,-15.90163,10.1147,-0.625,-0.4008789,0.7922363,-0.1771755,0.09489316,-0.09180916,-15.58137,25.67653,0.190252,-21.66632,35.14244,Unknown
-0.08276367,-0.137207,-0.4443359,0.3365571,0.2888396,-0.07685494,-12.47708,6.790703,0.6770492,-16.88672,10.09138,-0.6289063,-0.4067383,0.7929688,0.38771,-0.1646488,-3.725397,-15.70231,25.86494,0.1380964,-21.89422,35.21007,Unknown
-0.08642578,-0.1342773,-0.4475098,0.1533511,0.1209008,-0.04632068,-12.55374,6.866149,0.6764007,-16.41554,10.48002,-0.630127,-0.4020996,0.7871094,0.3571756,-0.2867863,0.04559542,-15.81821,26.05342,0.1387348,-21.74226,35.48577,Unknown
-0.09350586,-0.1350098,-0.4445801,0.06174803,-0.1539084,0.1979542,-12.63284,6.954288,0.679172,-16.55076,11.37872,-0.6274414,-0.4067383,0.7897949,0.1892367,-0.08831299,0.1371985,-15.93847,26.2358,0.1406555,-21.96095,35.23276,Unknown
-0.08251953,-0.1408691,-0.4521484,-0.197794,-0.2607787,0.04528236,-12.72388,7.009054,0.6798513,-17.03991,9.884242,-0.6257324,-0.4187012,0.78125,0.0976336,0.003290057,-3.71013,-16.07226,26.41553,0.08500359,-22.69983,35.21998,Unknown
-0.08496094,-0.1352539,-0.4418945,-0.1061909,-0.6882596,0.1063511,-12.80545,7.067776,0.6813402,-16.72932,10.41729,-0.6203613,-0.4074707,0.7810059,-0.02450383,0.03382444,0.1677328,-16.19558,26.59077,0.08735185,-22.22151,35.15427,Unknown
-0.08349609,-0.1386719,-0.4353027,-0.3962674,-0.3981832,-0.04632068,-12.90223,7.1281,0.6806917,-17.37286,10.35718,-0.6223145,-0.4069824,0.8032227,-0.2840458,-0.01197708,0.03032825,-16.31213,26.75177,0.08777643,-21.82794,34.64907,Unknown
-0.08032227,-0.1398926,-0.4379883,-0.2130611,-0.7187939,-0.1379237,-12.99592,7.173862,0.6787608,-17.44057,9.90927,-0.6257324,-0.3994141,0.7954102,0.3266413,0.2475649,-0.06127481,-16.41215,26.92229,0.08691859,-21.53735,35.10805,Unknown
-0.09057617,-0.1328125,-0.447998,0.2754886,0.04456491,0.06054974,-13.05628,7.250401,0.6796084,-16.20272,10.97023,-0.6235352,-0.4106445,0.7929688,0.479313,0.1406947,0.09139694,-16.52033,27.08427,0.08819815,-22.15019,34.92493,Unknown
-0.0847168,-0.1384277,-0.439209,0.3365571,0.319374,0.04528236,-13.13412,7.318564,0.6802877,-17.19577,10.42382,-0.612793,-0.4025879,0.7893066,-0.03977096,-0.179916,-0.07654199,-16.62939,27.2333,0.08705002,-21.94382,34.66781,Unknown
-0.0859375,-0.1379395,-0.4501953,0.1228168,0.1361679,-0.06158781,-13.20475,7.38093,0.6794255,-16.74994,10.34345,-0.6228027,-0.4069824,0.7841797,0.128168,-0.2257175,0.04559542,-16.73738,27.38916,0.08768836,-22.11729,35.18103,Unknown
-0.08398438,-0.1394043,-0.4572754,0.1075497,0.1514351,0.1063511,-13.2729,7.434818,0.6810207,-16.69101,9.964054,-0.6223145,-0.407959,0.7878418,0.1434351,-0.1035802,0.2898702,-16.84281,27.54079,0.09203642,-22.11402,35.0472,Unknown
-0.08398438,-0.1345215,-0.4401855,-0.3046641,-0.5966565,0.1674199,-13.3455,7.485332,0.6831972,-16.70907,10.3406,-0.6247559,-0.3916016,0.7976074,0.4029771,-0.05777865,-3.679595,-16.92346,27.69147,0.04420167,-21.13223,35.11162,Unknown
-0.08276367,-0.1367188,-0.4404297,-0.2588627,-0.5050534,0.06054974,-13.42146,7.532185,0.6840449,-16.96597,10.17443,-0.6306152,-0.4006348,0.7954102,0.1129008,0.07962596,-0.03074045,-17.01422,27.84476,0.04377131,-21.53863,35.30122,Unknown
-0.08056641,-0.135498,-0.4404297,0.06174803,-0.4897862,0.06054974,-13.48887,7.572689,0.6849532,-16.83729,9.917335,-0.6259766,-0.4084473,0.7832031,-0.03977096,0.3544351,-0.09180916,-17.11782,27.99956,0.04239417,-22.16493,35.32412,Unknown
-0.08886719,-0.1364746,-0.4453125,-0.01458788,-0.1386412,-0.1226563,-13.55385,7.635379,0.6832359,-16.72779,10.80231,-0.626709,-0.3918457,0.7780762,-0.1466411,0.2475649,4.060863,-17.20578,28.15757,0.09924625,-21.41538,35.73063,Unknown
-0.08813477,-0.1369629,-0.4465332,0.03121376,-0.3981832,-0.0005190372,-13.61726,7.690537,0.6832281,-16.74756,10.68599,-0.6262207,-0.4020996,0.8039551,-0.1924427,-0.1035802,-0.09180916,-17.29515,28.29016,0.09786911,-21.53303,34.86297,Unknown
-0.08422852,-0.138916,-0.4477539,0.1228168,-0.2149771,0.0147481,-13.68237,7.737485,0.6834346,-16.95662,10.18539,-0.6235352,-0.4020996,0.7897949,0.6777863,0.06435877,-0.2750153,-17.37558,28.4278,0.0940189,-21.78143,35.12855,Unknown
-0.08276367,-0.135498,-0.4423828,0.3823588,0.227771,-0.2905953,-13.73858,7.7887,0.6793663,-16.75536,10.14198,-0.6254883,-0.4074707,0.7783203,0.6319848,-0.08831299,-0.06127481,-17.46338,28.56703,0.09316105,-22.19937,35.44978,Unknown
-0.08911133,-0.1401367,-0.4550781,0.489229,0.487313,-0.1226563,-13.79291,7.852087,0.6775265,-16.81485,10.59991,-0.6254883,-0.4038086,0.7788086,0.128168,-0.179916,0.06086259,-17.55246,28.70282,0.094074,-22.01141,35.48862,Unknown
-0.08422852,-0.1381836,-0.4509277,0.1228168,0.2125039,0.06054974,-13.85065,7.900477,0.6783742,-16.76403,10.12581,-0.6401367,-0.4084473,0.7902832,-0.03977096,-0.2257175,0.2593359,-17.63957,28.84043,0.09770471,-21.88105,35.73816,Unknown
-0.08398438,-0.1413574,-0.4519043,-0.1825268,-0.4287176,0.2132213,-13.91804,7.937746,0.6813593,-17.09465,10.05797,-0.6257324,-0.4089355,0.7912598,0.1739695,-0.1035802,0.3662061,-17.72573,28.96399,0.1028316,-22.06651,35.08916,Unknown
-0.0859375,-0.1320801,-0.4433594,-0.197794,-0.5355878,0.091084,-13.96844,7.982114,0.6826344,-16.3023,10.52357,-0.6096191,-0.4069824,0.7927246,0.05183208,-0.07304579,0.03032825,-17.8134,29.07125,0.1032562,-22.14498,34.37701,Unknown
-0.08569336,-0.1306152,-0.4443359,-0.289397,-0.6729923,0.1674199,-14.01504,8.022894,0.6849784,-16.10011,10.4828,-0.6254883,-0.4030762,0.7993164,0.06709921,0.03382444,-0.07654199,-17.88941,29.18914,0.1021846,-21.65978,34.94262,Unknown
-0.08300781,-0.1350098,-0.4482422,-0.1061909,-0.3523817,-0.1226563,-14.06625,8.058356,0.6831386,-16.49733,10.05498,-0.6257324,-0.4020996,0.7924805,0.3571756,0.1864962,-0.07654199,-17.96064,29.31111,0.1010365,-21.71357,35.15066,Unknown
-0.08935547,-0.137207,-0.458252,0.1991527,-0.1691756,0.2437558,-14.10992,8.10665,0.6863074,-16.37696,10.58083,-0.6291504,-0.4023438,0.7790527,0.1587023,0.1254275,-0.06127481,-18.0372,29.4397,0.1002399,-21.88982,35.66099,Unknown
-0.0859375,-0.1384277,-0.4516602,0.06174803,0.02929771,-0.1226563,-14.162,8.151127,0.6845901,-16.75625,10.31038,-0.6269531,-0.4116211,0.7922363,0.0976336,-0.179916,-0.03074045,-18.11846,29.55,0.09980953,-22.16717,35.07814,Unknown
-0.08618164,-0.1357422,-0.4501953,0.1991527,0.1972366,0.04528236,-14.20576,8.198723,0.6852694,-16.49618,10.38598,-0.626709,-0.4069824,0.7849121,0.2503054,-0.179916,0.07612977,-18.19356,29.66296,0.1009515,-22.05745,35.33002,Unknown
-0.09106445,-0.138916,-0.4475098,-0.04512215,-0.1386412,0.3200917,-14.26064,8.252806,0.6897507,-16.91902,10.99796,-0.6293945,-0.4038086,0.7895508,0.1739695,-0.08831299,0.2746031,-18.26325,29.77577,0.1047959,-21.79759,35.36407,Unknown
-0.08374023,-0.1318359,-0.4533691,-0.04512215,-0.01650381,-0.1837251,-14.29521,8.288671,0.6871785,-15.95813,10.05739,-0.6328125,-0.4033203,0.7995605,0.00603056,-0.1646488,0.183,-18.32952,29.88293,0.1073579,-21.58058,35.24651,Unknown
-0.07861328,-0.1367188,-0.4431152,-0.4268017,-0.4439847,-0.04632068,-14.35313,8.309237,0.68653,-16.89858,9.621578,-0.625,-0.4025879,0.784668,0.2045038,-0.02724427,-0.03074045,-18.39745,29.99138,0.1069275,-21.86658,35.32452,Unknown
-0.09375,-0.1281738,-0.435791,-0.01458788,-0.1691756,-0.168458,-14.38711,8.373957,0.6841716,-16.04202,11.66123,-0.6276855,-0.4099121,0.7871094,-0.131374,0.1254275,0.183,-18.4744,30.09871,0.1094895,-22.15452,35.2714,Unknown
-0.08251953,-0.1352539,-0.4465332,-0.1061909,-0.5661222,0.259023,-14.43256,8.399308,0.6877979,-16.58639,10.02989,-0.625,-0.3974609,0.7958984,0.00603056,-0.179916,0.03032825,-18.53368,30.19606,0.1099141,-21.44293,35.08975,Unknown
-0.08642578,-0.1386719,-0.4436035,0.2754886,0.1361679,-0.2447939,-14.48128,8.44387,0.6843708,-17.0578,10.53399,-0.6262207,-0.4001465,0.7871094,0.3724428,0.1101603,0.03032825,-18.59178,30.30054,0.1103387,-21.69401,35.34467,Unknown
-0.08959961,-0.1391602,-0.4484863,0.489229,0.3041069,-0.1073892,-14.52342,8.495216,0.6828673,-16.92373,10.80264,-0.6318359,-0.402832,0.7836914,0.0976336,-0.1951832,0.1371985,-18.65479,30.4047,0.1122595,-21.80941,35.64237,Unknown
-0.08251953,-0.1452637,-0.4492188,0.1228168,-0.031771,-0.2295268,-14.58413,8.523162,0.679654,-17.64316,9.914259,-0.6293945,-0.4101563,0.7944336,-0.08557248,-0.2562519,-3.725397,-18.72351,30.49598,0.06010396,-22.03205,35.14436,Unknown
-0.0847168,-0.1435547,-0.4472656,-0.1519923,-0.1539084,-0.2142596,-14.64459,8.555055,0.6766543,-17.50286,10.22333,-0.6240234,-0.4047852,0.7902832,0.2045038,-0.08831299,0.1677328,-18.78423,30.58683,0.06245222,-21.89965,35.09931,Unknown
-0.08813477,-0.1350098,-0.4353027,-0.2435954,-0.3065802,0.1368854,-14.69321,8.598642,0.6785707,-16.9084,10.94478,-0.6296387,-0.4077148,0.7902832,0.3113741,-0.1035802,0.1524656,-18.84376,30.67968,0.06458673,-21.97416,35.3004,Unknown
-0.0847168,-0.1293945,-0.4372559,-0.01458788,-0.3218473,0.2132213,-14.72354,8.632745,0.6815558,-16.19972,10.52457,-0.6262207,-0.4084473,0.7905273,-0.07030535,0.06435877,0.06086259,-18.90881,30.7697,0.06543881,-22.04805,35.13668,Unknown
-0.08813477,-0.1311035,-0.4401855,-0.197794,-0.3523817,0.1063511,-14.75757,8.672161,0.6831511,-16.27995,10.86254,-0.6291504,-0.4013672,0.7827148,-0.1161069,-0.05777865,-0.04600763,-18.96805,30.86495,0.0647487,-21.78548,35.57422,Unknown
-0.08398438,-0.1333008,-0.4423828,0.1228168,-0.1844428,-0.260061,-14.79055,8.702233,0.6795103,-16.4907,10.30232,-0.623291,-0.4052734,0.7858887,0.38771,0.1559618,0.1066641,-19.02338,30.95338,0.06624199,-22.0007,35.17981,Unknown
-0.08569336,-0.1362305,-0.4360352,0.1838853,-0.001236677,-0.2905953,-14.83309,8.74066,0.675442,-17.04375,10.62443,-0.6257324,-0.4069824,0.7844238,0.08236647,-0.3173206,-3.71013,-19.08333,31.03599,0.01430017,-22.07714,35.30112,Unknown
-0.08764648,-0.138916,-0.4484863,0.07701516,-0.2760458,0.04528236,-14.87355,8.773541,0.6760759,-16.90893,10.57411,-0.6271973,-0.4084473,0.8007813,0.2808397,-0.2257175,0.07612977,-19.13537,31.11025,0.01536599,-21.87813,34.904,Unknown
-0.08374023,-0.1401367,-0.4384766,0.03121376,0.02929771,-0.1073892,-14.92422,8.804677,0.6745725,-17.4284,10.31022,-0.6257324,-0.4057617,0.7839355,0.2350382,0.003290057,0.1066641,-19.18994,31.19472,0.01685929,-22.02484,35.33158,Unknown
-0.0793457,-0.137207,-0.4526367,0.01594663,-0.1997099,-0.0310533,-14.95799,8.816112,0.6741066,-16.62434,9.523184,-0.6228027,-0.4099121,0.7905273,-0.009236574,0.003290057,0.2440687,-19.24951,31.27025,0.02052032,-22.16157,34.96887,Unknown
-0.09130859,-0.1357422,-0.4428711,-0.381,-0.5813893,0.06054974,-14.99861,8.85427,0.6750149,-16.70929,11.15132,-0.6257324,-0.4187012,0.7890625,-0.390916,-0.1951832,0.1066641,-19.32178,31.3422,0.02212028,-22.57597,35.01112,Unknown
-0.08227539,-0.1367188,-0.4431152,3.588466,-0.4592519,0.3811603,-14.99043,8.872551,0.67997,-16.87544,10.06083,-0.6242676,-0.4125977,0.7963867,0.1434351,0.1864962,0.1219313,-19.37718,31.4145,0.02370539,-22.18295,34.83835,Unknown
-0.08642578,-0.1364746,-0.4396973,-0.1367252,-0.4897862,-0.2142596,-15.03127,8.90102,0.6769704,-16.93841,10.632,-0.6271973,-0.4101563,0.7814941,0.2045038,0.1101603,0.06086259,-19.43203,31.4957,0.02455747,-22.26007,35.39891,Unknown
-0.08789063,-0.1359863,-0.4458008,-0.1061909,-0.4439847,0.06054974,-15.06533,8.93049,0.6778181,-16.66126,10.67909,-0.6269531,-0.402832,0.7988281,0.1129008,0.003290057,-0.04600763,-19.4746,31.56627,0.02391336,-21.63782,35.02199,Unknown
-0.08154297,-0.138916,-0.4423828,0.2754886,0.07509923,-0.2142596,-15.1032,8.952466,0.6746042,-17.16149,9.974049,-0.638916,-0.4035645,0.7783203,0.2808397,0.04909158,-0.1986794,-19.51776,31.65732,0.02093317,-21.83941,36.08281,Unknown
-0.08227539,-0.1364746,-0.4387207,0.229687,0.2125039,-0.07685494,-15.138,8.979381,0.6735282,-17.0007,10.15239,-0.6252441,-0.4072266,0.782959,0.6014504,0.07962596,-0.01547329,-19.56152,31.73159,0.02071654,-22.11799,35.31636,Unknown
-0.08862305,-0.1369629,-0.4499512,0.07701516,0.09036642,-0.0005190372,-15.16675,9.01445,0.6735209,-16.62863,10.67087,-0.6213379,-0.4196777,0.7888184,0.06709921,-0.2562519,4.045595,-19.62301,31.78973,0.07735488,-22.68238,34.8143,Unknown
-0.08740234,-0.1364746,-0.4528809,-0.1214581,-0.0470382,0.091084,-15.19486,9.042854,0.6748872,-16.48284,10.46925,-0.6286621,-0.4047852,0.795166,0.1739695,-0.3020534,0.06086259,-19.66336,31.85284,0.07826782,-21.76834,35.16728,Unknown
-0.08398438,-0.1345215,-0.4436035,0.07701516,-0.06230533,0.091084,-15.22174,9.066526,0.6761623,-16.59165,10.26922,-0.6245117,-0.407959,0.791748,0.4182443,-0.01197708,0.3051374,-19.70488,31.91636,0.08253974,-22.02623,35.03697,Unknown
-0.0859375,-0.1359863,-0.4460449,-0.2741299,-0.291313,0.1674199,-15.25465,9.089752,0.6786737,-16.6659,10.44195,-0.6113281,-0.4072266,0.7937012,-0.03977096,0.06435877,0.01506107,-19.75378,31.96743,0.08276567,-22.12069,34.42241,Unknown
-0.08398438,-0.1315918,-0.4450684,-0.2435954,-0.5813893,0.3353589,-15.27692,9.105121,0.6833687,-16.20064,10.25703,-0.6252441,-0.4038086,0.7895508,-0.131374,0.1101603,-0.09180916,-19.79747,32.0333,0.08148033,-21.84822,35.18535,Unknown
-0.08178711,-0.1330566,-0.4387207,-0.197794,-0.2455115,-0.04632068,-15.30768,9.120025,0.6823496,-16.60178,10.11502,-0.6210938,-0.404541,0.7814941,0.05183208,0.262832,-0.1834122,-19.84161,32.10258,0.07744526,-22.06039,35.21423,Unknown
-0.0793457,-0.1401367,-0.4536133,-0.2130611,-0.001236677,0.1063511,-15.34296,9.127366,0.6838386,-16.92573,9.487911,-0.6271973,-0.4001465,0.7927246,0.1129008,-0.3631221,0.183,-19.87516,32.16023,0.08000726,-21.59649,35.23393,Unknown
-0.08666992,-0.1367188,-0.440918,-0.197794,-0.1081069,0.3964274,-15.37727,9.156003,0.6893885,-16.92266,10.6334,-0.6223145,-0.4211426,0.7885742,0.03656495,-0.1035802,0.1982672,-19.93206,32.21245,0.08278301,-22.7451,34.84225,Unknown
-0.0859375,-0.1345215,-0.4443359,-0.197794,-0.382916,0.091084,-15.40352,9.177375,0.6906637,-16.554,10.48728,-0.6242676,-0.3952637,0.7941895,-0.1924427,-0.2562519,-0.04600763,-19.96345,32.26737,0.0821389,-21.36959,35.1343,Unknown
-0.08422852,-0.1293945,-0.4396973,-0.3657329,-0.7187939,0.091084,-15.42324,9.19152,0.69203,-16.12066,10.41296,-0.6323242,-0.3981934,0.7927246,0.2350382,0.1559618,-0.2139466,-19.98951,32.33393,0.0789297,-21.43924,35.48083,Unknown
-0.0847168,-0.1328125,-0.4462891,0.5197632,0.3499084,-0.260061,-15.43359,9.218721,0.6883891,-16.29744,10.31157,-0.6318359,-0.4047852,0.7854004,0.3419085,-0.1188473,-0.1376107,-20.02261,32.39699,0.07700315,-21.87898,35.56819,Unknown
-0.0847168,-0.1428223,-0.4428711,0.3670917,0.319374,-0.2142596,-15.47139,9.24509,0.6853895,-17.57553,10.31809,-0.6252441,-0.402832,0.7912598,-0.03977096,-0.3783893,-0.1376107,-20.05818,32.44691,0.0750766,-21.77407,35.15257,Unknown
-0.08276367,-0.1359863,-0.4592285,0.1991527,0.227771,0.1063511,-15.48418,9.259398,0.6868784,-16.2474,9.804234,-0.6176758,-0.4101563,0.7905273,0.2961069,-0.3173206,0.07612977,-20.09769,32.48848,0.07614243,-22.23663,34.74337,Unknown
-0.08959961,-0.1381836,-0.4455566,0.0006792545,-0.01650381,-0.1073892,-15.51272,9.291432,0.6853749,-16.9119,10.87244,-0.6279297,-0.4084473,0.7976074,0.1739695,-0.3173206,0.2746031,-20.13171,32.53476,0.07998686,-21.91801,35.02012,UP.png
-0.08178711,-0.1381836,-0.4501953,-0.07565641,-0.3218473,-0.1837251,-15.53959,9.298237,0.6828027,-16.80422,9.85247,-0.6242676,-0.4067383,0.7883301,-0.02450383,-0.2257175,0.3356718,-20.16986,32.58368,0.08468627,-22.02258,35.1355,UP.png
-0.08789063,-0.1252441,-0.4506836,-0.4115343,-0.382916,0.1063511,-15.53999,9.319473,0.684398,-15.25686,10.64156,-0.6230469,-0.4008789,0.7910156,-0.1619084,-0.1035802,-0.04600763,-20.20301,32.63231,0.08399614,-21.70863,35.09114,UP.png
-0.08129883,-0.1308594,-0.4475098,-0.3351984,-0.3218473,0.03001523,-15.55448,9.326805,0.6847882,-16.05093,9.891074,-0.6291504,-0.3933105,0.7885742,0.00603056,0.003290057,0.03032825,-20.22487,32.6902,0.08439041,-21.29978,35.52519,UP.png
-0.08349609,-0.1381836,-0.4436035,0.07701516,-0.3371145,0.1216183,-15.58267,9.339067,0.6866124,-17.02076,10.18762,-0.6225586,-0.4057617,0.7839355,0.03656495,0.04909158,-0.07654199,-20.26112,32.741,0.08324229,-22.06416,35.19423,UP.png
-0.08496094,-0.1325684,-0.4431152,-0.02985501,-0.4897862,0.1521528,-15.59894,9.353259,0.6888947,-16.37392,10.40869,-0.6279297,-0.4052734,0.7929688,0.06709921,0.06435877,-0.1376107,-20.2916,32.7909,0.08117813,-21.83465,35.18835,UP.png
-0.0871582,-0.1359863,-0.4448242,0.4586947,0.07509923,-0.1989923,-15.61465,9.379482,0.6861088,-16.69942,10.61291,-0.6298828,-0.4038086,0.7753906,0.4335115,0.1254275,-0.0002061129,-20.32001,32.85225,0.08117524,-22.00937,35.77251,UP.png
-0.08813477,-0.1364746,-0.4450684,0.3976259,0.1209008,-0.3821983,-15.63173,9.407964,0.680758,-16.7411,10.7206,-0.6247559,-0.3962402,0.7770996,0.219771,-0.2104504,4.060863,-20.34405,32.90454,0.1380273,-21.67256,35.61118,UP.png
-0.08569336,-0.1413574,-0.4516602,-0.01458788,0.1667023,-0.09212208,-15.66113,9.427357,0.6794683,-17.09201,10.26328,-0.6259766,-0.4116211,0.7983398,0.02129769,-0.347855,-0.01547329,-20.37857,32.93914,0.1378107,-22.08442,34.87329,UP.png
-0.08569336,-0.1364746,-0.4433594,-0.289397,-0.550855,0.091084,-15.6882,9.440575,0.6807435,-16.81618,10.46616,-0.6271973,-0.409668,0.795166,0.1892367,-0.08831299,-0.06127481,-20.40887,32.97989,0.1369529,-22.02382,35.03724,UP.png
-0.08691406,-0.1345215,-0.4384766,0.1533511,-0.2760458,-0.1073892,-15.70716,9.462313,0.6791327,-16.74853,10.73035,-0.6213379,-0.401123,0.7912598,0.3113741,0.04909158,0.03032825,-20.43087,33.02116,0.1374078,-21.73755,35.00719,UP.png
-0.08496094,-0.1391602,-0.4511719,-0.04512215,0.1361679,-0.1837251,-15.73089,9.478954,0.6765605,-16.86279,10.201,-0.6264648,-0.3989258,0.8027344,-0.03977096,0.03382444,-0.06127481,-20.45068,33.06017,0.1365499,-21.39398,34.94859,UP.png
-0.0859375,-0.1391602,-0.4401855,-0.3199313,-0.6119237,0.1979542,-15.76542,9.491878,0.6793319,-17.23817,10.54488,-0.628418,-0.40625,0.7915039,-0.1161069,0.07962596,-0.1834122,-20.48123,33.10477,0.1339822,-21.89885,35.23537,UP.png
-0.08666992,-0.137207,-0.4484863,0.229687,0.1056336,-0.06158781,-15.78134,9.512887,0.6784697,-16.71901,10.46988,-0.6306152,-0.4104004,0.7861328,0.1739695,-0.02724427,-0.01547329,-20.51236,33.15064,0.1337655,-22.15714,35.41681,UP.png
-0.08740234,-0.1359863,-0.4445801,0.1686182,0.01403052,-0.01578617,-15.79753,9.535765,0.6782486,-16.70613,10.64718,-0.6271973,-0.4025879,0.7907715,0.2045038,-0.02724427,-0.07654199,-20.53423,33.19232,0.1326939,-21.74589,35.25334,UP.png
-0.08496094,-0.1340332,-0.447998,0.2144198,-0.031771,-0.09212208,-15.80603,9.550535,0.6768668,-16.38035,10.29766,-0.6252441,-0.4033203,0.7941895,0.3419085,-0.08831299,0.1371985,-20.55358,33.22851,0.1347519,-21.75302,35.0667,UP.png
-0.08374023,-0.1369629,-0.4460449,0.3060229,0.1972366,-0.01578617,-15.82158,9.565721,0.6766458,-16.7932,10.17452,-0.6242676,-0.4025879,0.7893066,0.3724428,-0.01197708,0.2746031,-20.57348,33.26711,0.1385964,-21.80401,35.1667,UP.png
-0.0859375,-0.1416016,-0.4443359,0.1838853,-0.3065802,0.03001523,-15.8501,9.579021,0.677066,-17.37402,10.44108,-0.6398926,-0.4013672,0.7849121,0.00603056,-0.2562519,0.3051374,-20.59433,33.31773,0.1428683,-21.62021,35.97394,UP.png
-0.0871582,-0.1352539,-0.4492188,-0.2588627,-0.1386412,-0.0310533,-15.86598,9.596031,0.6766313,-16.46636,10.52461,-0.614502,-0.4072266,0.798584,-0.2535114,-0.2104504,0.1219313,-20.62603,33.33711,0.1445753,-22.00545,34.43088,UP.png
-0.08398438,-0.130127,-0.4455566,-0.3046641,-0.4439847,0.1368854,-15.87311,9.603135,0.6785477,-16.01352,10.25583,-0.6223145,-0.4147949,0.7971191,0.2655725,0.2322977,-0.0002061129,-20.65591,33.36765,0.1445724,-22.30201,34.70453,UP.png
-0.0871582,-0.1350098,-0.4465332,-0.07565641,-0.5203207,-0.0005190372,-15.88725,9.615592,0.6785404,-16.52831,10.58287,-0.6289063,-0.4033203,0.7915039,0.2350382,0.01855725,-0.07654199,-20.67456,33.40649,0.1435008,-21.74979,35.29688,UP.png
-0.08666992,-0.1359863,-0.4411621,0.2754886,-0.123374,-0.3974657,-15.9023,9.634248,0.6729759,-16.82868,10.63302,-0.6269531,-0.4050293,0.7856445,0.1587023,0.09489316,-0.1834122,-20.69784,33.44662,0.1409331,-21.94736,35.34808,UP.png
-0.08691406,-0.1359863,-0.451416,0.3365571,-0.0470382,-0.04632068,-15.90921,9.649824,0.6723274,-16.47879,10.44539,-0.6269531,-0.3996582,0.7871094,0.2350382,0.1254275,-0.09180916,-20.71388,33.48707,0.1396477,-21.66108,35.38306,UP.png
-0.0871582,-0.1398926,-0.453125,0.4434273,0.3041069,-0.168458,-15.92226,9.669282,0.669969,-16.86578,10.41415,-0.6293945,-0.4035645,0.7922363,0.2808397,-0.1951832,0.1982672,-20.73065,33.52055,0.1424235,-21.74463,35.29464,UP.png
-0.08764648,-0.1420898,-0.4453125,0.2144198,0.1667023,-0.1837251,-15.94855,9.690583,0.6673968,-17.38391,10.62001,-0.6289063,-0.4125977,0.7937012,-0.131374,-0.347855,0.07612977,-20.76119,33.54755,0.1434893,-22.16788,35.10919,UP.png
-0.09277344,-0.1328125,-0.4470215,-0.3962674,-0.4897862,0.07581687,-15.95942,9.715085,0.6684582,-16.22006,11.25164,-0.625,-0.4064941,0.7912598,0.2961069,-0.2409847,-0.0002061129,-20.78103,33.57512,0.1434864,-21.95626,35.09145,UP.png
-0.08251953,-0.1374512,-0.4465332,-0.1214581,-0.5355878,0.06054974,-15.97871,9.713763,0.6693059,-16.84071,10.0164,-0.6220703,-0.4104004,0.791748,0.06709921,0.03382444,0.1524656,-20.808,33.60203,0.1456209,-22.17533,34.89772,UP.png
-0.08251953,-0.1364746,-0.4484863,-0.1061909,-0.5355878,0.1674199,-15.99382,9.711805,0.6716498,-16.66122,9.983282,-0.6230469,-0.4025879,0.782959,-0.4061831,-0.01197708,-0.1986794,-20.83575,33.63556,0.1428394,-21.9171,35.28656,UP.png
-0.08984375,-0.1342773,-0.4355469,-0.09092379,-0.4897862,0.4269619,-16.01121,9.733876,0.6776273,-16.80111,11.15133,-0.6262207,-0.4050293,0.8005371,-0.009236574,0.1559618,-0.1986794,-20.85371,33.66329,0.1400579,-21.72753,34.91496,UP.png
-0.09106445,-0.1335449,-0.4389648,0.1075497,-0.09283972,-0.0005190372,-16.02127,9.762438,0.67762,-16.58798,11.22569,-0.6230469,-0.4055176,0.7912598,0.4029771,0.1559618,-0.01547329,-20.86975,33.69257,0.1398413,-21.93233,35.02064,UP.png
-0.08935547,-0.1335449,-0.4406738,0.3365571,0.1361679,0.091084,-16.02673,9.788832,0.6789863,-16.54157,10.98204,-0.6259766,-0.4018555,0.7890625,0.06709921,0.01855725,0.04559542,-20.88639,33.72414,0.1405252,-21.75101,35.25725,UP.png
-0.09057617,-0.1386719,-0.4501953,0.2754886,0.04456491,-0.07685494,-16.03847,9.811343,0.6779103,-16.803,10.88389,-0.6330566,-0.4030762,0.7932129,0.2350382,-0.1493817,-0.1070763,-20.89867,33.75624,0.1390261,-21.66163,35.4318,UP.png
-0.08691406,-0.1418457,-0.442627,0.1838853,0.02929771,0.2284887,-16.0643,9.82735,0.6811091,-17.45619,10.59156,-0.6237793,-0.4067383,0.7868652,0.4029771,-0.2257175,0.3356718,-20.9162,33.78111,0.1437255,-22.05136,35.154,UP.png
-0.08666992,-0.1398926,-0.4370117,-0.2435954,-0.291313,0.0147481,-16.095,9.840729,0.6813156,-17.43209,10.69615,-0.6293945,-0.4099121,0.7937012,-0.08557248,-0.3325878,0.2898702,-20.93968,33.80426,0.1477837,-22.03148,35.16739,UP.png
-0.08129883,-0.1386719,-0.4367676,-0.4726033,-0.8561985,0.350626,-16.12629,9.833371,0.6862244,-17.33495,10.06019,-0.6262207,-0.4055176,0.795166,-0.1161069,-0.1493817,0.03032825,-20.95915,33.82718,0.1482083,-21.83355,35.05234,UP.png
-0.08129883,-0.1296387,-0.4445801,-0.1061909,-0.4134504,-0.09212208,-16.12532,9.830173,0.6849346,-16.00509,9.957104,-0.6230469,-0.4055176,0.7814941,0.3266413,0.3086336,-0.2139466,-20.97717,33.86057,0.1452131,-22.08419,35.28524,UP.png
-0.0859375,-0.1357422,-0.442627,0.1991527,-0.2607787,-0.06158781,-16.13517,9.840304,0.6840724,-16.75455,10.5156,-0.6223145,-0.4035645,0.7841797,-0.07030535,0.3849695,-0.0002061129,-20.99769,33.8928,0.1452102,-21.95528,35.20784,UP.png
-0.08911133,-0.140625,-0.4455566,0.1686182,-0.123374,0.1063511,-16.15408,9.857768,0.6855613,-17.19663,10.79811,-0.6328125,-0.4084473,0.7834473,-0.08557248,0.03382444,-0.1070763,-21.02043,33.92764,0.1437111,-22.07598,35.61156,UP.png
-0.08642578,-0.1357422,-0.449707,0.3518243,0.1667023,-0.260061,-16.15639,9.871398,0.6819205,-16.51095,10.4249,-0.6276855,-0.4060059,0.78125,0.38771,0.03382444,-0.04600763,-21.03579,33.95926,0.143067,-22.05422,35.48562,UP.png
-0.09326172,-0.1398926,-0.4501953,0.2144198,0.1819695,0.04528236,-16.1688,9.90027,0.6825544,-16.92381,11.1902,-0.6264648,-0.40625,0.7897949,0.219771,-0.08831299,0.2898702,-21.05104,33.98281,0.1471252,-21.94904,35.19751,UP.png
-0.08642578,-0.1367188,-0.4467773,-0.3504658,-0.5661222,0.07581687,-16.18468,9.904096,0.6836159,-16.72244,10.47987,-0.6262207,-0.4055176,0.7980957,0.128168,-0.1493817,0.1677328,-21.06403,34.00058,0.1494734,-21.78863,34.9737,UP.png
-0.08374023,-0.1298828,-0.434082,-0.2741299,-0.4592519,0.1521528,-16.1922,9.909135,0.685746,-16.37256,10.47111,-0.6193848,-0.411377,0.7893066,0.4029771,0.07962596,0.1219313,-21.08311,34.01833,0.1511805,-22.29449,34.83322,UP.png
-0.08862305,-0.1352539,-0.4414063,-0.3351984,-0.6729923,0.091084,-16.20738,9.919049,0.6870212,-16.72136,10.86657,-0.6257324,-0.4038086,0.784668,0.0976336,0.1559618,-0.1223435,-21.09846,34.04688,0.1494677,-21.91757,35.33908,UP.png
-0.08398438,-0.1367188,-0.4453125,0.0006792545,-0.7035267,-0.0310533,-16.21899,9.915418,0.6865864,-16.78851,10.22011,-0.6308594,-0.40625,0.7944336,-0.1008396,0.1406947,-0.1223435,-21.11436,34.07309,0.1477549,-21.8243,35.26105,UP.png
-0.08251953,-0.1335449,-0.4477539,0.1075497,-0.2149771,-0.1989923,-16.22008,9.914473,0.6838005,-16.34723,10.01565,-0.6323242,-0.4040527,0.7788086,0.1434351,0.03382444,-0.1986794,-21.12887,34.10769,0.1449733,-21.93813,35.78004,UP.png
-0.08911133,-0.140625,-0.4538574,0.32129,0.07509923,-0.2295268,-16.2295,9.929657,0.6805872,-16.91132,10.62219,-0.6345215,-0.4101563,0.7883301,0.219771,0.04909158,0.09139694,-21.14453,34.13677,0.1462529,-22.06296,35.52803,UP.png
-0.08984375,-0.140625,-0.4631348,0.06174803,0.227771,-0.168458,-16.23603,9.944503,0.6782288,-16.59829,10.51569,-0.6230469,-0.4018555,0.7849121,0.2045038,-0.1035802,0.1066641,-21.15585,34.15749,0.1477462,-21.85075,35.24354,UP.png
-0.08422852,-0.1384277,-0.4528809,-0.2741299,-0.4592519,0.2132213,-16.24959,9.941016,0.6812139,-16.72591,10.0852,-0.626709,-0.4047852,0.7924805,0.2961069,-0.1188473,0.09139694,-21.16534,34.17582,0.1490258,-21.83311,35.15577,UP.png
-0.08764648,-0.1352539,-0.4453125,-0.09092379,-0.382916,0.07581687,-16.25774,9.950249,0.6822753,-16.59462,10.66532,-0.6101074,-0.4128418,0.7937012,0.3571756,0.1254275,0.3051374,-21.18534,34.17986,0.1532977,-22.41076,34.29205,UP.png
-0.08520508,-0.1347656,-0.4440918,-0.2588627,-0.6271908,-0.06158781,-16.26804,9.950706,0.6814131,-16.59551,10.40342,-0.6223145,-0.4030762,0.7924805,-0.3451145,0.2322977,0.2135344,-21.20243,34.19925,0.1562872,-21.80276,34.98967,UP.png
-0.08544922,-0.1335449,-0.4389648,-0.3351984,-0.5661222,-0.04632068,-16.27982,9.954915,0.6807646,-16.62677,10.54952,-0.6340332,-0.4064941,0.7976074,-0.009236574,0.171229,-0.06127481,-21.2135,34.22376,0.1554293,-21.74954,35.30782,UP.png
-0.078125,-0.1333008,-0.4411621,0.0006792545,-0.2607787,-0.1073892,-16.28559,9.944665,0.6792611,-16.56927,9.621288,-0.6318359,-0.4084473,0.7763672,0.2808397,0.1864962,-0.06127481,-21.22933,34.2571,0.1545715,-22.19777,35.76304,UP.png
-0.08569336,-0.1379395,-0.4470215,0.229687,-0.5203207,0.259023,-16.29393,9.946236,0.6828875,-16.85977,10.38013,-0.6269531,-0.4060059,0.7924805,0.0976336,0.1559618,-0.1070763,-21.2412,34.27709,0.1530724,-21.88977,35.14943,UP.png
-0.08520508,-0.1547852,-0.4460449,0.2449541,-0.1081069,0.182687,-16.3392,9.949576,0.6869066,-18.82187,10.22986,-0.6291504,-0.4035645,0.7785645,0.2503054,-0.07304579,-0.01547329,-21.25013,34.30311,0.152732,-21.95747,35.65705,UP.png
-0.08374023,-0.1340332,-0.4506836,-0.3504658,-0.6882596,-0.06158781,-16.3432,9.94311,0.6860443,-16.29867,10.09838,-0.625,-0.4067383,0.7949219,-0.1161069,0.1559618,-0.1223435,-21.26495,34.31898,0.1510192,-21.91163,34.9896,UP.png
-0.0859375,-0.1279297,-0.451416,-0.1061909,-0.6729923,0.091084,-16.32894,9.942599,0.6873195,-15.55702,10.37925,-0.6350098,-0.4042969,0.786377,0.4640458,0.1864962,-0.03074045,-21.2693,34.34884,0.1505888,-21.80116,35.68433,UP.png
-0.08251953,-0.1364746,-0.4453125,0.5044961,0.3957099,-0.04632068,-16.33083,9.950117,0.686671,-16.76961,10.04702,-0.6210938,-0.3994141,0.7900391,0.38771,-0.1341145,0.06086259,-21.2721,34.36109,0.1514409,-21.67524,35.05316,UP.png
-0.08276367,-0.1357422,-0.4482422,0.1991527,0.1667023,-0.0310533,-16.33315,9.953833,0.6862363,-16.58345,10.02157,-0.6264648,-0.4013672,0.7893066,0.1892367,-0.1646488,0.03032825,-21.27841,34.37717,0.1518655,-21.71737,35.27843,UP.png
-0.08374023,-0.1342773,-0.4528809,0.229687,0.4415114,-0.428,-16.32842,9.96187,0.6802443,-16.25424,10.05281,-0.6223145,-0.4150391,0.7919922,0.4335115,0.01855725,0.1677328,-21.29479,34.38663,0.1542138,-22.39445,34.83723,UP.png
-0.08227539,-0.1408691,-0.4462891,-0.1061909,-0.1386412,0.2742901,-16.34821,9.96015,0.6840844,-17.24511,9.970964,-0.6291504,-0.4016113,0.7802734,0.06709921,-0.2715191,0.2135344,-21.30467,34.40793,0.1572032,-21.83496,35.63781,UP.png
-0.08496094,-0.1374512,-0.4487305,-0.289397,-0.4134504,0.1216183,-16.36021,9.960502,0.685787,-16.74991,10.26133,-0.6254883,-0.4072266,0.7973633,-0.3145801,-0.07304579,0.09139694,-21.32073,34.41754,0.1584828,-21.8919,34.93851,UP.png
-0.0871582,-0.1347656,-0.4436035,-0.289397,-0.550855,0.1674199,-16.36896,9.966673,0.6881309,-16.59922,10.64699,-0.6286621,-0.4030762,0.7851563,0.2045038,0.1101603,-0.01547329,-21.32827,34.43995,0.1582662,-21.83802,35.4624,UP.png
-0.08422852,-0.1325684,-0.4414063,-0.1367252,-0.1691756,-0.1073892,-16.37219,9.972154,0.6866274,-16.43653,10.35676,-0.625,-0.4047852,0.7844238,0.0976336,0.2322977,0.06086259,-21.33993,34.46034,0.1591182,-21.97837,35.30037,UP.png
-0.0871582,-0.1376953,-0.4470215,0.3365571,-0.031771,-0.04632068,-16.37656,9.983378,0.6859789,-16.82192,10.5552,-0.6279297,-0.3994141,0.7875977,0.00603056,-0.3936565,-0.01547329,-21.34564,34.47404,0.1589016,-21.62975,35.41521,UP.png
-0.08227539,-0.1328125,-0.449707,0.1991527,0.1972366,-0.04632068,-16.37028,9.985455,0.6853304,-16.19907,9.951891,-0.6276855,-0.4013672,0.7807617,0.128168,-0.2409847,-3.71013,-21.35364,34.49255,0.1069598,-21.83356,35.56463,UP.png
-0.08862305,-0.1396484,-0.4592285,0.07701516,-0.001236677,0.182687,-16.37432,9.994947,0.6878881,-16.62481,10.46096,-0.6276855,-0.4118652,0.7849121,0.3113741,0.003290057,-3.649061,-21.36798,34.5088,0.05587294,-22.2841,35.30316,UP.png
-0.09082031,-0.1362305,-0.451416,0.04648089,-0.09283972,-0.0005190372,-16.37577,10.01173,0.6878803,-16.48119,10.90223,-0.6403809,-0.4042969,0.793457,0.08236647,-0.2409847,4.060863,-21.37199,34.52949,0.1167859,-21.62883,35.72017,UP.png
-0.08520508,-0.1362305,-0.4455566,0.01594663,0.02929771,0.1674199,-16.38235,10.01917,0.6902242,-16.71562,10.36349,-0.6206055,-0.3991699,0.7976074,0.1739695,-0.3325878,0.1524656,-21.37322,34.53095,0.1189204,-21.55303,34.83064,UP.png
-0.08276367,-0.1386719,-0.4453125,-0.04512215,-0.06230533,-0.1989923,-16.39577,10.01917,0.6874382,-17.02253,10.06242,-0.623291,-0.4069824,0.7919922,0.1587023,-0.01197708,0.2746031,-21.38337,34.53999,0.1227648,-21.98965,34.99124,UP.png
-0.08642578,-0.1315918,-0.4504395,-0.2283282,-0.4134504,0.2284887,-16.39116,10.02182,0.6906371,-16.00858,10.43532,-0.6281738,-0.4130859,0.7858887,-0.2077099,-0.1493817,-0.09180916,-21.405,34.55275,0.1214795,-22.32228,35.28055,UP.png
-0.08349609,-0.1362305,-0.435791,-0.381,-0.6119237,0.1979542,-16.40992,10.02026,0.6934085,-17.06756,10.36316,-0.621582,-0.4033203,0.7937012,-0.131374,0.01855725,0.1371985,-21.4148,34.56038,0.1234003,-21.80476,34.92173,UP.png
-0.08300781,-0.1328125,-0.4458008,0.2602212,-0.1539084,-0.04632068,-16.40464,10.0201,0.69276,-16.32452,10.11785,-0.6306152,-0.4101563,0.7963867,0.3724428,0.04909158,-0.04600763,-21.42113,34.57273,0.1227562,-21.98715,35.14431,UP.png
-0.08666992,-0.1352539,-0.4443359,0.229687,-0.382916,0.07581687,-16.40608,10.02584,0.6938214,-16.63431,10.56991,-0.6298828,-0.4008789,0.7868652,0.1739695,-0.1188473,-0.168145,-21.42411,34.58963,0.1204021,-21.68908,35.49895,UP.png
-0.08691406,-0.1379395,-0.4509277,0.229687,0.1972366,0.06054974,-16.40919,10.03689,0.6946692,-16.71884,10.44322,-0.6252441,-0.4055176,0.7885742,0.2045038,-0.1188473,0.183,-21.43176,34.59997,0.1229642,-21.94702,35.18807,UP.png
-0.08520508,-0.138916,-0.442627,-0.1061909,-0.06230533,0.091084,-16.42503,10.04344,0.6959443,-17.12859,10.40728,-0.6184082,-0.4118652,0.7954102,0.1434351,0.003290057,4.07613,-21.44584,34.60044,0.18003,-22.23421,34.6214,UP.png
-0.08203125,-0.1323242,-0.4421387,-0.3962674,-0.5355878,0.2284887,-16.42991,10.0368,0.6991432,-16.39707,10.07868,-0.6225586,-0.4143066,0.7976074,-0.1771755,-0.1035802,0.1066641,-21.4647,34.60119,0.1815233,-22.26769,34.70884,UP.png
-0.08618164,-0.1340332,-0.4477539,-0.2283282,-0.5050534,-0.1226563,-16.43183,10.03858,0.6975486,-16.38071,10.44749,-0.6289063,-0.4018555,0.7888184,0.1434351,0.1559618,-0.03074045,-21.46796,34.61896,0.1811237,-21.71909,35.3901,UP.png
-0.08544922,-0.1381836,-0.4343262,0.0006792545,-0.1997099,0.2437558,-16.44992,10.04744,0.7009612,-17.33691,10.61854,-0.621582,-0.3911133,0.782959,0.2961069,0.2170305,-0.03074045,-21.46189,34.63721,0.1806933,-21.36707,35.38268,UP.png
-0.08618164,-0.1298828,-0.4470215,0.1380839,0.02929771,0.04528236,-16.4375,10.05667,0.7015952,-15.92334,10.48867,-0.6254883,-0.4204102,0.7883301,0.2350382,-0.04251146,0.1066641,-21.48289,34.6438,0.1821866,-22.6735,34.99591,UP.png
-0.0871582,-0.1369629,-0.4555664,0.32129,0.2888396,0.04528236,-16.43336,10.06715,0.7022291,-16.45121,10.38242,-0.6171875,-0.4118652,0.7895508,-0.02450383,-0.08831299,0.07612977,-21.50041,34.6442,0.1832524,-22.3417,34.72448,UP.png
-0.08496094,-0.1425781,-0.4458008,0.07701516,0.1209008,0.091084,-16.45239,10.07335,0.7035954,-17.44116,10.28846,-0.6237793,-0.4106445,0.7907715,0.4335115,-0.2562519,0.1219313,-21.50765,34.64744,0.1850814,-22.18148,34.9943,UP.png
-0.08203125,-0.1391602,-0.4353027,0.06174803,0.09036642,-0.1531909,-16.4713,10.07664,0.7014507,-17.44044,10.17607,-0.6279297,-0.4123535,0.7871094,0.2961069,-0.2867863,0.3051374,-21.51885,34.6555,0.1893533,-22.27057,35.24753,UP.png
-0.08398438,-0.1335449,-0.4477539,-0.2283282,-0.1997099,0.2437558,-16.47177,10.07616,0.7048633,-16.33813,10.18975,-0.6176758,-0.4084473,0.7927246,-0.05503809,-0.08831299,0.01506107,-21.5316,34.65535,0.1895642,-22.11846,34.70824,UP.png
-0.08691406,-0.1330566,-0.4450684,-0.4878702,-0.5661222,0.2132213,-16.47608,10.07882,0.7078485,-16.3525,10.59753,-0.6245117,-0.4069824,0.7966309,0.2350382,0.171229,0.1066641,-21.53581,34.66298,0.1910575,-21.90309,34.91943,UP.png
-0.08837891,-0.1328125,-0.4501953,0.1380839,-0.2149771,0.07581687,-16.4677,10.08778,0.7088341,-16.14496,10.66336,-0.6279297,-0.4147949,0.7937012,-0.05503809,0.07962596,0.03032825,-21.55152,34.67146,0.1914517,-22.28646,35.03674,UP.png
-0.08544922,-0.1352539,-0.4448242,-0.1519923,-0.2607787,0.1063511,-16.47309,10.09047,0.7104293,-16.62573,10.41408,-0.6257324,-0.4008789,0.791748,-0.1619084,0.003290057,-0.2139466,-21.55617,34.68183,0.1882425,-21.66494,35.18727,UP.png
-0.08862305,-0.1391602,-0.442627,0.01594663,-0.031771,-0.06158781,-16.48608,10.10449,0.7095671,-17.13336,10.81343,-0.6115723,-0.4050293,0.7919922,0.3724428,-0.01197708,-0.04600763,-21.56067,34.6782,0.1875984,-22.03672,34.50879,UP.png
-0.08691406,-0.1345215,-0.4489746,0.32129,0.1667023,3.556733,-16.47978,10.1148,0.7593613,-16.39168,10.50552,-0.6176758,-0.4069824,0.7768555,0.4945802,-0.07304579,0.2746031,-21.56861,34.68678,0.1914429,-22.29676,35.15706,UP.png
-0.08276367,-0.142334,-0.4521484,0.1533511,0.1056336,0.1063511,-16.49219,10.11203,0.7608502,-17.20514,9.903934,-0.625,-0.4013672,0.7973633,0.1129008,-0.2104504,0.1524656,-21.56792,34.6901,0.1935774,-21.61195,34.99726,UP.png
-0.08642578,-0.1352539,-0.442627,-0.07565641,-0.031771,0.06054974,-16.49727,10.1209,0.761698,-16.69437,10.5772,-0.6188965,-0.4086914,0.796875,0.0976336,-0.08831299,0.04559542,-21.57623,34.68803,0.1942157,-22.05058,34.64709,UP.png
-0.08935547,-0.1384277,-0.4399414,-0.3199313,-0.4897862,0.0147481,-16.51446,10.13106,0.7619044,-17.13738,10.96482,-0.6271973,-0.402832,0.7856445,0.3571756,0.03382444,0.06086259,-21.57654,34.70252,0.1950678,-21.83652,35.38937,UP.png
-0.08544922,-0.1320801,-0.4416504,-0.2741299,-0.1081069,0.2895572,-16.51546,10.13688,0.7662477,-16.36304,10.50145,-0.6242676,-0.4106445,0.7878418,-0.2840458,0.04909158,0.1219313,-21.59361,34.71107,0.1968968,-22.22123,35.09406,UP.png
-0.08618164,-0.1340332,-0.449707,-0.2435954,-0.3218473,-0.0005190372,-16.51457,10.13818,0.766241,-16.31575,10.40673,-0.621582,-0.4038086,0.7807617,-0.1619084,0.1406947,-0.1070763,-21.60439,34.72396,0.1955048,-22.02964,35.26576,UP.png
-0.08276367,-0.1350098,-0.4436035,-0.01458788,-0.2455115,-0.09212208,-16.51761,10.13444,0.7649513,-16.6564,10.12003,-0.625,-0.4072266,0.7900391,0.3419085,0.03382444,0.03032825,-21.60783,34.73222,0.1959294,-22.01096,35.1142,UP.png
-0.09130859,-0.140625,-0.4411621,0.2144198,-0.09283972,-0.2753282,-16.53081,10.1535,0.7608213,-17.33548,11.15542,-0.6298828,-0.4072266,0.78125,0.0976336,-0.02724427,-0.03074045,-21.61597,34.74844,0.1954683,-22.08671,35.56297,UP.png
-0.08129883,-0.1362305,-0.4389648,0.03121376,0.05983204,-0.04632068,-16.53917,10.15187,0.7601728,-16.96985,10.03092,-0.6269531,-0.407959,0.786377,0.1892367,-0.2104504,0.03032825,-21.62265,34.75632,0.1958929,-22.07952,35.28711,UP.png
-0.0859375,-0.1333008,-0.4602051,0.0922823,-0.031771,0.1521528,-16.52498,10.15177,0.762303,-15.89342,10.1687,-0.6208496,-0.3984375,0.7841797,0.4182443,0.01855725,0.07612977,-21.61886,34.76577,0.1969587,-21.72033,35.21576,UP.png
-0.08789063,-0.1391602,-0.442627,0.01594663,-0.0470382,0.06054974,-16.53702,10.16256,0.7632113,-17.13848,10.72615,-0.6296387,-0.4094238,0.7954102,0.1129008,-0.2104504,0.1371985,-21.6244,34.77013,0.1990167,-21.97848,35.13877,UP.png
-0.09155273,-0.1376953,-0.4516602,-0.2588627,-0.4439847,0.0147481,-16.54254,10.17268,0.7634177,-16.63553,10.97306,-0.6220703,-0.4118652,0.7883301,-0.1008396,-0.1646488,4.060863,-21.6393,34.77185,0.2558687,-22.30044,34.96887,UP.png
-0.08569336,-0.1335449,-0.4438477,3.588466,-0.4745191,0.2437558,-16.49163,10.17221,0.7668303,-16.45843,10.47468,-0.6303711,-0.4116211,0.798584,0.219771,0.3086336,-0.03074045,-21.64404,34.78175,0.2554384,-22.02732,35.05503,UP.png
-0.08496094,-0.135498,-0.4448242,-0.09092379,-0.2455115,0.04528236,-16.4961,10.17273,0.767419,-16.65727,10.35432,-0.6262207,-0.4047852,0.7805176,0.2045038,0.2933664,-0.04600763,-21.64903,34.79905,0.2548403,-22.02383,35.45967,UP.png
-0.08984375,-0.1340332,-0.4387207,0.1838853,-0.2760458,-0.04632068,-16.4969,10.18711,0.7667705,-16.66232,11.0811,-0.628418,-0.4035645,0.7927246,0.0976336,0.1406947,-0.1223435,-21.64969,34.80979,0.2531275,-21.749,35.23948,UP.png
-0.08764648,-0.1325684,-0.4431152,0.03121376,0.1056336,-0.09212208,-16.49366,10.19942,0.7654808,-16.35631,10.73017,-0.625,-0.402832,0.776123,0.3571756,-0.179916,-0.01547329,-21.65202,34.82223,0.2529108,-22.01107,35.55511,UP.png
-0.08642578,-0.137207,-0.4450684,0.1686182,0.02929771,-0.0005190372,-16.49806,10.20611,0.7654729,-16.83739,10.51265,-0.6240234,-0.4072266,0.7819824,0.3571756,-0.1188473,0.1371985,-21.6567,34.82984,0.2549688,-22.14844,35.29009,UP.png
-0.08837891,-0.1520996,-0.4465332,0.1075497,0.1209008,-0.01578617,-16.53615,10.21588,0.7652519,-18.47661,10.61146,-0.6252441,-0.4089355,0.7895508,-0.02450383,-0.3173206,0.1677328,-21.66588,34.83117,0.2573171,-22.09905,35.11409,UP.png
-0.07788086,-0.1396484,-0.453125,0.06174803,-0.382916,-0.04632068,-16.54249,10.19286,0.7646034,-16.89542,9.327632,-0.6196289,-0.4047852,0.7983398,0.02129769,-0.1493817,-3.694863,-21.66884,34.82635,0.205589,-21.8283,34.69285,UP.png
-0.0847168,-0.1376953,-0.4375,-0.3199313,-0.3676488,-0.01578617,-16.55945,10.19326,0.7643824,-17.17076,10.46494,-0.6206055,-0.4099121,0.7949219,0.2045038,-0.01197708,0.2593359,-21.67505,34.82479,0.2092197,-22.11984,34.75636,UP.png
-0.08691406,-0.1335449,-0.4436035,-0.3046641,-0.642458,-0.01578617,-16.56161,10.19309,0.7641614,-16.45865,10.62576,-0.6218262,-0.4042969,0.8105469,-0.1161069,-0.1188473,-0.01547329,-21.67497,34.81606,0.2090031,-21.59124,34.46988,UP.png
-0.08837891,-0.1325684,-0.440918,-0.06038928,-0.3981832,-0.07685494,-16.55972,10.20109,0.7630854,-16.42555,10.866,-0.6252441,-0.3991699,0.7910156,0.2808397,0.09489316,-0.2139466,-21.66958,34.82523,0.2060078,-21.59814,35.20956,UP.png
-0.08862305,-0.1374512,-0.442627,0.1380839,-0.4745191,0.1521528,-16.56533,10.20706,0.7652156,-16.93506,10.82504,-0.6311035,-0.4008789,0.7861328,0.5709161,0.3086336,-0.1223435,-21.66206,34.84439,0.204295,-21.68533,35.57145,UP.png
-0.08447266,-0.1359863,-0.4543457,0.489229,0.2888396,0.1216183,-16.55525,10.20886,0.7669182,-16.39699,10.09931,-0.6257324,-0.4038086,0.7895508,0.05183208,-0.1035802,0.1371985,-21.66496,34.85022,0.2062158,-21.84226,35.20642,UP.png
-0.08642578,-0.1352539,-0.4523926,0.4434273,0.4567786,-0.260061,-16.54537,10.2184,0.7632774,-16.3656,10.37239,-0.640625,-0.4047852,0.7954102,0.02129769,-0.3936565,0.1982672,-21.66377,34.86123,0.2089915,-21.62033,35.67077,UP.png
-0.0871582,-0.1345215,-0.4443359,-0.1825268,-0.1691756,0.1063511,-16.54771,10.22454,0.76466,-16.54594,10.63287,-0.6281738,-0.4084473,0.7897949,0.5861833,-0.08831299,-3.649061,-21.66374,34.86768,0.1615537,-22.03539,35.24045,UP.png
-0.09130859,-0.1367188,-0.4492188,-0.197794,-0.1081069,0.1368854,-16.55161,10.23864,0.7665764,-16.60716,11.00409,-0.6264648,-0.4072266,0.7905273,0.1739695,-0.1341145,0.3662061,-21.66778,34.87177,0.1666806,-21.98545,35.16417,UP.png
-0.08911133,-0.1379395,-0.4455566,-0.3657329,-0.5966565,-0.04632068,-16.56334,10.24201,0.7659279,-16.88708,10.81622,-0.6257324,-0.3950195,0.7900391,-0.222977,-0.1951832,-0.06127481,-21.66554,34.87794,0.1658227,-21.4029,35.31416,UP.png
-0.0859375,-0.1396484,-0.4523926,-0.04512215,-0.1081069,0.3048244,-16.57046,10.24059,0.772634,-16.87073,10.28781,-0.6245117,-0.4023438,0.7890625,-0.03977096,-0.3020534,4.07613,-21.66895,34.87762,0.2554976,-21.79281,35.18725,UP.png
-0.0871582,-0.1401367,-0.4558105,-0.06038928,-0.3523817,0.182687,-16.57594,10.2381,0.7751917,-16.80295,10.35778,-0.6286621,-0.40625,0.7939453,0.3113741,-0.01197708,0.06086259,-21.66847,34.8835,0.2563497,-21.85841,35.18002,UP.png
-0.08447266,-0.1367188,-0.4455566,-0.1367252,-0.5050534,0.1368854,-16.58197,10.23138,0.7772449,-16.77695,10.27323,-0.6228027,-0.4040527,0.7993164,0.2655725,-0.1188473,0.1371985,-21.66598,34.88036,0.2584076,-21.73948,34.81376,UP.png
-0.08837891,-0.1281738,-0.4484863,-0.5642061,-0.4287176,0.03001523,-16.57078,10.23587,0.7776351,-15.66347,10.7289,-0.6235352,-0.3916016,0.8015137,-0.08557248,-0.05777865,0.1524656,-21.65551,34.88107,0.2603897,-21.08804,34.95283,UP.png
-0.08520508,-0.1359863,-0.4421387,-0.1672597,-0.123374,-0.07685494,-16.57792,10.23807,0.7764823,-16.80474,10.43667,-0.628418,-0.3930664,0.7976074,0.2045038,-0.04251146,-0.06127481,-21.64262,34.88782,0.2594706,-21.16121,35.24968,UP.png
-0.08691406,-0.1350098,-0.4404297,0.06174803,-0.2302443,-0.04632068,-16.58028,10.24384,0.7758338,-16.73819,10.6846,-0.6323242,-0.4025879,0.7878418,0.2503054,0.2322977,0.03032825,-21.6409,34.90432,0.2598952,-21.72818,35.5533,UP.png
-0.08447266,-0.1350098,-0.4475098,0.06174803,-0.0470382,0.04528236,-16.57808,10.24319,0.7764678,-16.51277,10.24373,-0.628418,-0.404541,0.7905273,0.128168,-0.2562519,-0.1070763,-21.64293,34.90842,0.2583961,-21.83036,35.28546,UP.png
-0.0871582,-0.1425781,-0.4516602,0.1838853,0.1361679,0.1979542,-16.58842,10.24874,0.7792391,-17.2212,10.42701,-0.6254883,-0.40625,0.7949219,0.2350382,-0.2715191,0.01506107,-21.64449,34.90688,0.258607,-21.8819,35.01733,UP.png
-0.08740234,-0.1342773,-0.4523926,-0.2283282,-0.3523817,-0.06158781,-16.58474,10.24879,0.7783769,-16.24754,10.49306,-0.6320801,-0.4033203,0.7885742,0.5403817,-0.3783893,4.060863,-21.6393,34.9138,0.315459,-21.75585,35.51266,UP.png
-0.08691406,-0.1398926,-0.4458008,-0.01458788,-0.1691756,0.2437558,-16.59562,10.25224,0.7817895,-17.11892,10.5376,-0.6298828,-0.4057617,0.793457,0.1129008,-0.439458,0.2135344,-21.64151,34.91454,0.3184485,-21.82728,35.25228,UP.png
-0.08276367,-0.1369629,-0.440918,-0.2741299,-0.09283972,0.04528236,-16.60702,10.24918,0.7824234,-16.97739,10.16281,-0.6230469,-0.4040527,0.7954102,-0.1924427,0.01855725,-0.06127481,-21.64725,34.91508,0.3175907,-21.79658,34.92905,UP.png
-0.0847168,-0.1320801,-0.4555664,3.603733,-0.5203207,-0.0005190372,-16.54362,10.23959,0.7824162,-15.90959,10.1265,-0.6230469,-0.4038086,0.7841797,0.05183208,0.1864962,0.03032825,-21.65276,34.92406,0.3180152,-21.95826,35.23617,UP.png
-0.09179688,-0.137207,-0.4475098,-0.197794,-0.5203207,0.03001523,-16.54982,10.24958,0.7828364,-16.7175,11.09587,-0.6186523,-0.4099121,0.8015137,-0.03977096,0.003290057,0.09139694,-21.66107,34.91556,0.3192948,-22.04065,34.49684,UP.png
-0.08520508,-0.1318359,-0.4450684,0.06174803,-0.2302443,-0.0005190372,-16.54234,10.24923,0.7828286,-16.22138,10.40136,-0.630127,-0.4023438,0.793457,0.02129769,-0.07304579,-0.1986794,-21.66068,34.92237,0.3163146,-21.65755,35.30981,UP.png
-0.08203125,-0.1359863,-0.4404297,0.2449541,0.227771,-0.2142596,-16.54583,10.24919,0.7798289,-16.88505,10.09089,-0.6213379,-0.4057617,0.7880859,0.6319848,0.07962596,-0.4429542,-21.65909,34.9256,0.3101132,-22.01451,35.02892,UP.png
-0.08666992,-0.1416016,-0.4489746,0.2754886,0.2735725,0.1063511,-16.55526,10.25658,0.7813178,-17.20627,10.43138,-0.6313477,-0.4055176,0.7839355,0.2045038,-0.1951832,0.183,-21.66197,34.93595,0.3126752,-21.94334,35.57687,UP.png
-0.08666992,-0.137207,-0.4492188,0.0922823,0.2888396,-0.07685494,-16.55677,10.26451,0.7802419,-16.6942,10.45461,-0.6186523,-0.409668,0.7941895,-0.222977,-0.4699924,0.2593359,-21.67465,34.92467,0.3163059,-22.14322,34.69469,UP.png
-0.08764648,-0.1357422,-0.4394531,-0.4878702,-0.5661222,0.3811603,-16.56939,10.26723,0.7855781,-16.85275,10.78897,-0.6230469,-0.4072266,0.7961426,-0.02450383,-0.3020534,0.1219313,-21.6803,34.91935,0.318013,-21.94025,34.86602,UP.png
-0.08642578,-0.1318359,-0.4348145,-0.4420686,-0.7340611,0.091084,-16.5753,10.26721,0.7868533,-16.56158,10.76979,-0.6306152,-0.4057617,0.7922363,0.1739695,0.1254275,-3.725397,-21.68105,34.92902,0.2658574,-21.83704,35.31664,UP.png
-0.08764648,-0.1342773,-0.4389648,-0.197794,-0.5355878,-0.06158781,-16.58046,10.27071,0.785991,-16.6979,10.80955,-0.6328125,-0.4030762,0.7954102,0.06709921,0.09489316,-0.2750153,-21.67913,34.93898,0.2620072,-21.63134,35.36185,UP.png
-0.08300781,-0.1364746,-0.4316406,0.0922823,-0.2302443,-0.07685494,-16.59257,10.26994,0.784915,-17.24891,10.39038,-0.6262207,-0.40625,0.7939453,0.5403817,0.3697023,-0.01547329,-21.6759,34.94677,0.2617906,-21.88805,35.0751,UP.png
-0.08398438,-0.137207,-0.4482422,0.7182367,0.319374,-0.5196033,-16.58576,10.27207,0.7776406,-16.74469,10.15726,-0.6318359,-0.4052734,0.7966309,0.08236647,0.1406947,0.03032825,-21.67588,34.95491,0.2622152,-21.73153,35.25705,UP.png
-0.09008789,-0.1357422,-0.4597168,0.1228168,0.04456491,0.091084,-16.57555,10.28012,0.7789158,-16.15959,10.64412,-0.619873,-0.4150391,0.7915039,-0.02450383,-0.179916,-3.725397,-21.69135,34.94823,0.2100596,-22.4324,34.74469,UP.png
-0.08666992,-0.1381836,-0.4523926,0.1075497,0.227771,-0.1531909,-16.57654,10.2853,0.7767711,-16.69897,10.38282,-0.6269531,-0.3916016,0.7873535,0.3113741,-0.179916,0.3051374,-21.67845,34.95655,0.2143315,-21.26009,35.48749,UP.png
-0.07958984,-0.1401367,-0.4443359,0.04648089,-0.1539084,-0.04632068,-16.58931,10.27136,0.7761226,-17.24663,9.694058,-0.6223145,-0.4067383,0.7856445,0.2961069,0.04909158,0.2135344,-21.68259,34.96057,0.217321,-22.08848,35.12362,UP.png
-0.08740234,-0.1350098,-0.4436035,-0.4115343,-0.3523817,0.07581687,-16.59569,10.27459,0.777184,-16.62599,10.67453,-0.6223145,-0.4030762,0.7956543,-0.1161069,0.09489316,0.1982672,-21.68561,34.96074,0.2200968,-21.75389,34.90417,UP.png
-0.07983398,-0.1342773,-0.4404297,-0.4115343,-0.4287176,-0.0005190372,-16.60339,10.25995,0.7771768,-16.69869,9.836425,-0.6308594,-0.4033203,0.7927246,-0.009236574,0.171229,-0.1223435,-21.68618,34.97083,0.218384,-21.70752,35.34761,UP.png
-0.08691406,-0.1274414,-0.4458008,-0.09092379,-0.5355878,0.1368854,-16.58613,10.25922,0.77923,-15.67348,10.61703,-0.6289063,-0.4042969,0.7910156,0.1892367,-0.02724427,-0.06127481,-21.68577,34.97694,0.2174648,-21.805,35.29661,UP.png
-0.08227539,-0.1325684,-0.440918,0.07701516,-0.123374,0.0147481,-16.58266,10.25497,0.7794365,-16.46572,10.13169,-0.6340332,-0.404541,0.7834473,-0.03977096,-0.1188473,0.01506107,-21.69,34.99015,0.2176757,-21.86978,35.71919,UP.png
-0.08447266,-0.1337891,-0.4455566,0.4128931,0.1209008,-0.0005190372,-16.57409,10.25737,0.7794292,-16.43704,10.29162,-0.6279297,-0.4035645,0.7893066,0.1434351,0.03382444,-0.09180916,-21.69037,34.99704,0.2163903,-21.80725,35.3111,UP.png
-0.08642578,-0.1320801,-0.449707,0.2602212,0.4415114,0.1063511,-16.56081,10.26723,0.7809181,-16.08885,10.44764,-0.6276855,-0.401123,0.7756348,0.4640458,-0.1035802,0.04559542,-21.68821,35.00986,0.2170287,-21.90056,35.7093,UP.png
-0.08447266,-0.1401367,-0.4433594,0.2144198,0.3957099,-0.2295268,-16.57164,10.27324,0.7777048,-17.24925,10.29661,-0.6311035,-0.4089355,0.7939453,0.4335115,-0.2867863,0.3051374,-21.68769,35.01068,0.2213006,-21.9594,35.24755,UP.png
-0.0859375,-0.1452637,-0.4511719,-0.2435954,-0.1844428,0.03001523,-16.59457,10.27078,0.778125,-17.55129,10.27667,-0.6264648,-0.4055176,0.7888184,0.00603056,-0.2715191,0.1524656,-21.69242,35.01142,0.2234351,-21.92829,35.2341,UP.png
-0.08349609,-0.1384277,-0.4436035,-0.3199313,-0.5355878,-0.1226563,-16.60805,10.26174,0.7764078,-17.04909,10.18607,-0.6247559,-0.4106445,0.7963867,0.2961069,-0.08831299,0.1219313,-21.69615,35.00771,0.2251422,-22.08212,34.88624,UP.png
-0.08251953,-0.1311035,-0.4436035,-0.01458788,-0.1997099,-0.07685494,-16.60012,10.25606,0.7753318,-16.20163,10.11477,-0.625,-0.4033203,0.7885742,-0.1771755,0.1559618,0.07612977,-21.7015,35.01385,0.226208,-21.8423,35.20806,UP.png
-0.0871582,-0.1323242,-0.4331055,0.03121376,-0.550855,-0.0005190372,-16.60117,10.26126,0.7753245,-16.67398,10.89383,-0.6247559,-0.4030762,0.7966309,0.02129769,0.003290057,-0.0002061129,-21.70137,35.01329,0.2262051,-21.70957,34.98324,UP.png
-0.08105469,-0.1342773,-0.4465332,0.1380839,-0.1386412,0.06054974,-16.59676,10.25122,0.7762328,-16.48221,9.861218,-0.628418,-0.401123,0.7814941,0.08236647,0.1864962,0.03032825,-21.70216,35.02735,0.22666,-21.80122,35.57957,UP.png
-0.08496094,-0.1403809,-0.4455566,0.3060229,-0.2149771,-0.1073892,-16.60457,10.2494,0.7747293,-17.19688,10.3078,-0.6235352,-0.4047852,0.7919922,0.2655725,0.1254275,-0.03074045,-21.70206,35.02917,0.2262296,-21.8792,35.0321,UP.png
-0.08691406,-0.137207,-0.4533691,0.3976259,0.2430381,-0.1226563,-16.59809,10.2557,0.7730121,-16.55333,10.39745,-0.6240234,-0.4033203,0.7937012,-0.08557248,0.06435877,0.2898702,-21.7047,35.03001,0.2302878,-21.77526,35.02723,UP.png
-0.08569336,-0.1364746,-0.4501953,0.04648089,-0.3371145,-0.09212208,-16.59715,10.25244,0.7717224,-16.58345,10.32386,-0.6230469,-0.4020996,0.7915039,0.02129769,-0.2409847,0.2440687,-21.70553,35.02733,0.2337048,-21.76105,35.06114,UP.png
-0.0859375,-0.1357422,-0.4450684,-0.04512215,-0.2760458,0.1216183,-16.59925,10.25288,0.7734251,-16.67088,10.46401,-0.6210938,-0.4099121,0.7910156,-0.02450383,-0.07304579,0.3356718,-21.71526,35.02341,0.2384042,-22.17496,34.88188,UP.png
-0.08422852,-0.1323242,-0.4470215,-0.3351984,-0.1539084,0.1063511,-16.59625,10.25054,0.774914,-16.21942,10.24128,-0.6306152,-0.3996582,0.7902832,-0.1008396,0.01855725,0.03032825,-21.7137,35.03228,0.2388288,-21.56839,35.45402,UP.png
-0.0859375,-0.1330566,-0.4448242,-0.5336719,-0.6577252,0.2742901,-16.59899,10.24623,0.778754,-16.36705,10.48627,-0.6357422,-0.4023438,0.7902832,0.2350382,0.2017633,-0.1986794,-21.70896,35.04713,0.2360473,-21.63766,35.6363,UP.png
-0.09008789,-0.1359863,-0.4465332,0.1075497,0.05983204,-0.2295268,-16.59797,10.2606,0.7755407,-16.62159,10.92368,-0.6279297,-0.4047852,0.7861328,0.00603056,0.09489316,0.1219313,-21.71301,35.05509,0.2377543,-21.91583,35.38031,UP.png
-0.08959961,-0.1352539,-0.4484863,-0.1672597,-0.07757253,0.1216183,-16.5978,10.27089,0.7772434,-16.47477,10.82837,-0.6293945,-0.4057617,0.7924805,-0.1161069,-0.1035802,0.03032825,-21.71731,35.05772,0.2381789,-21.84815,35.25769,UP.png
-0.08300781,-0.1352539,-0.4470215,0.229687,-0.2455115,-0.01578617,-16.59402,10.26367,0.7770224,-16.56677,10.07814,-0.6269531,-0.4042969,0.7978516,0.1434351,-0.1188473,0.04559542,-21.71548,35.0555,0.2388172,-21.7241,35.02834,UP.png
-0.08666992,-0.1391602,-0.4418945,0.1838853,0.319374,-0.1379237,-16.60307,10.2747,0.7750914,-17.17268,10.59616,-0.6257324,-0.4069824,0.7941895,0.3419085,-0.2257175,0.1524656,-21.71499,35.05205,0.2409518,-21.92594,35.03745,UP.png
-0.08984375,-0.1364746,-0.4394531,-0.1061909,-0.4592519,0.1063511,-16.61093,10.28386,0.7765803,-16.92301,11.04778,-0.6286621,-0.4084473,0.7790527,-0.1161069,-0.02724427,-3.71013,-21.72621,35.06169,0.1890099,-22.196,35.55292,UP.png
-0.08251953,-0.1340332,-0.4416504,-0.2741299,-0.3676488,0.03001523,-16.61469,10.27588,0.7770005,-16.61089,10.13688,-0.6223145,-0.4123535,0.8010254,-0.1619084,-0.01197708,4.060863,-21.73636,35.05299,0.245862,-22.12261,34.63461,UP.png
-0.08569336,-0.1325684,-0.4423828,-0.1672597,-0.3371145,-0.0310533,-16.61257,10.27597,0.7765658,-16.39389,10.51202,-0.640625,-0.4003906,0.7819824,0.2350382,0.2017633,-0.1070763,-21.73055,35.07669,0.2443629,-21.60741,36.09967,UP.png
-0.08959961,-0.1335449,-0.4411621,-0.1367252,-0.9478015,0.350626,-16.61252,10.27839,0.7811239,-16.52326,11.00042,-0.6279297,-0.4035645,0.7919922,0.2350382,0.2170305,-0.2444809,-21.72827,35.08269,0.2411847,-21.76612,35.23831,UP.png
-0.08911133,-0.1396484,-0.4482422,0.5044961,0.3346412,-0.04632068,-16.61318,10.29235,0.7804754,-16.99142,10.74711,-0.6362305,-0.4042969,0.7841797,0.08236647,0.04909158,-0.0002061129,-21.72896,35.09764,0.2411818,-21.81954,35.79658,UP.png
-0.07958984,-0.1391602,-0.4411621,0.489229,0.3499084,-0.06158781,-16.61912,10.28655,0.7796132,-17.24583,9.762311,-0.6384277,-0.4064941,0.7861328,0.3266413,-0.179916,0.07612977,-21.7273,35.10934,0.2422476,-21.87003,35.8059,UP.png
-0.08837891,-0.1408691,-0.449707,0.2144198,0.1209008,-0.1531909,-16.62551,10.29492,0.7774685,-17.0857,10.62186,-0.6245117,-0.4128418,0.7893066,0.00603056,-0.2562519,0.1524656,-21.73872,35.10432,0.2443821,-22.30247,35.03447,UP.png
-0.08227539,-0.1398926,-0.4504395,-0.01458788,-0.2607787,0.1979542,-16.63297,10.28334,0.7802399,-16.98867,9.89494,-0.6257324,-0.4020996,0.8027344,0.128168,-0.179916,0.09139694,-21.73334,35.09727,0.2456617,-21.55729,34.87466,UP.png
-0.08300781,-0.1325684,-0.439209,-0.04512215,-0.550855,-0.2753282,-16.63132,10.27523,0.7763853,-16.51952,10.25567,-0.6201172,-0.4055176,0.786377,0.4029771,-0.04251146,-0.1070763,-21.73402,35.09525,0.2441626,-22.04421,35.02556,UP.png
-0.08862305,-0.1328125,-0.4423828,-0.1825268,-0.2149771,0.1979542,-16.62926,10.284,0.7791567,-16.40295,10.86138,-0.6298828,-0.4064941,0.7822266,-0.1924427,0.2170305,4.07613,-21.7427,35.10726,0.3012284,-22.0357,35.54672,UP.png
-0.08642578,-0.1306152,-0.4379883,-0.07565641,-0.382916,0.2284887,-16.62388,10.28723,0.7823555,-16.30814,10.70792,-0.6279297,-0.4003906,0.7980957,-0.2535114,-0.07304579,-0.09180916,-21.74169,35.10645,0.2999431,-21.51818,35.11672,UP.png
-0.08178711,-0.1342773,-0.4445801,0.0006792545,-0.0470382,-0.168458,-16.62227,10.28059,0.7799971,-16.5439,9.987808,-0.6289063,-0.4052734,0.7836914,0.2503054,-0.04251146,0.03032825,-21.74273,35.11338,0.3003677,-21.96535,35.48199,UP.png
-0.08789063,-0.1347656,-0.4475098,0.2754886,0.2430381,-4.21426,-16.61502,10.29156,0.7167832,-16.46243,10.65049,-0.6296387,-0.4072266,0.7861328,0.3419085,-0.01197708,-0.0002061129,-21.74313,35.11932,0.3003646,-22.01427,35.41959,UP.png
-0.08642578,-0.1369629,-0.4443359,0.2144198,-0.001236677,-0.0005190372,-16.61478,10.2963,0.7167718,-16.83431,10.52971,-0.6257324,-0.4050293,0.7905273,0.0976336,-0.1951832,-0.07654199,-21.7439,35.11599,0.2986807,-21.88699,35.16308,UP.png
-0.08178711,-0.1325684,-0.4460449,-0.2283282,-0.2302443,0.1674199,-16.61153,10.28659,0.7191157,-16.29548,9.968611,-0.6276855,-0.4050293,0.7907715,0.05183208,-0.02724427,-0.1376107,-21.7455,35.11811,0.2967542,-21.85941,35.24059,UP.png
-0.08544922,-0.1337891,-0.4455566,-0.1825268,-0.3218473,0.04528236,-16.61042,10.2846,0.7197496,-16.43077,10.40801,-0.628418,-0.4042969,0.7836914,0.1587023,0.2017633,-0.2292137,-21.74688,35.12801,0.2935452,-21.92348,35.47472,UP.png
-0.0847168,-0.1350098,-0.4501953,0.3060229,0.1361679,-0.2142596,-16.60244,10.28513,0.71675,-16.42124,10.21769,-0.6259766,-0.4016113,0.7885742,0.6014504,0.1406947,0.07612977,-21.73862,35.13285,0.294611,-21.74651,35.27391,UP.png
-0.0925293,-0.1403809,-0.442627,0.32129,0.2430381,0.1216183,-16.61091,10.30815,0.7184526,-17.2466,11.26939,-0.6259766,-0.4052734,0.7902832,0.00603056,-0.1341145,0.1219313,-21.74176,35.1319,0.296318,-21.89972,35.17683,UP.png
-0.08764648,-0.1381836,-0.4467773,-0.1672597,-0.07757253,0.1674199,-16.61866,10.31322,0.7207965,-16.88329,10.61498,-0.6296387,-0.4052734,0.7849121,0.1587023,-0.2562519,4.015061,-21.7435,35.13535,0.3525289,-21.93749,35.48025,UP.png
-0.08642578,-0.140625,-0.4460449,-0.01458788,-0.3523817,-0.2295268,-16.63044,10.31152,0.7175832,-17.19805,10.4698,-0.6252441,-0.4123535,0.7971191,0.219771,-0.05777865,0.1524656,-21.74857,35.12914,0.3546634,-22.14779,34.86423,UP.png
-0.08374023,-0.1342773,-0.4472656,-0.4726033,-0.7187939,0.07581687,-16.63314,10.29875,0.7186446,-16.44085,10.16624,-0.6289063,-0.4030762,0.7871094,0.00603056,-0.1646488,0.1677328,-21.74961,35.13269,0.3570117,-21.80507,35.41966,UP.png
-0.08251953,-0.1376953,-0.4418945,-0.5184045,-0.7645955,0.07581687,-16.64819,10.28446,0.7197061,-17.0302,10.10879,-0.6240234,-0.4042969,0.8081055,-0.1008396,0.2475649,-0.1223435,-21.74806,35.12601,0.3552989,-21.60265,34.62888,UP.png
-0.08569336,-0.1379395,-0.4421387,0.06174803,-0.031771,0.1979542,-16.65496,10.28798,0.7224774,-17.02892,10.48234,-0.6228027,-0.40625,0.7841797,0.3113741,0.01855725,-0.01547329,-21.75045,35.12757,0.3550822,-22.08132,35.19133,UP.png
-0.0871582,-0.1357422,-0.4516602,0.07701516,-0.1539084,-0.07685494,-16.64963,10.28952,0.7214015,-16.44113,10.47053,-0.6262207,-0.3945313,0.7885742,0.02129769,0.1864962,-0.04600763,-21.74305,35.13522,0.3544381,-21.39514,35.38208,UP.png
-0.08911133,-0.1359863,-0.4489746,0.3976259,0.2430381,-0.07685494,-16.6421,10.30218,0.7203255,-16.546,10.75551,-0.6279297,-0.407959,0.7937012,0.0976336,-0.1035802,0.1524656,-21.74594,35.13373,0.3565727,-21.95433,35.13157,UP.png
-0.08007813,-0.1394043,-0.447998,0.1533511,0.1209008,0.1368854,-16.64762,10.29162,0.7223787,-17.0307,9.685599,-0.6108398,-0.4006348,0.7854004,0.5403817,-0.179916,0.06086259,-21.74173,35.1227,0.3574856,-21.93254,34.7147,UP.png
-0.08935547,-0.1357422,-0.4443359,0.1686182,-0.031771,-0.09212208,-16.64597,10.30312,0.7211812,-16.67288,10.88646,-0.6225586,-0.4069824,0.7849121,0.38771,-0.179916,0.2593359,-21.74413,35.12097,0.360857,-22.10888,35.1506,UP.png
-0.08569336,-0.1437988,-0.449707,-0.2435954,-0.1539084,0.1063511,-16.66516,10.30069,0.7226701,-17.43798,10.28723,-0.6333008,-0.4047852,0.7976074,-0.2382443,-0.2562519,-3.725397,-21.74603,35.12103,0.3087014,-21.67539,35.29998,UP.png
-0.08666992,-0.1367188,-0.435791,-0.4726033,-0.5813893,0.182687,-16.6804,10.30159,0.7252277,-17.10309,10.74471,-0.6264648,-0.4018555,0.7868652,0.1587023,-0.08831299,-0.04600763,-21.7445,35.12416,0.3080573,-21.77878,35.33812,UP.png
-0.08618164,-0.1350098,-0.4448242,-0.2283282,-0.3371145,-0.04632068,-16.68178,10.30099,0.7245792,-16.59257,10.50294,-0.621582,-0.4084473,0.7905273,0.0976336,-0.02724427,0.01506107,-21.75037,35.12003,0.3082681,-22.10499,34.93644,UP.png
-0.08886719,-0.1401367,-0.4389648,0.04648089,-0.2149771,0.06054974,-16.695,10.31034,0.7254269,-17.37469,10.91592,-0.6279297,-0.401123,0.7929688,-0.05503809,0.003290057,-0.2444809,-21.74875,35.12258,0.3048454,-21.63178,35.24543,UP.png
-0.09033203,-0.1298828,-0.4465332,0.3823588,-0.1081069,-0.1531909,-16.67373,10.3224,0.723129,-15.91255,10.99259,-0.6345215,-0.3991699,0.7814941,0.3571756,0.04909158,-0.2292137,-21.74113,35.13824,0.3014072,-21.6299,35.86962,UP.png
-0.0847168,-0.1333008,-0.4541016,0.4586947,0.2888396,-0.1226563,-16.65589,10.32289,0.7214118,-16.09653,10.1488,-0.626709,-0.4091797,0.7729492,0.3266413,-0.02724427,0.1066641,-21.74887,35.14761,0.3029005,-22.35229,35.62494,UP.png
-0.0859375,-0.1435547,-0.4453125,0.2144198,0.1361679,0.07581687,-16.67111,10.32645,0.7224732,-17.56405,10.40777,-0.6296387,-0.4052734,0.7929688,-0.2077099,-0.2562519,-3.679595,-21.75302,35.14637,0.2513862,-21.8139,35.26172,UP.png
-0.09082031,-0.1367188,-0.4406738,-0.09092379,-0.031771,-0.06158781,-16.67689,10.34223,0.7216726,-16.90209,11.13565,-0.6213379,-0.4084473,0.7897949,0.2503054,-0.1951832,0.1982672,-21.75716,35.13987,0.2539637,-22.11943,34.94555,UP.png
-0.08154297,-0.1364746,-0.4484863,-0.381,-0.5355878,0.1216183,-16.6823,10.32486,0.7234969,-16.66728,9.867473,-0.6279297,-0.4047852,0.7990723,0.3571756,-0.02724427,0.04559542,-21.75112,35.13729,0.2546476,-21.71756,35.03085,UP.png
-0.08447266,-0.1330566,-0.4223633,-0.2435954,-0.5203207,0.1674199,-16.69532,10.32723,0.7258408,-17.16651,10.79989,-0.6254883,-0.3969727,0.7929688,-0.02450383,0.1101603,-0.07654199,-21.74558,35.14,0.253576,-21.45754,35.19701,UP.png
-0.08813477,-0.1340332,-0.4458008,0.0006792545,-0.4134504,0.091084,-16.69007,10.32942,0.7271159,-16.43334,10.72079,-0.6269531,-0.4008789,0.7929688,-0.131374,0.171229,-0.1223435,-21.7451,35.14368,0.2518632,-21.63159,35.20676,UP.png
-0.0871582,-0.1352539,-0.4482422,0.04648089,-0.1386412,0.1216183,-16.68562,10.33184,0.7288186,-16.49905,10.54516,-0.6240234,-0.4033203,0.7878418,0.3113741,-0.1035802,-3.725397,-21.74324,35.1431,0.1997076,-21.86553,35.18573,UP.png
-0.08300781,-0.1335449,-0.4475098,0.4739618,0.09036642,-0.01578617,-16.67291,10.32792,0.7286134,-16.35237,10.07865,-0.6291504,-0.4060059,0.7919922,0.1434351,-0.1646488,4.045595,-21.74396,35.14328,0.2523004,-21.87052,35.25702,UP.png
-0.08764648,-0.1376953,-0.4501953,0.07701516,0.3346412,0.04528236,-16.67262,10.33688,0.7292473,-16.71082,10.54614,-0.626709,-0.4040527,0.7888184,0.5098474,-0.3173206,0.06086259,-21.73915,35.14136,0.2531525,-21.85356,35.265,UP.png
-0.08569336,-0.1328125,-0.4484863,-0.01458788,-0.3065802,0.1368854,-16.66374,10.33327,0.7313006,-16.21828,10.3819,-0.6213379,-0.40625,0.7792969,0.6930535,0.04909158,-0.04600763,-21.73771,35.14446,0.2524624,-22.17604,35.26052,UP.png
-0.08398438,-0.1352539,-0.4536133,0.07701516,-0.031771,-0.06158781,-16.65622,10.3274,0.7304383,-16.34047,10.06107,-0.621582,-0.411377,0.7929688,-0.1924427,-0.2562519,4.07613,-21.74979,35.13467,0.3095282,-22.20985,34.83046,UP.png
-0.08056641,-0.1342773,-0.4431152,-0.5184045,-0.5966565,0.06054974,-16.66224,10.31008,0.731286,-16.60155,9.870889,-0.6235352,-0.4042969,0.8012695,-0.1008396,-0.04251146,0.06086259,-21.75043,35.12719,0.3103802,-21.71271,34.7898,UP.png
-0.08764648,-0.1340332,-0.4438477,-0.2741299,-0.4592519,0.4116948,-16.66281,10.31167,0.7370498,-16.50241,10.70478,-0.6293945,-0.4057617,0.7963867,0.4182443,0.03382444,0.1982672,-21.74545,35.12816,0.313156,-21.78843,35.15244,UP.png
-0.08447266,-0.1359863,-0.4387207,0.1228168,0.1972366,-0.1531909,-16.66644,10.31656,0.7349051,-16.9287,10.42088,-0.6333008,-0.4025879,0.7963867,0.219771,-0.01197708,-0.1986794,-21.73927,35.13269,0.3103745,-21.58695,35.36298,UP.png
-0.08520508,-0.1342773,-0.4475098,0.04648089,0.01403052,-0.0005190372,-16.66094,10.31713,0.7348978,-16.42338,10.33521,-0.6269531,-0.3972168,0.7902832,0.06709921,-0.1035802,-0.04600763,-21.73341,35.13522,0.3097303,-21.4927,35.33006,UP.png
-0.09155273,-0.1376953,-0.4526367,0.2144198,0.2888396,0.06054974,-16.65684,10.33379,0.7357455,-16.60295,10.95192,-0.6271973,-0.4047852,0.7873535,0.3571756,0.04909158,0.04559542,-21.73196,35.1395,0.3103687,-21.90602,35.31559,UP.png
-0.0871582,-0.1367188,-0.4511719,0.1533511,0.02929771,0.2132213,-16.65283,10.33703,0.7389438,-16.56929,10.47455,-0.6271973,-0.4130859,0.7910156,0.1434351,-0.179916,0.2898702,-21.7403,35.13608,0.3147167,-22.25438,35.10089,UP.png
-0.08618164,-0.137207,-0.4555664,-0.09092379,0.1667023,0.1063511,-16.65063,10.33776,0.7403264,-16.48508,10.2671,-0.6123047,-0.4035645,0.7927246,-0.05503809,-0.3020534,4.07613,-21.74508,35.12033,0.3677064,-21.94423,34.54121,UP.png
-0.09301758,-0.1374512,-0.4411621,-0.2588627,-0.3218473,-0.0310533,-16.66026,10.35422,0.7398916,-16.95454,11.38167,-0.628418,-0.4047852,0.7836914,0.3113741,-0.1035802,0.03032825,-21.74486,35.12586,0.368131,-21.94744,35.46784,UP.png
-0.08813477,-0.1325684,-0.4453125,-0.1214581,-0.3523817,0.03001523,-16.65432,10.35712,0.7403119,-16.27953,10.7408,-0.6269531,-0.4055176,0.7856445,0.1739695,0.09489316,0.2440687,-21.747,35.13147,0.371548,-21.9713,35.34124,UP.png
-0.08447266,-0.1315918,-0.4458008,-0.04512215,-0.07757253,0.1521528,-16.64531,10.35491,0.742442,-16.17322,10.30013,-0.611084,-0.407959,0.7971191,-0.07030535,0.262832,-0.09180916,-21.75514,35.11867,0.3702626,-22.10557,34.31091,UP.png
-0.08398438,-0.1335449,-0.4433594,0.0922823,-0.2302443,0.2132213,-16.64077,10.35004,0.7456403,-16.48604,10.28042,-0.625,-0.3999023,0.7880859,0.2961069,0.1101603,-0.0002061129,-21.74932,35.12329,0.3702595,-21.68189,35.26869,UP.png
-0.08154297,-0.1328125,-0.4436035,0.6877022,0.2735725,-0.3058627,-16.62667,10.34653,0.7413583,-16.40765,9.987189,-0.6257324,-0.4013672,0.7822266,0.5251145,-0.1646488,-0.1223435,-21.74383,35.12737,0.3685467,-21.83512,35.44003,UP.png
-0.08789063,-0.140625,-0.4492188,0.489229,0.1972366,-0.0310533,-16.62947,10.35364,0.7409546,-17.07793,10.57632,-0.6218262,-0.3996582,0.7839355,-0.03977096,-0.1951832,0.06086259,-21.74491,35.12729,0.369338,-21.77246,35.24788,UP.png
-0.08569336,-0.1347656,-0.4484863,0.07701516,0.1819695,0.06054974,-16.62463,10.35664,0.7418628,-16.44399,10.3698,-0.6159668,-0.4020996,0.7939453,0.2350382,-0.3325878,0.06086259,-21.74274,35.11362,0.3702509,-21.80886,34.68814,UP.png
-0.08984375,-0.1359863,-0.4506836,-0.2588627,-0.06230533,0.2284887,-16.62537,10.36475,0.7450617,-16.48406,10.80504,-0.6184082,-0.4091797,0.7885742,0.3419085,-0.2257175,0.183,-21.7474,35.10507,0.3728129,-22.21055,34.84108,UP.png
-0.08398438,-0.1362305,-0.4421387,-0.1061909,-0.2760458,-0.09212208,-16.63114,10.35945,0.743772,-16.8413,10.2888,-0.6228027,-0.40625,0.7883301,-0.1771755,-0.01197708,0.2898702,-21.75521,35.10439,0.3768711,-22.01666,35.07898,UP.png
-0.08203125,-0.1357422,-0.4445801,-0.2435954,-0.4897862,0.3353589,-16.63612,10.3457,0.748467,-16.71282,10.00803,-0.6254883,-0.4033203,0.8005371,-0.1161069,-0.1493817,-0.04600763,-21.75476,35.09838,0.3762269,-21.65306,34.90659,UP.png
-0.07885742,-0.1330566,-0.4492188,-0.1214581,-0.3676488,-0.0310533,-16.63034,10.32483,0.7480322,-16.2638,9.554208,-0.6259766,-0.4035645,0.784668,0.2808397,-0.01197708,0.01506107,-21.75387,35.10331,0.3764378,-21.90257,35.35305,UP.png
-0.08935547,-0.1306152,-0.4462891,0.2449541,0.1972366,-0.1379237,-16.61461,10.33858,0.7461013,-16.0121,10.87727,-0.6264648,-0.4023438,0.7939453,0.128168,-0.2104504,-0.0002061129,-21.75092,35.10114,0.3764349,-21.69427,35.13924,UP.png
-0.08862305,-0.1381836,-0.4526367,0.1686182,0.1972366,0.07581687,-16.61357,10.34664,0.7471627,-16.67808,10.60642,-0.6323242,-0.4050293,0.7858887,0.2045038,-0.2562519,-0.06127481,-21.75064,35.10706,0.3755771,-21.87744,35.57239,UP.png
-0.08862305,-0.135498,-0.449707,0.1838853,0.1667023,0.03001523,-16.60814,10.35571,0.7475829,-16.46859,10.68548,-0.6223145,-0.4008789,0.784668,0.5098474,-0.1188473,0.2135344,-21.74494,35.10793,0.3785665,-21.81539,35.23206,UP.png
-0.08740234,-0.1379395,-0.4506836,0.2602212,0.09036642,0.06054974,-16.60689,10.35995,0.7484306,-16.72389,10.50567,-0.625,-0.4072266,0.7949219,0.03656495,-0.347855,0.2898702,-21.74825,35.10065,0.3826247,-21.93544,34.9829,UP.png
-0.08422852,-0.1359863,-0.4475098,-0.3657329,-0.382916,-0.0005190372,-16.61231,10.35167,0.7484233,-16.6272,10.2087,-0.6325684,-0.4038086,0.7897949,-0.07030535,-0.2409847,0.04559542,-21.74935,35.1052,0.3832631,-21.75517,35.49357,UP.png
-0.08618164,-0.1345215,-0.4431152,-0.3962674,-0.3676488,0.3964274,-16.61738,10.35044,0.7539733,-16.59392,10.54234,-0.6213379,-0.3999023,0.7827148,0.3113741,-0.07304579,-0.09180916,-21.74628,35.10723,0.3819777,-21.8094,35.25665,UP.png
-0.08935547,-0.1376953,-0.4404297,-0.1519923,-0.5355878,0.2895572,-16.62782,10.35526,0.7580271,-17.03487,10.9591,-0.6237793,-0.4089355,0.7888184,-0.02450383,0.003290057,0.1219313,-21.75426,35.10654,0.3836848,-22.1285,35.07059,UP.png
-0.08251953,-0.1350098,-0.4509277,-0.2741299,-0.7035267,0.03001523,-16.62723,10.33738,0.7584473,-16.41042,9.943501,-0.6269531,-0.4025879,0.7949219,0.05183208,0.01855725,-0.1376107,-21.75218,35.10727,0.3817582,-21.68542,35.13054,UP.png
-0.08666992,-0.1352539,-0.4560547,0.2602212,-0.031771,0.07581687,-16.61574,10.33668,0.7595845,-16.24397,10.32596,-0.6333008,-0.4091797,0.7897949,0.3724428,0.06435877,0.06086259,-21.75182,35.11507,0.3826712,-22.00803,35.44998,UP.png
-0.08691406,-0.1428223,-0.4470215,0.1838853,0.02929771,-0.0310533,-16.62916,10.3402,0.7591498,-17.41271,10.49264,-0.628418,-0.4042969,0.7827148,0.2961069,-0.1035802,0.06086259,-21.75149,35.12138,0.3835233,-21.93854,35.50138,UP.png
-0.08496094,-0.1445313,-0.4526367,0.3518243,-0.07757253,0.07581687,-16.64021,10.33509,0.7602112,-17.42337,10.1378,-0.6237793,-0.4013672,0.7966309,0.1739695,-0.2409847,0.1524656,-21.74683,35.11494,0.3856578,-21.63772,34.96437,UP.png
-0.07910156,-0.1335449,-0.4433594,0.03121376,0.2125039,-0.1531909,-16.63731,10.32519,0.7580666,-16.51661,9.694406,-0.6242676,-0.4074707,0.7844238,0.1892367,-0.2715191,-3.725397,-21.75168,35.11353,0.3335022,-22.11926,35.23094,UP.png
-0.08618164,-0.1420898,-0.4472656,-0.3046641,-0.123374,0.3048244,-16.65525,10.32511,0.7623341,-17.32518,10.40593,-0.6240234,-0.4145508,0.8100586,-0.08557248,-0.1646488,0.1371985,-21.75919,35.09782,0.335423,-22.06815,34.44084,UP.png
-0.08569336,-0.1367188,-0.4445801,-0.5184045,-0.6882596,0.1521528,-16.66531,10.31795,0.7644642,-16.80248,10.4389,-0.6208496,-0.4038086,0.7849121,-0.08557248,-0.179916,0.1677328,-21.76466,35.09582,0.3377713,-21.97396,35.12093,UP.png
-0.08154297,-0.1394043,-0.4501953,0.2144198,0.3957099,-0.260061,-16.66629,10.31644,0.7587429,-16.94572,9.816284,-0.6286621,-0.3994141,0.7871094,-0.1924427,-0.1646488,0.04559542,-21.76608,35.09955,0.3387744,-21.62829,35.46011,UP.png
-0.09130859,-0.1345215,-0.4379883,-0.2130611,-0.3371145,-0.0005190372,-16.67058,10.3309,0.7587356,-16.73449,11.27054,-0.6264648,-0.4089355,0.7937012,0.128168,-0.179916,0.3356718,-21.76939,35.0962,0.3434738,-22.01974,35.05513,UP.png
-0.08154297,-0.1330566,-0.4453125,-0.3199313,-0.4745191,0.2742901,-16.66913,10.3168,0.7625757,-16.37843,9.951236,-0.6308594,-0.4013672,0.7893066,0.3113741,-0.05777865,0.2440687,-21.76301,35.10283,0.3468907,-21.66398,35.46749,UP.png
-0.08325195,-0.1296387,-0.4411621,-0.3657329,-0.4745191,-0.06158781,-16.66254,10.30967,0.761775,-16.10663,10.26252,-0.6228027,-0.4035645,0.7937012,0.02129769,0.04909158,0.01506107,-21.76352,35.10082,0.3470865,-21.80196,34.97117,UP.png
-0.08837891,-0.1369629,-0.4401855,0.03121376,0.07509923,0.06054974,-16.66813,10.32163,0.7626833,-16.96486,10.85254,-0.628418,-0.4018555,0.7946777,0.02129769,0.03382444,-0.1070763,-21.76065,35.1035,0.3454804,-21.63573,35.2101,UP.png
-0.08935547,-0.1357422,-0.4465332,-0.1672597,-0.4897862,-0.1226563,-16.66903,10.32525,0.7609661,-16.59835,10.83859,-0.6262207,-0.3989258,0.7844238,0.3419085,0.2475649,-0.03074045,-21.75425,35.11354,0.34505,-21.67502,35.43511,UP.png
-0.08691406,-0.1364746,-0.4438477,0.3823588,-0.1997099,-0.168458,-16.66622,10.32803,0.7586076,-16.79118,10.60146,-0.6298828,-0.4008789,0.7871094,0.2961069,0.04909158,-3.71013,-21.74881,35.12179,0.2931082,-21.68536,35.49228,UP.png
-0.08496094,-0.1379395,-0.4528809,0.03121376,0.1667023,-0.2142596,-16.66578,10.32724,0.755608,-16.66559,10.17408,-0.6259766,-0.3981934,0.7990723,0.1587023,-0.1646488,0.1677328,-21.74004,35.11782,0.2954565,-21.4192,35.03607,UP.png
-0.08105469,-0.1374512,-0.458252,0.01594663,0.07509923,-0.0005190372,-16.66135,10.31404,0.7556007,-16.45514,9.615792,-0.6166992,-0.4086914,0.7890625,0.6167176,0.01855725,0.1677328,-21.74078,35.11092,0.2978048,-22.2,34.76047,UP.png
-0.08325195,-0.1394043,-0.4414063,-0.04512215,-0.031771,0.091084,-16.67357,10.31124,0.7568759,-17.24157,10.19565,-0.6237793,-0.4082031,0.7773438,0.06709921,-0.3020534,4.030328,-21.75048,35.1124,0.3542294,-22.27226,35.39191,UP.png
-0.08520508,-0.1381836,-0.4436035,-0.4726033,-0.5355878,-0.06158781,-16.68724,10.30497,0.7559521,-17.00943,10.39164,-0.6279297,-0.4038086,0.7929688,-0.3451145,-0.1646488,-3.694863,-21.75581,35.1119,0.2988064,-21.76311,35.20853,UP.png
-0.08325195,-0.1335449,-0.4411621,-0.3504658,-0.4897862,0.091084,-16.68962,10.29692,0.7572272,-16.56571,10.23819,-0.6210938,-0.4042969,0.793457,0.2503054,0.2322977,-0.09180916,-21.75451,35.11073,0.2975211,-21.86228,34.8938,UP.png
-0.08544922,-0.1362305,-0.4448242,-0.02985501,-0.2760458,-0.2142596,-16.69101,10.29535,0.7542276,-16.73908,10.40784,-0.6252441,-0.4025879,0.7915039,0.3571756,0.1254275,-0.03074045,-21.74968,35.11322,0.2970907,-21.75836,35.14932,UP.png
-0.0871582,-0.1350098,-0.4394531,0.3365571,-0.1539084,-0.168458,-16.68798,10.30203,0.7518692,-16.7703,10.73518,-0.6315918,-0.4060059,0.793457,-0.05503809,0.09489316,-0.1834122,-21.75181,35.1187,0.294523,-21.81843,35.32211,UP.png
-0.08398438,-0.1325684,-0.4516602,0.5044961,0.2888396,-0.0005190372,-16.66923,10.30228,0.7518619,-16.0964,10.11622,-0.6315918,-0.4069824,0.7866211,-0.02450383,0.01855725,-0.07654199,-21.75653,35.12645,0.2934514,-21.9707,35.49361,UP.png
-0.08374023,-0.1376953,-0.4462891,0.0922823,0.3804427,-0.04632068,-16.67197,10.30475,0.7512134,-16.8695,10.16494,-0.6259766,-0.4123535,0.7810059,0.2808397,-0.2104504,-3.725397,-21.76536,35.1276,0.2412958,-22.39065,35.32811,UP.png
-0.0871582,-0.1381836,-0.4558105,-0.2741299,-0.1844428,0.1979542,-16.67393,10.30353,0.7539847,-16.58171,10.36992,-0.6196289,-0.4057617,0.8037109,-0.05503809,-0.4241909,0.3204046,-21.76667,35.10997,0.2457815,-21.79301,34.53669,UP.png
-0.08544922,-0.1342773,-0.4475098,-0.4115343,-0.4897862,0.2132213,-16.67453,10.29802,0.7569699,-16.42182,10.36418,-0.6257324,-0.4094238,0.7956543,0.1892367,-0.01197708,0.1677328,-21.76918,35.1069,0.2481297,-22.02223,34.96459,UP.png
-0.08837891,-0.1374512,-0.4348145,-0.3962674,-0.3523817,0.0147481,-16.69072,10.30659,0.7571764,-17.21195,10.96817,-0.6308594,-0.4033203,0.7941895,0.1892367,0.2475649,0.04559542,-21.76491,35.11432,0.2487681,-21.68526,35.30796,UP.png
-0.08374023,-0.1379395,-0.4472656,-0.09092379,-0.2607787,-0.07685494,-16.69543,10.29975,0.7561004,-16.86409,10.14357,-0.6313477,-0.404541,0.7910156,-0.2535114,0.04909158,0.04559542,-21.76883,35.12066,0.2494064,-21.78721,35.39798,UP.png
-0.08544922,-0.1357422,-0.442627,-0.2283282,-0.5813893,-0.04632068,-16.70004,10.29435,0.7554055,-16.7578,10.45718,-0.6264648,-0.4025879,0.7902832,-0.08557248,0.1406947,-0.04600763,-21.76996,35.12502,0.2487163,-21.76227,35.23504,UP.png
-0.08618164,-0.1330566,-0.4482422,0.1228168,-0.1539084,-0.04632068,-16.68938,10.29522,0.754757,-16.25151,10.44336,-0.6335449,-0.4125977,0.7902832,0.5251145,0.07962596,0.03032825,-21.77063,35.13159,0.2491409,-22.16356,35.39931,UP.png
-0.07885742,-0.1374512,-0.4482422,0.2449541,0.319374,0.04528236,-16.68833,10.28465,0.755391,-16.80468,9.547543,-0.6279297,-0.3999023,0.7868652,0.2503054,-0.02724427,0.03032825,-21.76508,35.13715,0.2495655,-21.66492,35.42845,UP.png
-0.08276367,-0.1367188,-0.4489746,0.1686182,0.2125039,0.259023,-16.68567,10.28189,0.7590174,-16.67126,10.00097,-0.6276855,-0.4016113,0.7956543,0.1129008,-0.1493817,0.06086259,-21.76058,35.13547,0.2504176,-21.61775,35.15557,UP.png
-0.08300781,-0.1367188,-0.4489746,0.2907557,0.1514351,0.1521528,-16.68136,10.27893,0.7611475,-16.66973,10.02988,-0.6276855,-0.4091797,0.7768555,0.4945802,-0.08831299,0.2593359,-21.76416,35.14276,0.2540483,-22.27859,35.56027,UP.png
-0.08154297,-0.1384277,-0.4458008,-0.1061909,-0.1386412,0.1216183,-16.6889,10.26962,0.7628502,-16.98514,9.90877,-0.626709,-0.4123535,0.8061523,-0.009236574,-0.2562519,0.3356718,-21.76881,35.13015,0.2587477,-21.99046,34.68785,UP.png
-0.08447266,-0.1359863,-0.4450684,-0.1519923,-0.1386412,0.1674199,-16.69138,10.26809,0.765194,-16.70878,10.28794,-0.6206055,-0.4035645,0.7971191,-0.1619084,-0.179916,0.04559542,-21.77117,35.12076,0.259386,-21.77575,34.78432,UP.png
-0.08569336,-0.1323242,-0.4355469,-0.1825268,-0.5203207,-0.168458,-16.69204,10.26882,0.7628356,-16.59915,10.66131,-0.6325684,-0.3989258,0.786377,0.4335115,0.171229,-0.1376107,-21.76116,35.13379,0.2574594,-21.5679,35.65487,UP.png
-0.0847168,-0.1335449,-0.4448242,0.4586947,-0.3065802,0.1216183,-16.68054,10.26598,0.7645383,-16.43177,10.3375,-0.6264648,-0.4006348,0.78125,0.38771,0.2017633,-0.01547329,-21.75672,35.14406,0.2572428,-21.80502,35.50879,UP.png
-0.08691406,-0.1357422,-0.451416,0.4128931,0.3499084,-0.04632068,-16.67069,10.27406,0.7639361,-16.45081,10.44691,-0.6296387,-0.4020996,0.7890625,-0.1008396,-0.1646488,0.07612977,-21.75723,35.14731,0.2582325,-21.71841,35.41156,UP.png
-0.08544922,-0.1262207,-0.4475098,-0.04512215,0.1209008,0.1216183,-16.6476,10.2785,0.7656388,-15.48518,10.41327,-0.6279297,-0.4025879,0.7912598,0.3724428,-0.2409847,0.3051374,-21.75157,35.14649,0.2625044,-21.72954,35.27163,UP.png
-0.08935547,-0.1342773,-0.4477539,0.07701516,0.2735725,-0.2295268,-16.64135,10.29312,0.7624254,-16.38818,10.82172,-0.6262207,-0.4118652,0.7932129,0.4945802,-0.2867863,0.3509389,-21.75321,35.13997,0.2674176,-22.17286,35.01712,UP.png
-0.08544922,-0.1384277,-0.4499512,-0.07565641,-0.1844428,0.182687,-16.64591,10.29048,0.7649831,-16.81737,10.28786,-0.6152344,-0.4030762,0.7897949,-0.2840458,-0.1493817,0.06086259,-21.76066,35.13021,0.2682697,-21.93048,34.75458,UP.png
-0.0847168,-0.1347656,-0.4448242,-0.5489388,-0.6119237,0.3048244,-16.652,10.28288,0.7692506,-16.57376,10.32983,-0.6257324,-0.4060059,0.7890625,0.1739695,0.2170305,-0.04600763,-21.76221,35.13437,0.2676255,-21.95739,35.18913,UP.png
-0.0871582,-0.140625,-0.4482422,0.1838853,-0.09283972,-0.2142596,-16.65877,10.28615,0.7662509,-17.11662,10.51049,-0.626709,-0.4013672,0.7836914,0.1587023,0.2170305,-0.0002061129,-21.76079,35.14351,0.2676227,-21.80054,35.44214,UP.png
-0.08544922,-0.1311035,-0.4453125,0.1228168,-0.06230533,-0.04632068,-16.64643,10.28817,0.7656024,-16.12633,10.42993,-0.628418,-0.4025879,0.7841797,-0.03977096,-0.1341145,-0.07654199,-21.76276,35.14851,0.266551,-21.83204,35.4854,UP.png
-0.08056641,-0.1335449,-0.4462891,-0.01458788,-0.2302443,0.182687,-16.64189,10.27527,0.7683427,-16.40834,9.812138,-0.626709,-0.4055176,0.7978516,0.2655725,0.003290057,-0.1223435,-21.75933,35.14561,0.2647159,-21.7865,35.00122,UP.png
-0.08764648,-0.1318359,-0.4489746,0.5044961,0.5178473,-0.0310533,-16.62366,10.28905,0.767908,-16.07686,10.60895,-0.6286621,-0.4082031,0.7871094,0.5251145,-0.2104504,0.1066641,-21.75812,35.14656,0.2662092,-22.05898,35.33742,UP.png
-0.08520508,-0.1398926,-0.4501953,0.1075497,0.1056336,-0.1073892,-16.62928,10.28961,0.7664045,-16.97834,10.24491,-0.6196289,-0.4035645,0.8012695,0.0976336,-0.3325878,0.183,-21.75609,35.13169,0.2687712,-21.7235,34.63111,UP.png
-0.08251953,-0.1379395,-0.4475098,-0.09092379,-0.1997099,0.1979542,-16.63521,10.28096,0.7691759,-16.8635,9.993827,-0.6225586,-0.4047852,0.8088379,0.0976336,-0.02724427,0.2593359,-21.75228,35.11948,0.2724019,-21.63238,34.54008,UP.png
-0.08276367,-0.1374512,-0.4448242,-0.2741299,-0.291313,0.1521528,-16.64423,10.27294,0.771306,-16.89813,10.07994,-0.6279297,-0.4042969,0.7890625,0.2655725,-0.07304579,0.07612977,-21.75052,35.12224,0.2734677,-21.84685,35.30755,UP.png
-0.08618164,-0.1411133,-0.442627,-0.4268017,-0.4897862,-0.07685494,-16.66474,10.27095,0.7702301,-17.37658,10.50923,-0.6271973,-0.4072266,0.7927246,0.05183208,-0.1188473,-0.07654199,-21.75366,35.12089,0.2723961,-21.9426,35.13648,UP.png
-0.08837891,-0.1325684,-0.4350586,0.0006792545,0.02929771,0.1521528,-16.66396,10.28587,0.7723602,-16.6264,10.99674,-0.625,-0.4069824,0.7902832,-0.009236574,0.04909158,-0.168145,-21.75862,35.12137,0.2700421,-21.99524,35.11101,UP.png
-0.0871582,-0.1381836,-0.4499512,0.1991527,-0.3218473,0.2284887,-16.66332,10.28523,0.7757875,-16.77825,10.49066,-0.6279297,-0.402832,0.7907715,0.38771,0.339168,-0.2139466,-21.75272,35.12955,0.2668329,-21.74895,35.2815,UP.png
-0.08325195,-0.1320801,-0.4453125,0.32129,0.09036642,-0.2142596,-16.65073,10.284,0.7727879,-16.25403,10.16146,-0.628418,-0.4008789,0.7836914,0.1587023,-0.1493817,0.1371985,-21.7506,35.13537,0.2687536,-21.75551,35.52273,UP.png
-0.0871582,-0.1379395,-0.4541016,0.1533511,0.02929771,0.06054974,-16.64798,10.28682,0.773575,-16.6108,10.40638,-0.6286621,-0.4086914,0.7824707,0.1892367,-0.1341145,0.03032825,-21.75628,35.14008,0.2691479,-22.15478,35.45635,UP.png
-0.08349609,-0.1379395,-0.4443359,0.3976259,0.1056336,0.0147481,-16.64851,10.28612,0.7737962,-16.96693,10.17418,-0.6328125,-0.4084473,0.8041992,0.4335115,-0.179916,0.2440687,-21.74995,35.13569,0.2728089,-21.75884,35.05283,UP.png
-0.09008789,-0.1298828,-0.4414063,0.1075497,-0.1691756,-0.1073892,-16.63582,10.2998,0.7724001,-16.08251,11.07796,-0.6252441,-0.4047852,0.7851563,0.2045038,-0.1646488,0.04559542,-21.75163,35.1367,0.2734017,-21.964,35.291,UP.png
-0.0871582,-0.1362305,-0.453125,-0.3351984,-0.5661222,0.1521528,-16.63667,10.29478,0.7745303,-16.44842,10.43713,-0.6269531,-0.4082031,0.7861328,-0.03977096,-0.07304579,-0.06127481,-21.75905,35.13877,0.2725438,-22.09525,35.29029,UP.png
-0.08178711,-0.1376953,-0.4541016,-0.06038928,-0.3981832,-0.1226563,-16.63709,10.279,0.7728131,-16.61637,9.779299,-0.6286621,-0.4082031,0.7922363,0.1434351,0.04909158,-0.1528779,-21.76149,35.14065,0.2704035,-21.97984,35.19904,UP.png
-0.08886719,-0.1342773,-0.4414063,0.1991527,-0.1691756,-0.04632068,-16.63373,10.28915,0.7721646,-16.60562,10.90236,-0.640625,-0.4033203,0.7819824,0.2045038,0.1406947,-0.03074045,-21.75847,35.16093,0.2699732,-21.7508,36.05814,UP.png
-0.08129883,-0.1323242,-0.4472656,0.1380839,-0.001236677,0.182687,-16.62375,10.2811,0.7747222,-16.22932,9.887351,-0.621582,-0.4035645,0.7927246,-0.1161069,-0.08831299,-0.09180916,-21.76153,35.15539,0.2686878,-21.8318,34.9447,UP.png
-0.08325195,-0.1352539,-0.4475098,0.1380839,0.1514351,-0.1531909,-16.62022,10.27965,0.7724243,-16.54872,10.09728,-0.6318359,-0.4047852,0.7766113,0.4182443,0.003290057,0.06086259,-21.76044,35.16851,0.2696008,-22.01408,35.80901,UP.png
-0.08496094,-0.1384277,-0.4467773,0.4128931,0.1667023,-0.1989923,-16.62073,10.28225,0.7696384,-16.92927,10.29524,-0.6298828,-0.4055176,0.7836914,0.4029771,-0.1035802,0.09139694,-21.759,35.17413,0.2708803,-21.96523,35.52058,UP.png
-0.08203125,-0.1381836,-0.4462891,-0.07565641,0.1514351,-0.0005190372,-16.62809,10.27785,0.7696311,-16.93688,9.958679,-0.6184082,-0.4055176,0.7895508,-0.1771755,-0.1493817,4.07613,-21.76657,35.16591,0.3279462,-22.01559,34.86565,UP.png
-0.08666992,-0.137207,-0.4455566,-0.3199313,-0.6119237,-0.0310533,-16.6363,10.27453,0.7691964,-16.81899,10.53137,-0.6352539,-0.4013672,0.7834473,0.0976336,-0.1646488,0.1524656,-21.76388,35.17666,0.3300807,-21.69922,35.81623,UP.png
-0.08447266,-0.1357422,-0.4516602,-0.2283282,-0.6271908,-0.07685494,-16.63587,10.26353,0.7681204,-16.4581,10.15472,-0.6237793,-0.4069824,0.7890625,0.06709921,0.3239008,-3.664328,-21.76826,35.17939,0.2787801,-22.02915,35.09123,UP.png
-0.08276367,-0.1352539,-0.4440918,-0.2588627,-0.2149771,0.1674199,-16.64006,10.25748,0.7704643,-16.66811,10.10854,-0.6240234,-0.4057617,0.7875977,-0.1924427,0.01855725,0.07612977,-21.77532,35.17923,0.2798459,-21.9891,35.15837,UP.png
-0.08227539,-0.1379395,-0.4331055,3.588466,-0.3981832,0.07581687,-16.60552,10.25206,0.7715258,-17.37457,10.25988,-0.6262207,-0.4025879,0.7990723,0.0976336,0.1254275,-0.2750153,-21.77109,35.17711,0.2759957,-21.63095,34.98727,UP.png
-0.08789063,-0.1408691,-0.447998,0.3060229,0.01403052,-0.1226563,-16.61217,10.25922,0.7698085,-17.1481,10.60035,-0.6252441,-0.409668,0.7832031,0.5098474,0.1406947,0.07612977,-21.77336,35.181,0.2770615,-22.23388,35.2752,UP.png
-0.08642578,-0.1384277,-0.4401855,0.32129,-0.031771,-0.1226563,-16.61851,10.26577,0.7680913,-17.1494,10.60839,-0.6286621,-0.4033203,0.7902832,0.4182443,-0.05777865,0.04559542,-21.76758,35.18298,0.2776999,-21.77142,35.31949,UP.png
-0.08276367,-0.1345215,-0.4384766,-0.06038928,-0.550855,-0.0005190372,-16.62297,10.25316,0.7680799,-16.77646,10.22903,-0.6323242,-0.4077148,0.7919922,0.2350382,0.1254275,-0.09180916,-21.76546,35.18941,0.2756801,-21.91507,35.36932,UP.png
-0.08959961,-0.1350098,-0.4421387,-0.1367252,-0.3981832,0.1521528,-16.62574,10.26162,0.7703621,-16.66101,10.96883,-0.6315918,-0.3981934,0.7900391,0.1587023,-0.05777865,-0.07654199,-21.75759,35.19523,0.2745319,-21.48848,35.52279,UP.png
-0.08081055,-0.1340332,-0.4377441,0.3060229,-0.031771,0.0147481,-16.62418,10.25616,0.7705686,-16.7572,10.01059,-0.625,-0.4069824,0.7868652,0.3419085,0.07962596,-0.1528779,-21.75871,35.19648,0.2723917,-22.04826,35.20333,UP.png
-0.08886719,-0.1350098,-0.4428711,0.6113663,0.2888396,-0.1379237,-16.61613,10.27231,0.7686377,-16.64104,10.86525,-0.6269531,-0.4204102,0.7868652,0.1434351,-0.07304579,0.07612977,-21.77514,35.19351,0.2734575,-22.67826,35.09791,UP.png
-0.08251953,-0.1398926,-0.4465332,-0.02985501,-0.1844428,-0.04632068,-16.62666,10.26435,0.7679892,-17.12247,10.00121,-0.6171875,-0.3952637,0.7907715,-0.009236574,-0.2257175,0.01506107,-21.76989,35.18495,0.2736683,-21.50624,34.92015,UP.png
-0.08691406,-0.1359863,-0.4431152,-0.1367252,-0.2455115,-0.2295268,-16.6312,10.2681,0.7647758,-16.75961,10.62032,-0.6306152,-0.4069824,0.7963867,0.2350382,-0.08831299,-3.679595,-21.76793,35.1838,0.222154,-21.83306,35.18797,UP.png
-0.0871582,-0.1352539,-0.4414063,-0.07565641,-0.3218473,0.2284887,-16.63424,10.27215,0.7679747,-16.7314,10.69113,-0.6296387,-0.4038086,0.7885742,0.3724428,-0.04251146,0.07612977,-21.76365,35.18756,0.2232198,-21.80955,35.40109,UP.png
-0.08544922,-0.1376953,-0.4382324,-0.09092379,-0.1081069,0.04528236,-16.64568,10.27587,0.7686539,-17.13967,10.5377,-0.6279297,-0.4057617,0.7944336,-0.07030535,0.1254275,0.1066641,-21.76613,35.1885,0.2248198,-21.83601,35.14215,UP.png
-0.08227539,-0.1306152,-0.4423828,3.603733,-0.3218473,-0.01578617,-16.58706,10.26821,0.7684329,-16.18676,10.11349,-0.6313477,-0.4072266,0.7922363,0.05183208,0.01855725,-0.07654199,-21.76809,35.19154,0.2237482,-21.89949,35.32771,UP.png
-0.08618164,-0.1335449,-0.4418945,-0.04512215,-0.3676488,0.0147481,-16.58637,10.26929,0.7686394,-16.52149,10.57474,-0.6259766,-0.3935547,0.7907715,0.2503054,0.1559618,-0.168145,-21.75563,35.19634,0.2213942,-21.3167,35.32466,UP.png
-0.08789063,-0.1391602,-0.4462891,0.3060229,0.1514351,-0.2142596,-16.59066,10.27894,0.7656397,-17.01096,10.6478,-0.6230469,-0.4001465,0.7827148,0.2350382,-0.08831299,-0.03074045,-21.7533,35.19775,0.2209638,-21.80045,35.32745,UP.png
-0.08251953,-0.1337891,-0.4465332,0.1075497,-0.2455115,-0.04632068,-16.5857,10.27077,0.7649912,-16.41648,10.0388,-0.6328125,-0.4030762,0.7883301,0.2961069,-0.02724427,-0.2597481,-21.74894,35.2045,0.2173273,-21.73868,35.5541,UP.png
-0.08447266,-0.1396484,-0.4511719,0.4281602,0.1972366,-0.06158781,-16.58655,10.27087,0.764129,-16.92171,10.14056,-0.6259766,-0.4057617,0.7836914,0.6777863,-0.05777865,-0.01547329,-21.74518,35.20659,0.2171107,-22.0256,35.34876,UP.png
-0.08374023,-0.1408691,-0.4570313,0.07701516,-0.031771,-0.04632068,-16.59109,10.26365,0.7634805,-16.86622,9.931678,-0.626709,-0.40625,0.7893066,0.02129769,-0.2562519,0.442542,-21.74906,35.20337,0.2233063,-21.95359,35.22122,UP.png
-0.0859375,-0.137207,-0.4506836,-4.197794,-0.3523817,-0.09212208,-16.65396,10.25996,0.7620987,-16.64949,10.33801,-0.6225586,-0.4101563,0.802002,-0.390916,-0.1493817,0.183,-21.75978,35.19009,0.2260513,-21.99796,34.64912,UP.png
-0.08325195,-0.1364746,-0.4365234,-0.2588627,-0.3676488,-0.1226563,-16.66587,10.25605,0.7603815,-17.07196,10.31644,-0.6252441,-0.4099121,0.7907715,0.2808397,0.06435877,0.04559542,-21.76329,35.18852,0.2266896,-22.12772,35.06766,UP.png
-0.08837891,-0.1328125,-0.4467773,-0.4268017,-0.9478015,0.1216183,-16.66356,10.25265,0.7620841,-16.25758,10.7366,-0.6245117,-0.3999023,0.7929688,0.08236647,0.1254275,0.09139694,-21.75915,35.18877,0.2279692,-21.61311,35.11488,UP.png
-0.08813477,-0.1333008,-0.442627,0.4128931,-0.2455115,0.06054974,-16.65373,10.26012,0.7629318,-16.45503,10.79441,-0.6293945,-0.4003906,0.7922363,0.2045038,-0.05777865,-0.09180916,-21.75295,35.19097,0.2266839,-21.5894,35.33833,UP.png
-0.08203125,-0.1352539,-0.4462891,0.3823588,-0.0470382,0.3658931,-16.64736,10.25381,0.7680543,-16.59775,9.976638,-0.6323242,-0.4016113,0.7785645,0.2045038,0.2322977,-0.1376107,-21.75152,35.20677,0.2247573,-21.82179,35.82154,UP.png
-0.08276367,-0.137207,-0.4467773,0.1075497,0.1361679,-0.0310533,-16.64899,10.25144,0.7676196,-16.80255,10.04203,-0.6279297,-0.4030762,0.7854004,0.06709921,-0.07304579,0.2135344,-21.75244,35.21012,0.2277468,-21.84327,35.42419,UP.png
-0.08813477,-0.144043,-0.4501953,0.1991527,0.1514351,-0.09212208,-16.66192,10.25973,0.7663298,-17.43209,10.562,-0.6201172,-0.4055176,0.7819824,-0.02450383,-0.3936565,0.183,-21.75999,35.20341,0.2303088,-22.11301,35.14472,UP.png
-0.08569336,-0.1286621,-0.4472656,-0.2741299,-0.382916,-0.09212208,-16.64796,10.25794,0.7650401,-15.77631,10.43285,-0.6257324,-0.4194336,0.800293,0.3724428,-0.04251146,0.1219313,-21.76837,35.19283,0.2320158,-22.43464,34.70378,UP.png
-0.08813477,-0.1364746,-0.4389648,-0.09092379,-0.2302443,-0.168458,-16.65529,10.26669,0.7626817,-16.95215,10.8534,-0.6240234,-0.4055176,0.7851563,0.3113741,-0.179916,0.2288015,-21.76903,35.19107,0.235219,-22.01503,35.22795,UP.png
-0.08374023,-0.1379395,-0.4450684,-0.2283282,-0.4134504,0.1979542,-16.66412,10.25945,0.7654531,-16.93991,10.18831,-0.6237793,-0.4033203,0.796875,-0.2077099,-0.2409847,0.1219313,-21.77109,35.18257,0.2369261,-21.72948,34.93126,UP.png
-0.0847168,-0.1298828,-0.4401855,-0.4115343,-0.6577252,-0.0005190372,-16.65926,10.25505,0.7654463,-16.15876,10.45846,-0.6230469,-0.40625,0.7844238,0.0976336,0.171229,-0.07654199,-21.77592,35.18501,0.235931,-22.07449,35.19528,UP.png
-0.08496094,-0.1359863,-0.4350586,0.229687,-0.1081069,0.182687,-16.66379,10.25952,0.7681866,-17.05471,10.55837,-0.6313477,-0.4047852,0.7878418,0.2655725,-0.1035802,0.1371985,-21.77345,35.1894,0.237989,-21.84761,35.48075,UP.png
-0.08496094,-0.1340332,-0.4438477,-0.01458788,-0.1386412,-0.168458,-16.66112,10.26011,0.7658282,-16.52011,10.38402,-0.6281738,-0.4003906,0.7919922,0.2045038,-0.1035802,0.04559542,-21.76733,35.19004,0.2386273,-21.60782,35.2925,UP.png
-0.09204102,-0.1352539,-0.4484863,0.3823588,-0.0470382,0.1521528,-16.65181,10.27659,0.7679584,-16.45828,11.11617,-0.6201172,-0.4069824,0.7873535,0.4487787,-0.08831299,-0.01547329,-21.76784,35.1846,0.2384107,-22.10087,34.97876,UP.png
-0.08740234,-0.1369629,-0.4509277,-0.06038928,-0.1844428,-0.0005190372,-16.65168,10.27866,0.7679511,-16.60385,10.50679,-0.6252441,-0.4082031,0.78125,0.2503054,-0.08831299,0.442542,-21.7729,35.18668,0.2446063,-22.1926,35.34897,UP.png
-0.08544922,-0.1435547,-0.4453125,-0.1214581,0.01403052,-0.06158781,-16.67166,10.28028,0.7670888,-17.5674,10.34991,-0.625,-0.4069824,0.7895508,-0.1924427,-0.5615954,4.045595,-21.78022,35.17785,0.3012446,-22.00659,35.13076,UP.png
-0.08251953,-0.1401367,-0.4360352,-0.3657329,-0.3065802,0.182687,-16.69375,10.27474,0.7696465,-17.52525,10.21359,-0.628418,-0.411377,0.7963867,-0.1161069,-0.2104504,-0.07654199,-21.78767,35.17208,0.300173,-22.07309,35.03341,UP.png
-0.08789063,-0.1335449,-0.4399414,-0.2283282,-0.382916,0.1063511,-16.69454,10.28044,0.7711354,-16.57666,10.82236,-0.6303711,-0.4040527,0.7885742,0.2045038,0.2017633,-0.1223435,-21.78536,35.17999,0.2984602,-21.81254,35.42915,UP.png
-0.09082031,-0.1328125,-0.4450684,0.2449541,-0.291313,-0.2142596,-16.68325,10.29211,0.7681357,-16.29807,11.06394,-0.6315918,-0.4084473,0.7912598,0.0976336,0.04909158,-0.09180916,-21.78773,35.18401,0.2971749,-21.97089,35.34755,UP.png
-0.09179688,-0.1342773,-0.4462891,0.1838853,-0.382916,-0.0310533,-16.67547,10.30387,0.767701,-16.42054,11.14275,-0.6296387,-0.404541,0.7944336,0.1434351,0.07962596,0.04559542,-21.78512,35.18607,0.2978133,-21.75582,35.23227,UP.png
-0.08544922,-0.1352539,-0.4418945,0.2754886,0.1667023,0.04528236,-16.6727,10.3096,0.7683349,-16.72608,10.47584,-0.6228027,-0.3930664,0.7797852,0.2655725,-0.07304579,4.07613,-21.77573,35.19127,0.3548791,-21.49775,35.49649,UP.png
-0.08691406,-0.138916,-0.454834,0.229687,0.2735725,0.2895572,-16.67008,10.31429,0.7723887,-16.69889,10.35684,-0.6245117,-0.4082031,0.796875,-0.009236574,-0.2409847,-3.71013,-21.77952,35.18206,0.3029373,-21.95877,34.89619,UP.png
-0.08520508,-0.1416016,-0.4528809,-0.1519923,-0.4134504,0.2895572,-16.68038,10.30593,0.7764425,-17.08101,10.17996,-0.6247559,-0.4001465,0.7949219,0.08236647,-0.2104504,0.06086259,-21.77465,35.17692,0.3037894,-21.59234,35.06921,UP.png
-0.08032227,-0.1394043,-0.4482422,-0.1825268,-0.3065802,0.2284887,-16.68969,10.28981,0.7796414,-17.02072,9.709834,-0.6323242,-0.4055176,0.7897949,0.38771,0.09489316,0.04559542,-21.77066,35.18387,0.3044277,-21.84159,35.45934,UP.png
-0.08886719,-0.1325684,-0.4453125,-0.1061909,-0.4745191,-0.06158781,-16.68285,10.29406,0.7787791,-16.27468,10.82796,-0.6320801,-0.4069824,0.7875977,0.02129769,0.1406947,0.09139694,-21.77395,35.19188,0.3057072,-21.94969,35.48803,UP.png
-0.08349609,-0.1333008,-0.4345703,-0.1367252,-0.6119237,0.07581687,-16.68648,10.28735,0.7799164,-16.76398,10.40849,-0.6276855,-0.3999023,0.7963867,-0.2077099,-0.1188473,-0.1070763,-21.77199,35.18948,0.3041011,-21.5231,35.15903,UP.png
-0.08959961,-0.1323242,-0.4335938,-0.04512215,-0.4745191,0.3200917,-16.68616,10.2987,0.7843976,-16.63961,11.18014,-0.6208496,-0.409668,0.7915039,0.2503054,0.1406947,-0.1528779,-21.77628,35.18485,0.3019608,-22.15838,34.86162,UP.png
-0.0793457,-0.1298828,-0.4450684,0.32129,0.1209008,-0.1989923,-16.66861,10.28861,0.7816117,-16.02919,9.711465,-0.625,-0.4025879,0.7817383,0.3571756,0.171229,-0.07654199,-21.77409,35.19159,0.3008892,-21.91187,35.40453,UP.png
-0.0871582,-0.1350098,-0.447998,0.3976259,0.2125039,0.03001523,-16.65975,10.29658,0.7820019,-16.47906,10.55186,-0.6289063,-0.4006348,0.7897949,0.2045038,0.01855725,-3.618527,-21.76889,35.19561,0.2538484,-21.64436,35.38041,UP.png
-0.08251953,-0.1379395,-0.4543457,0.1228168,0.1667023,0.1216183,-16.65751,10.29012,0.7837046,-16.63159,9.858959,-0.6259766,-0.4064941,0.7900391,-0.1161069,-0.1188473,0.1371985,-21.77437,35.19339,0.2557692,-21.96319,35.16648,UP.png
-0.08203125,-0.1362305,-0.4560547,-4.182527,-0.1691756,0.2437558,-16.70941,10.27757,0.7871172,-16.38318,9.778662,-0.6240234,-0.4089355,0.7929688,0.0976336,-0.2562519,0.4272748,-21.77876,35.1854,0.261751,-22.06091,34.96964,UP.png
-0.0859375,-0.1308594,-0.4418945,-0.381,-0.642458,0.1063511,-16.70461,10.27445,0.7886061,-16.20844,10.56267,-0.6254883,-0.4055176,0.7966309,0.1587023,0.01855725,-0.06127481,-21.7774,35.18158,0.2608931,-21.8199,34.98148,UP.png
-0.08374023,-0.1315918,-0.4394531,-0.1519923,-0.642458,0.1063511,-16.70043,10.26706,0.790095,-16.39133,10.34526,-0.6262207,-0.4001465,0.7944336,0.3266413,0.2780993,-0.1376107,-21.76902,35.18468,0.2589666,-21.58222,35.14555,UP.png
-0.08618164,-0.1384277,-0.4499512,0.2144198,0.01403052,-0.168458,-16.69995,10.26938,0.7879051,-16.81261,10.37414,-0.6257324,-0.4035645,0.7836914,0.128168,0.1406947,-0.1834122,-21.77042,35.19016,0.2565822,-21.92067,35.36912,UP.png
-0.08886719,-0.1362305,-0.451416,0.3670917,0.1972366,-0.01578617,-16.69079,10.28016,0.7876841,-16.4941,10.67322,-0.6308594,-0.4042969,0.7922363,-0.07030535,-0.08831299,0.06086259,-21.77123,35.19209,0.2574343,-21.76262,35.34736,UP.png
-0.08007813,-0.1330566,-0.4506836,0.1686182,0.1361679,0.04528236,-16.67883,10.26984,0.7883181,-16.2081,9.670871,-0.6293945,-0.3989258,0.7878418,0.1434351,-0.05777865,4.060863,-21.76552,35.19703,0.3142864,-21.58426,35.47837,UP.png
-0.08227539,-0.1335449,-0.4467773,-0.07565641,-0.1691756,0.3353589,-16.67399,10.26208,0.7933484,-16.38144,10.00626,-0.628418,-0.4023438,0.7905273,0.2655725,-0.1646488,0.09139694,-21.76076,35.19698,0.3156574,-21.72285,35.31588,UP.png
-0.08349609,-0.1359863,-0.4418945,-0.197794,-0.3371145,0.06054974,-16.67971,10.25695,0.7941961,-16.82449,10.23686,-0.6242676,-0.402832,0.7878418,0.1129008,0.01855725,0.1219313,-21.76077,35.19736,0.3173644,-21.83857,35.20307,UP.png
-0.08227539,-0.1364746,-0.4438477,-4.197794,0.04456491,0.07581687,-16.74015,10.25338,0.7952576,-16.82166,10.0475,-0.6271973,-0.4052734,0.7866211,0.2350382,-0.08831299,0.1371985,-21.76115,35.19877,0.3192852,-21.94124,35.32866,UP.png
-0.08666992,-0.1286621,-0.440918,-0.4878702,-0.7951298,0.2437558,-16.73159,10.25112,0.7986702,-15.97779,10.68591,-0.6262207,-0.40625,0.7888184,0.02129769,0.171229,-0.09180916,-21.76498,35.20141,0.3179999,-21.96712,35.21338,UP.png
-0.08496094,-0.1330566,-0.4453125,0.1991527,-0.5966565,0.06054974,-16.72137,10.2451,0.7995179,-16.35695,10.3595,-0.6223145,-0.4099121,0.78125,-0.05503809,0.03382444,-0.1223435,-21.7767,35.20181,0.3162871,-22.31322,35.19782,UP.png
-0.08496094,-0.140625,-0.4494629,0.2602212,0.04456491,-0.04632068,-16.72515,10.24534,0.7988694,-17.08895,10.22639,-0.6289063,-0.4008789,0.7856445,0.3113741,0.03382444,-0.1070763,-21.77129,35.20804,0.314788,-21.71964,35.4903,UP.png
-0.08520508,-0.1330566,-0.4543457,0.4434273,-0.123374,-0.04632068,-16.70572,10.24279,0.7982209,-16.0577,10.20257,-0.626709,-0.3996582,0.7861328,0.1739695,-0.1188473,0.01506107,-21.76706,35.21023,0.3149989,-21.67898,35.39921,UP.png
-0.0859375,-0.1374512,-0.4453125,0.3365571,0.02929771,-0.1837251,-16.70419,10.24729,0.7956487,-16.8605,10.44788,-0.6271973,-0.4042969,0.7805176,0.1739695,-0.2257175,-0.0002061129,-21.76908,35.21311,0.314996,-21.98765,35.50879,UP.png
-0.08740234,-0.1376953,-0.4511719,0.1380839,0.2888396,-0.04632068,-16.7018,10.25625,0.7950002,-16.67949,10.49706,-0.6105957,-0.4074707,0.7927246,0.3724428,-0.3631221,0.3662061,-21.77173,35.19212,0.3201229,-22.15706,34.41307,UP.png
-0.0871582,-0.1394043,-0.4401855,-0.3046641,-0.3371145,0.04528236,-16.71711,10.26029,0.7956342,-17.25809,10.68957,-0.6203613,-0.4020996,0.7990723,-0.03977096,-0.08831299,0.2898702,-21.77038,35.1819,0.3241811,-21.67697,34.74124,UP.png
-0.0859375,-0.1367188,-0.4445801,-0.289397,-0.1539084,0.091084,-16.72275,10.26233,0.7969093,-16.80086,10.46799,-0.6113281,-0.4104004,0.7944336,-0.3298473,-0.05777865,0.2593359,-21.78479,35.16466,0.3278117,-22.26466,34.3595,UP.png
-0.09106445,-0.137207,-0.4575195,0.1838853,0.1209008,0.0147481,-16.71195,10.27569,0.7972486,-16.38986,10.79395,-0.6286621,-0.4077148,0.7871094,0.08236647,-0.2409847,0.07612977,-21.78794,35.16282,0.3295627,-22.03512,35.34427,UP.png
-0.0847168,-0.1384277,-0.4436035,-0.02985501,-0.0470382,-0.1073892,-16.71894,10.27617,0.7957451,-17.04101,10.3318,-0.6274414,-0.4082031,0.7932129,0.2655725,-0.1341145,0.3356718,-21.78814,35.16013,0.3342621,-21.97969,35.12034,UP.png
-0.08032227,-0.1364746,-0.4484863,0.03121376,0.1056336,0.04528236,-16.71763,10.26654,0.796379,-16.67477,9.722596,-0.6296387,-0.4023438,0.7893066,0.3113741,-0.07304579,0.04559542,-21.78263,35.16396,0.3349005,-21.72665,35.40153,UP.png
-0.08740234,-0.1350098,-0.4379883,-0.2741299,-0.2607787,0.0147481,-16.72343,10.27357,0.7965855,-16.81952,10.79665,-0.6311035,-0.4060059,0.7871094,0.1587023,0.1864962,-3.71013,-21.78323,35.1727,0.2829587,-21.9215,35.47311,UP.png
-0.08544922,-0.1369629,-0.4433594,0.04648089,-0.2455115,-0.07685494,-16.72581,10.27341,0.7955095,-16.87456,10.43383,-0.628418,-0.4038086,0.7883301,0.1129008,0.003290057,-0.168145,-21.78258,35.1764,0.2806046,-21.82821,35.35524,UP.png
-0.08691406,-0.1367188,-0.4445801,0.1228168,-0.0470382,0.1063511,-16.7255,10.27898,0.7969985,-16.79434,10.58427,-0.6293945,-0.4025879,0.7856445,-0.02450383,0.1254275,0.01506107,-21.78322,35.18433,0.2808155,-21.79757,35.48744,UP.png
-0.08447266,-0.1293945,-0.4448242,0.07701516,-0.031771,0.2742901,-16.70884,10.27961,0.8011127,-15.94897,10.33396,-0.6262207,-0.3994141,0.7866211,0.0976336,0.1254275,-0.07654199,-21.77943,35.18985,0.2796674,-21.66545,35.36817,UP.png
-0.08691406,-0.1381836,-0.4470215,0.2907557,0.05983204,-0.04632068,-16.70827,10.2853,0.8004642,-16.87982,10.52313,-0.640625,-0.4047852,0.7900391,0.3266413,-0.01197708,0.01506107,-21.77337,35.20223,0.2798782,-21.70089,35.81676,UP.png
-0.08740234,-0.1369629,-0.4438477,0.4586947,0.227771,-0.01578617,-16.70425,10.29607,0.8002275,-16.84455,10.65644,-0.6279297,-0.4072266,0.7890625,0.2503054,-0.179916,0.04559542,-21.77403,35.20087,0.2805621,-21.99011,35.26676,UP.png
-0.08276367,-0.140625,-0.4482422,0.4434273,0.3804427,-0.0310533,-16.70699,10.2952,0.7997927,-17.14555,9.991505,-0.6269531,-0.404541,0.795166,0.3571756,-0.1341145,-3.725397,-21.76919,35.19696,0.2284066,-21.77706,35.09722,UP.png
-0.08496094,-0.1362305,-0.4470215,-0.1367252,-0.2607787,-0.07685494,-16.70794,10.29206,0.7987936,-16.66728,10.30412,-0.6220703,-0.4023438,0.7961426,0.0976336,-0.1035802,0.03032825,-21.76683,35.18951,0.2288008,-21.71347,34.89046,UP.png
-0.08666992,-0.135498,-0.4580078,-4.182527,-0.550855,0.1368854,-16.75943,10.28381,0.8008469,-16.20827,10.28487,-0.6252441,-0.4084473,0.8054199,-0.02450383,0.06435877,0.2135344,-21.76847,35.18061,0.2320039,-21.83037,34.69703,UP.png
-0.07910156,-0.1379395,-0.4467773,-0.2435954,-0.4592519,-0.1073892,-16.76579,10.26387,0.7993434,-16.91006,9.60181,-0.6218262,-0.4069824,0.7929688,0.1739695,-0.1951832,-0.01547329,-21.77056,35.17235,0.2317872,-21.99235,34.9017,UP.png
-0.08251953,-0.1298828,-0.4465332,-0.01458788,-0.3065802,-0.07685494,-16.74991,10.25563,0.7982674,-15.96192,10.06219,-0.6237793,-0.4030762,0.784668,0.2808397,0.03382444,-0.2750153,-21.76941,35.17466,0.227937,-21.90562,35.26486,UP.png
-0.08886719,-0.1345215,-0.4484863,0.3670917,0.07509923,-0.0310533,-16.73778,10.26648,0.7978327,-16.3952,10.74665,-0.628418,-0.4069824,0.7844238,0.2503054,0.1254275,0.03032825,-21.77146,35.18123,0.2283616,-22.04384,35.41693,UP.png
-0.0871582,-0.1408691,-0.4614258,0.4739618,0.2430381,-0.1073892,-16.73049,10.2693,0.7963292,-16.69852,10.24046,-0.6242676,-0.4052734,0.7807617,0.128168,0.06435877,-0.0002061129,-21.77564,35.18571,0.2283587,-22.0684,35.36156,UP.png
-0.08276367,-0.1384277,-0.4458008,0.489229,0.5941832,-0.06158781,-16.72872,10.27315,0.7954669,-16.97733,10.0541,-0.6315918,-0.4123535,0.7880859,0.3266413,-0.1646488,0.183,-21.77984,35.18731,0.2309207,-22.20986,35.37838,UP.png
-0.09033203,-0.1381836,-0.4572754,-0.1367252,0.07509923,0.1521528,-16.72628,10.28288,0.7975971,-16.51298,10.70811,-0.6223145,-0.4082031,0.7883301,0.05183208,-0.4699924,0.4578092,-21.7859,35.17773,0.2373301,-22.11835,35.03063,UP.png
-0.08276367,-0.1416016,-0.4382324,-0.4115343,-0.4439847,0.1063511,-16.7497,10.27488,0.799086,-17.61501,10.18785,-0.6318359,-0.4082031,0.7941895,0.128168,-0.2104504,0.01506107,-21.78665,35.17693,0.2375409,-21.91115,35.28244,UP.png
-0.08935547,-0.1369629,-0.4394531,-0.2741299,-0.3371145,0.1674199,-16.75814,10.28448,0.8014299,-16.98356,10.98583,-0.6237793,-0.404541,0.7849121,0.1892367,0.09489316,-0.0002061129,-21.78779,35.17945,0.237538,-21.97387,35.23771,UP.png
-0.08300781,-0.1352539,-0.4428711,-0.3962674,-0.4745191,0.259023,-16.76258,10.27553,0.8050563,-16.70846,10.16277,-0.6318359,-0.4050293,0.7858887,0.02129769,0.3239008,-0.1986794,-21.78942,35.19134,0.2347565,-21.88345,35.55145,UP.png
-0.0871582,-0.1328125,-0.4428711,0.1533511,-0.1844428,0.03001523,-16.75315,10.281,0.8054765,-16.39629,10.67546,-0.6210938,-0.4023438,0.795166,0.2655725,0.1864962,0.07612977,-21.78479,35.18756,0.2358223,-21.74022,34.8745,UP.png
-0.09008789,-0.140625,-0.4536133,0.1075497,-0.1081069,-0.2142596,-16.75488,10.28872,0.8024768,-16.91305,10.74106,-0.6289063,-0.4050293,0.7856445,0.1434351,0.003290057,0.09139694,-21.78559,35.1925,0.2371019,-21.92329,35.43222,UP.png
-0.08325195,-0.1352539,-0.4560547,0.3823588,0.2583054,0.03001523,-16.73983,10.28503,0.8028971,-16.26474,9.927002,-0.6335449,-0.4174805,0.7827148,0.3266413,-0.179916,-0.04600763,-21.79576,35.19686,0.2364578,-22.51811,35.53373,UP.png
-0.08569336,-0.1401367,-0.4484863,0.3060229,0.319374,0.1521528,-16.74207,10.29042,0.8050272,-17.06197,10.33581,-0.6264648,-0.407959,0.7875977,0.0976336,-0.3020534,0.4730763,-21.79984,35.19343,0.2430809,-22.06661,35.23305,UP.png
-0.08081055,-0.1350098,-0.4492188,-0.3351984,-0.1844428,0.4727633,-16.74139,10.27758,0.8116459,-16.47798,9.774898,-0.6196289,-0.4086914,0.7915039,0.02129769,-0.05777865,0.1219313,-21.80606,35.18521,0.2447879,-22.12562,34.82227,UP.png
-0.08496094,-0.1342773,-0.4477539,-0.5184045,-0.4745191,0.091084,-16.74201,10.27154,0.812921,-16.41675,10.30119,-0.6262207,-0.4116211,0.7976074,0.03656495,0.1559618,0.1219313,-21.81129,35.18171,0.2464949,-22.0928,34.90326,UP.png
-0.08691406,-0.1345215,-0.4377441,-0.1519923,-0.6577252,0.2284887,-16.74473,10.27202,0.81612,-16.77398,10.74638,-0.6320801,-0.4023438,0.7973633,0.00603056,0.2170305,-0.04600763,-21.80648,35.18681,0.2458508,-21.57495,35.28776,UP.png
-0.0859375,-0.1306152,-0.4353027,-0.2435954,-0.4134504,-0.01578617,-16.74124,10.27506,0.8158989,-16.40308,10.7077,-0.6252441,-0.4187012,0.7937012,0.05183208,0.09489316,-0.1223435,-21.81982,35.18172,0.244138,-22.50886,34.86693,UP.png
-0.09277344,-0.1298828,-0.4519043,0.5960991,0.2888396,-0.1226563,-16.71272,10.29675,0.8141817,-15.72406,11.16148,-0.6330566,-0.4018555,0.7893066,0.128168,0.1101603,-0.04600763,-21.81489,35.19069,0.2434939,-21.66118,35.55491,UP.png
-0.08642578,-0.137207,-0.454834,0.1686182,0.3651755,-0.2753282,-16.70631,10.30203,0.8103271,-16.50778,10.31043,-0.6259766,-0.4040527,0.7788086,0.4029771,-0.1951832,0.03032825,-21.81341,35.19433,0.2439185,-22.01735,35.50628,UP.png
