xa_S1,ya_S1,za_S1,xgb_S1,ybg_S1,zbg_S1,tilt_x_S1,tilt_y_S1,tilt_z_S1,tilt_accx_S1,tilt_accy_S1,tilt_accz_S1,xa_S2,ya_S2,za_S2,xgb_S2,ybg_S2,zbg_S2,tilt_x_S2,tilt_y_S2,tilt_z_S2,tilt_accx_S2,tilt_accy_S2,tilt_accz_S2,Posture
-1.1511226929676337,-0.6895280485994196,0.33725738181625414,0.13025430590621653,0.21634532547777544,0.01383140027947626,-0.33805168898056104,0.8153630817328436,0.4000369136583163,-0.3443855567347935,0.8202820450425984,0.4091919808189206,0.13806375871072038,0.6842703522710961,-0.666854423137848,0.009242096129456579,0.29734829420434533,0.14270465721284142,0.7109212902079061,0.1316574057165311,-0.7666243400911492,0.6917677554540758,0.15439464118243182,-0.7609132085983644,UP
-1.1149422979306545,-0.6651291877685032,0.3485656880659639,-0.14395748319336785,0.21634532547777544,-0.07490222432741195,-0.3380560060636349,0.8152809746687292,0.4004704536658044,-0.33380392588231733,0.800675479434831,0.4212172644396965,0.1467077392036136,0.6723097027571918,-0.6725589347120401,0.47461250848640635,0.42187165866388704,-0.17461623593420772,0.7105006798573422,0.13200302668683295,-0.766589978645037,0.67091868121542,0.1322072561406735,-0.7618227396037915,UP
-1.1055621141996257,-0.6630958452627881,0.3355611821977387,-0.006851588643575686,0.3041710760629817,-0.07490222432741195,-0.3382502748019799,0.8152975707774331,0.4007574331427507,-0.34908410063037276,0.8015764987859167,0.4143262056195128,0.13287751203832351,0.6902506770280484,-0.6657134740915311,0.5592250109538812,0.7954420239186832,-0.3068333671211295,0.7108220450690089,0.13325700179238936,-0.7665794058923875,0.7045764128247363,0.16410204232836087,-0.7615643800718148,UP
-1.0908216686595138,-0.6569958177456428,0.33725738181625414,-0.23536142287149311,0.5896048014185701,0.546233361610644,-0.33865953427742584,0.8153971474296569,0.40122447270007716,-0.3503375625607117,0.7929980255072965,0.4170486852415605,0.11386033008394197,0.6765813133076959,-0.6548748086376095,0.28423358125235526,0.8161959633079687,-0.3861637289713688,0.7101435323847127,0.13504056832602074,-0.7661617821627194,0.6654958704767534,0.19310054178312594,-0.7405555320073328,UP
-1.043921298874101,-0.6315800774555912,0.3530891958416116,0.06170135863132041,0.45786624744809673,-0.31152520597210964,-0.33859477803131127,0.8147507726696078,0.40182048552428007,-0.33965858380574215,0.7630887274747473,0.432799159271581,0.11731806390443815,0.6817074559270401,-0.6383318652668882,0.09385465401830416,1.0029811459353668,-0.7828150186095265,0.7091517561327412,0.13741865703752934,-0.7656384309065533,0.6552407118411745,0.21544322910791686,-0.7302132417630155,UP
-1.0841216158330258,-0.666145650815083,0.32368755327342547,-0.4410203245657642,0.8091691059742496,-0.16363587392613074,-0.33963087796914965,0.8150014612589783,0.40193912976329,-0.3732823770298844,0.7902206836084114,0.4082254991596654,0.1467077392036136,0.7056284050236169,-0.6657134740915311,-0.43497511440623704,0.8784576455377396,-0.3861637289713688,0.7094062827814772,0.13846634174006822,-0.7658974633464741,0.7354761768520551,0.1562475117107358,-0.7731852863672399,UP
-1.1002018523905426,-0.6742786044253887,0.33951913570407805,-0.4410203245657642,0.8311257233888912,0.01383140027947626,-0.34030866001181864,0.815256517245376,0.4022425798522401,-0.3564463588136559,0.7897234188065025,0.41567002758056454,0.02569130418641544,0.6859790664775443,-0.6691363212304816,0.07270150761842069,0.9199655243163105,-0.06884245477475792,0.7097654556651047,0.14178322087580147,-0.7652657413756476,0.7227430987251391,0.2685465253412773,-0.7325042053679895,UP
-1.1404021693494675,-0.6915613911051347,0.33895358143476967,-0.5324242642438894,0.6774304081891044,-0.37068106278097873,-0.34091564189206897,0.8157858457650916,0.40235731581043555,-0.34970523193743425,0.8105150302339331,0.4106430967358008,0.12941977821782735,0.6637664816561835,-0.6611499115636562,0.28423358125235526,0.8161959633079687,-0.06884245477475792,0.7086514796162601,0.14281602561484405,-0.7648666199631164,0.6419428138302037,0.1620837849531909,-0.7435187576597961,UP
-1.124321932791951,-0.7057943722325856,0.3366920591416507,-0.32676536254961835,0.06265025476293086,-0.10448011398482224,-0.34175056575864365,0.8153945269914405,0.4024857307514815,-0.3703800311581925,0.7924780385879014,0.4086167737414401,0.12423353154543049,0.6637664816561835,-0.6525931442023682,0.1784675721460743,0.4011178552126871,0.5922426815468125,0.7072910785626711,0.14387182666110815,-0.7641582455355792,0.6322990372913433,0.1793774673187793,-0.7350350742526556,UP
-1.1042217743124882,-0.664112308309368,0.32086024511629324,-0.0754045359184718,0.43590977384812707,-0.13405800364223255,-0.3422314888131235,0.8156469625396217,0.4025426799862065,-0.3641850863189715,0.807633690951169,0.405481003375253,0.10867408341154493,0.6714555206195838,-0.6714179856657232,0.2419272607419019,-0.013960239288785956,0.16914793795857497,0.706863041705115,0.14447581790666475,-0.7638648516495468,0.6759129846346421,0.17314587917405896,-0.7501359252644957,UP
-1.0827818248156216,-0.6824115580356943,0.3287761521289719,0.29021119285923785,0.06265025476293086,0.5166554332062095,-0.34275040219865777,0.8149656486033539,0.402807047267012,-0.3813234860730349,0.778098433929546,0.4093814870266176,0.12769055724923187,0.6680380922066876,-0.6885315203882991,0.19962066312458512,0.33885617298291626,0.8302335938931841,0.7066152664263721,0.144433883464084,-0.7637670536875357,0.685336771589032,0.1287213585756316,-0.7672535624188035,UP
-1.085461955720163,-0.6712287988730937,0.32764527518506,0.26736017052121736,0.6115612750185396,0.1617208154378221,-0.3430914517615292,0.8149621546857321,0.4030088820547868,-0.37269656664319695,0.7865161045305719,0.40989510458659634,0.11213181723204109,0.6817074559270401,-0.6617202692581184,0.36884636082669364,0.9199655243163105,0.46002558500075985,0.7064971174514945,0.14600371961294972,-0.7633758618394922,0.6855338174745088,0.18765487731314714,-0.7482825910708288,UP
-1.1176218799654636,-0.6783452894368189,0.33216878296070773,0.22165827551913314,0.37004049686289037,-0.19321368608949263,-0.34316052509071826,0.8150957970347691,0.4031264096421355,-0.35756026003422486,0.8042087687039287,0.4096665823949616,0.15535171969650663,0.6859790664775443,-0.662290860609973,0.41115268133714694,0.6501647200698562,-0.12172955319969832,0.7064025982715925,0.14641494769503088,-0.7634128664737663,0.6861344025364067,0.14317119394023095,-0.7628535414099417,UP
-1.1256622726790881,-0.6773284099776837,0.3282108294543684,-0.05255361835222105,0.0406937955444285,-0.6368820309506472,-0.34343163790778614,0.8150992909523912,0.4031015641426723,-0.35640414600637993,0.8126876142366478,0.4069098244441689,0.12077579772493431,0.678290027514144,-0.6634315759988975,0.47461250848640635,0.7539342810781977,0.30136503450462754,0.7062189610077829,0.14756138124622725,-0.7631062566469219,0.6782782100750387,0.1746383946213866,-0.7503573762919038,UP
-1.0975217214860011,-0.6569958177456428,0.3576124720225545,0.17595633561486188,0.7652563025889825,-0.4889925826635957,-0.34293862702069805,0.8152460354925104,0.4035370582905674,-0.3278906869202235,0.7873428400360298,0.4287459559116608,0.13114829106972803,0.679998741720592,-0.6822566511196448,0.36884636082669364,0.23508661197457445,0.27492175375889405,0.70645323354654,0.1475830248294948,-0.7631881954799578,0.7027145991328522,0.13870776598761506,-0.7692176221261745,UP
-1.1095820361215714,-0.6752954838845239,0.3496965650098758,0.06170135863132041,0.43590977384812707,-0.5777261741417782,-0.342855739025671,0.8151665488666124,0.40378942156601444,-0.3430209631281561,0.7908525332600456,0.42099125041845775,0.122504310576835,0.6671839100690796,-0.6833976001659616,0.8553699472942132,0.29734829420434533,0.16914793795857497,0.7065430267674471,0.1476878609359463,-0.7631353317167091,0.678367285612309,0.14059559633720767,-0.7613640196184456,UP
-1.1122621670261128,-0.6773284099776837,0.32764527518506,-0.23536142287149311,-0.09104481595191372,-0.6368820309506472,-0.34344027207393507,0.8148634515129137,0.40375285122410814,-0.36369317789132644,0.803115485281806,0.4074323599433335,0.15016547302410976,0.6765813133076959,-0.6605793202118015,0.5592250109538812,0.19357873319600355,-0.3597201018169428,0.7061143147728915,0.14782719150323034,-0.7630745383889721,0.66452886104563,0.14681642761383906,-0.7552213899296208,UP
-1.120302010870005,-0.6671621138616635,0.33951913570407805,-0.23536142287149311,-0.44234787581860757,-0.7847712855025777,-0.34354301865110354,0.8143795439222825,0.4038530707107068,-0.34105419090343886,0.8082559273992515,0.41523332724606266,0.03260677182740797,0.679998741720592,-0.6805453443788657,0.4323057723156577,0.15207099035551813,-0.4654937444129156,0.706775273895206,0.1498704810360709,-0.7627547126213158,0.721662720428399,0.24247725552795632,-0.7408613453308971,UP
-1.0908216686595138,-0.6681789933207982,0.3310379060167958,-0.16680835585743156,-0.2447399010482255,-0.25236954289836167,-0.34407229303601644,0.8136991034654202,0.4039870689100593,-0.36453484957925814,0.7903456552545851,0.4119543124817046,0.14325000538311744,0.679998741720592,-0.6691363212304816,0.580378101932392,0.15207099035551813,-0.33327664786686306,0.7067482684152341,0.1498785973797961,-0.7628313650780265,0.6841369510945884,0.14389929944899493,-0.7620257363789158,UP
-1.0640214573535633,-0.6732621413788088,0.33725738181625414,-0.05255361835222105,-0.46430420560390523,-0.6368820309506472,-0.34471812866393514,0.812348704304561,0.40414284181680676,-0.37598658115313804,0.7646268400430409,0.4167850486643819,0.11904657675633884,0.6825616380646481,-0.6811157020733279,0.5169186904434279,-0.0762220397846912,-0.5712675602132347,0.7072114123967537,0.14993338269994186,-0.76305074969551,0.7094168584977643,0.1539623495461114,-0.7662754870477508,UP
-1.0921620085466504,-0.6956280761165649,0.3304723517474874,-0.5095733915798257,-0.6179993769890202,-0.5481484394724647,-0.3459208680084426,0.8111144779046299,0.4041330711147703,-0.38480647341623786,0.7772760680620663,0.4081906634597211,0.14843625205551428,0.6714555206195838,-0.6719885770175779,0.19962066312458512,0.3596099764341162,-0.5448242794675011,0.7066091901933783,0.14983936838512393,-0.7631617635983338,0.6679866114469399,0.13078600494443463,-0.7613956554795042,UP
-1.089481877642109,-0.6935947336108498,0.31859872282317425,-0.8980401726303472,-0.3984349286186684,-0.45941465425916117,-0.3476485646547879,0.8102025654053172,0.4040082852916234,-0.39573011415623566,0.7823518395374358,0.40150611066880754,0.13979227156262125,0.6808529238582001,-0.666854423137848,0.47461250848640635,0.06905536873646181,-0.12172955319969832,0.7065106201914805,0.1499354117858731,-0.7631406180930342,0.6839324822476727,0.15105328903233384,-0.7596609557648062,UP
-1.072061850067188,-0.6895280485994196,0.3361265048723422,-0.0754045359184718,-0.02517551451818277,-0.16363587392613074,-0.34842304935832247,0.8092495993739478,0.404193370304479,-0.385107993468209,0.7627216778845862,0.41359103300788796,0.12077579772493431,0.6688926242755278,-0.6640021673507521,-0.054217647887743727,0.13131705096623267,0.2484784730131605,0.7055519256524748,0.1504548577842914,-0.7627652853739653,0.6585567511604635,0.16957258205579517,-0.7461049893013137,UP
-1.1310219856184387,-0.6763119469311039,0.33443030525382683,0.01599932892267505,-0.156914136081552,0.13214292578041179,-0.3483531126125183,0.8092225215123783,0.4043711970815364,-0.34721553779401193,0.8139609267434685,0.41039673866579446,0.14152149253121674,0.6714555206195838,-0.6702770366194064,0.19962066312458512,0.5671492343888852,-0.06884245477475792,0.7049699575590784,0.15069428992418737,-0.762709778422554,0.6673570093539613,0.14037171902010867,-0.7581371617904965,UP
-1.1055621141996257,-0.680378631942534,0.3248181986226326,-0.34961638488763885,0.19438885187780588,-0.19321368608949263,-0.3490904704016129,0.8091910762537813,0.4043837594127257,-0.37197464149019116,0.798016117761355,0.40580232787153914,0.14152149253121674,0.6723097027571918,-0.6531635018968305,-0.11767705937670783,0.9614732671567959,0.22203467265438823,0.7037803661663121,0.15169936382216842,-0.762315943386348,0.6477549926370895,0.1642855813901268,-0.744562741074721,UP
-1.1310219856184387,-0.6844449005414095,0.3332994283099149,-0.14395748319336785,0.1724325220925083,-0.07490222432741195,-0.3492847391399579,0.8093849886817961,0.40448062894434067,-0.35431762724673616,0.8102712044347546,0.4087424609468391,0.13287751203832351,0.6868332486151523,-0.6839679578604239,0.09385465401830416,0.899211584927025,-0.3861637289713688,0.7041955754208816,0.15210044647459287,-0.7626701306001167,0.7191800772343281,0.13751778745528626,-0.7744691750618569,UP
-1.1176218799654636,-0.6935947336108498,0.2965474329983584,-0.5095733915798257,0.45786624744809673,-0.16363587392613074,-0.35073355221970154,0.8099090763250787,0.40411045891862996,-0.40165885986385946,0.814197761121882,0.3864919239928096,0.13806375871072038,0.6996480802666647,-0.6628612183044352,-0.054217647887743727,0.8784576455377396,0.03693089337382626,0.7045257174135392,0.15306629137790176,-0.7627388534923405,0.7206572465607268,0.16678319169950603,-0.7654239551209304,UP
-1.120302010870005,-0.6783452894368189,0.3287761521289719,-0.05255361835222105,0.45786624744809673,0.30961012811028893,-0.35091832337528306,0.8102969011811083,0.40426874429161486,-0.3593452587418962,0.8079212131301284,0.40746914644247445,0.15016547302410976,0.6902506770280484,-0.6674247808323105,0.11500816065711021,0.2765944907531454,0.5922426815468125,0.7046094344014523,0.15308725859919226,-0.762736210304178,0.7029595568603453,0.14347305855097425,-0.7677570998739821,UP
-1.1310219856184387,-0.6854617800005441,0.3225566763295135,0.3359132375352789,0.32612754966295127,0.1912986857217203,-0.35089846479314096,0.8106847260371376,0.4042907981619248,-0.36494922427925386,0.8152298696123107,0.40221397209167564,0.13979227156262125,0.6902506770280484,-0.6771224972399152,0.8130633496768964,0.3803639158234017,0.46002558500075985,0.7054783357195511,0.15315218934899447,-0.7628551537714886,0.7169383428796927,0.14107898309695033,-0.7726580220162675,UP
-1.1229821417745465,-0.6691954563673785,0.3496965650098758,0.4501680498774678,-0.156914136081552,-0.6368820309506472,-0.35010153125762017,0.8104270496125237,0.4045130118425175,-0.33179752530791207,0.8038766762175923,0.42086361241386167,0.11040259626344562,0.677435845376536,-0.6719885770175779,0.6649910200601621,-0.49130017914573254,0.6715726969883592,0.7056673740793551,0.15322591280449924,-0.7625485439446442,0.6891589219155386,0.17323932946558088,-0.7540403177834439,UP
-1.1430823002540091,-0.6773284099776837,0.3366920591416507,0.0388504350781114,-0.5521299561891114,-1.1101279167459943,-0.3498304184405523,0.8101658792702876,0.40442954213083765,-0.33984466475210146,0.8211000412721001,0.4108409635114843,0.13114829106972803,0.6560777926240153,-0.656586349035781,0.7707570291664431,-0.5743156648267033,0.5393559468509991,0.7045270676875377,0.15303044419311523,-0.7619247515383045,0.6190976377790822,0.16297324348328746,-0.7363084176602527,UP
-1.1270020636964924,-0.6742786044253887,0.33216878296070773,0.01599932892267505,-0.6179993769890202,-0.7847712855025777,-0.34978379394335013,0.8096950738707382,0.40439101764852387,-0.3498043028116537,0.8132434321874631,0.409553157355943,0.11213181723204109,0.616778765600638,-0.670847627971261,-0.11767705937670783,-0.5535618613755033,0.27492175375889405,0.701552414068623,0.15252114362435365,-0.7611106495842686,0.5579169147826023,0.14526811091330075,-0.7231215362424418,UP
-1.0787619028936757,-0.6712287988730937,0.34517328882893294,0.29021119285923785,-0.02517551451818277,-0.04532433467000163,-0.3497155840307756,0.80894824897906,0.4047366213376872,-0.35959853558555255,0.7725507415525408,0.4208084326651498,0.11213181723204109,0.6817074559270401,-0.6503112461097346,-0.4561282053847478,-0.470546239756447,0.3542517692004408,0.700663258640545,0.15323673459613277,-0.7606058006452403,0.6714504351803365,0.20377807796981773,-0.7388498318319385,UP
-1.1162820889480594,-0.7047774927734505,0.3287761521289719,-0.02970250620982642,-0.2886527044334926,0.28003239344097547,-0.35033465374363415,0.8083534095039341,0.40481729942021377,-0.38098233767137574,0.7911155854663277,0.40454573450314835,0.13114829106972803,0.6842703522710961,-0.6628612183044352,-0.2869027847895027,-0.09697588809545937,-0.2010595513208105,0.7002514250709722,0.15347616673602876,-0.7605740823872905,0.6883606161534875,0.16722153407412643,-0.755753926924103,UP
-1.0801016939110801,-0.681395094989114,0.34800036539136026,-0.006851588643575686,-0.33256565163343177,-0.10448011398482224,-0.3505790006456407,0.8072449641383904,0.4051475491490345,-0.36384393791731234,0.7668238940184334,0.42114898646780535,0.13114829106972803,0.6688926242755278,-0.6816860597677902,0.136161251635621,0.6086568412912851,0.14270465721284142,0.6999449128732902,0.15357085741282378,-0.7606163733978897,0.6781081567766136,0.13466520049897515,-0.7631883542728088,UP
-1.0948415905814595,-0.6773284099776837,0.3361265048723422,0.08455227619757115,0.21634532547777544,0.014230713355838028,-0.35075513763507327,0.8070309616840499,0.40534575481890983,-0.3645813698158481,0.7859174641275711,0.41362001631024176,0.11904657675633884,0.6808529238582001,-0.6605793202118015,0.32653976320937683,0.5256412196722288,0.11626132450580404,0.6998341904054052,0.15454820046974352,-0.7603758432751067,0.6807379095701156,0.18160077749189277,-0.748828309674085,UP
-1.0975217214860011,-0.6590291602513578,0.344042411885021,0.26736017052121736,0.21634532547777544,-0.10448011398482224,-0.3503242927442555,0.806969818125667,0.4056508798853519,-0.34214741646330143,0.7933668229526487,0.42041464991297944,0.10694557055964422,0.677435845376536,-0.6754111904991359,0.2630803517204127,0.691672598848427,-0.3861637289713688,0.6999327604073028,0.1553990638369442,-0.7603890592159186,0.69405335276267,0.17211523675029639,-0.7558541071507874,UP
-1.0868017467375675,-0.6488628641353371,0.3547853954601271,0.22165827551913314,0.5017790508333638,-0.04532433467000163,-0.3497009059483225,0.8069680711668561,0.4061310400996982,-0.32975235786968243,0.7851230639431511,0.4287872013803949,0.11213181723204109,0.616778765600638,-0.6594386048228769,-0.13883019192124815,0.7954420239186832,-0.8357017533053398,0.6967339613046204,0.15610992027488377,-0.7596621824712435,0.5430622193134305,0.16039697357600866,-0.7136966859688156,UP
-1.1122621670261128,-0.6824115580356943,0.3474350427167568,-0.5781263089199304,-0.2227834274482559,-0.13405800364223255,-0.3501464289215933,0.8064553387558442,0.40637809927975405,-0.34910133034762825,0.7902940935264435,0.4186026361446761,0.13287751203832351,0.6663293780002395,-0.6896724694346159,-0.054217647887743727,0.5048874162210288,-0.33327664786686306,0.6964314999289343,0.15603010956158503,-0.7599767218625755,0.6819849670918996,0.12110415136021681,-0.7686903577752029,UP
-1.0814414849284844,-0.7047774927734505,0.3802290845219739,-0.9894439626345156,0.0406937955444285,0.1025650554965136,-0.3514225586783643,0.8052018958089925,0.4070519985573307,-0.35004034993805394,0.7393406189913295,0.43718817877896443,0.14497851823501812,0.6569319747616232,-0.6816860597677902,-0.20229000521516433,0.3803639158234017,-0.280390086375396,0.6953877381280168,0.15551269264909823,-0.7600798062009116,0.6495236819036455,0.11505677458151796,-0.760836755267474,UP
-1.1270020636964924,-0.6752954838845239,0.34234621226650547,-0.6466792262600352,0.4139533002481576,0.1025650554965136,-0.3517325252431005,0.8056360150735118,0.40726834981670185,-0.34116359960801124,0.807456283649258,0.4154908327400507,0.14152149253121674,0.6876877806839924,-0.695376981008808,0.030395228673996886,0.3596099764341162,-0.33327664786686306,0.6961985776641758,0.15496010491380174,-0.7607009554190881,0.7328282040622932,0.1135393838767351,-0.7862060795144952,UP
-1.0935017995640552,-0.6824115580356943,0.31520609199143845,-0.34961638488763885,0.34808387944824887,0.28003239344097547,-0.3527349519329595,0.8057111343023823,0.4072186588177754,-0.388541014631371,0.7929193720236903,0.4005622025431163,0.15535171969650663,0.6842703522710961,-0.6571567067302432,-0.26574969381099195,0.6086568412912851,0.27492175375889405,0.6956537421057408,0.1552908459206071,-0.7606058006452403,0.6759743927701846,0.14951169537435077,-0.7577838946753455,UP
-1.1270020636964924,-0.6610625027570729,0.3282108294543684,-0.25821244520951364,0.21634532547777544,0.546233361610644,-0.3527202738505064,0.8062395893426928,0.4073836441007281,-0.34356542219343067,0.8222623649742767,0.40878537852917063,0.15016547302410976,0.6851245344087041,-0.6948066233143455,0.05154837507388038,0.44262559805317253,-0.06884245477475792,0.6963153763650546,0.15461651302943138,-0.761168799723843,0.7248998064305621,0.10425553441180437,-0.7868414330574166,UP
-1.1216423507571422,-0.6834284374948291,0.35026211927918416,-0.34961638488763885,0.06265025476293086,0.2504544650365409,-0.35278071301354713,0.806093718281979,0.407705518942089,-0.3425635141350226,0.7951959534102844,0.4195457082135684,0.12769055724923187,0.6842703522710961,-0.6873908049993744,0.2207737541030959,-0.2630071177397635,-0.4126071829214486,0.6969635078843825,0.15410247792683,-0.7615520620073989,0.7188048802743107,0.13718768606580983,-0.774463902418347,UP
-1.102881983295084,-0.6783452894368189,0.3400844583786816,-0.32676536254961835,0.08460671398143323,-0.13405800364223255,-0.35312262599303373,0.8058517644866632,0.4078554294276145,-0.3576085032425403,0.7892873289362875,0.4153364409178977,0.12769055724923187,0.678290027514144,-0.6605793202118015,-0.15998367084936782,0.048301456534793466,-0.6505975756547815,0.6964132712299531,0.15451302964693384,-0.7614859823033375,0.6732258725936554,0.17133469150959935,-0.7499223832023517,UP
-1.1136019580435177,-0.6925782705642698,0.33951913570407805,-0.25821244520951364,-0.003219050985240245,0.1912986857217203,-0.35351461713618243,0.8055521610505866,0.4080159481039223,-0.3633485835462163,0.7900528895100521,0.41257717479670897,0.16745343400989582,0.6911048591656563,-0.6811157020733279,0.2419272607419019,0.13131705096623267,-0.6505975756547815,0.6970560016532864,0.15368042805311505,-0.7621044883333514,0.7178905063879378,0.10693197765316058,-0.7839124795877661,UP
-1.0801016939110801,-0.6783452894368189,0.32594907556654457,-0.4181693022277436,-0.46430420560390523,0.01383140027947626,-0.35441343383225715,0.8046393750718689,0.4080511226312523,-0.38230471847073655,0.7796793689500253,0.40835480927785894,0.14843625205551428,0.6723097027571918,-0.662290860609973,0.009242096129456579,0.6709185235210561,-0.5977108409589682,0.6963153763650546,0.15401252178387478,-0.7620965587688645,0.6577280787379794,0.14436722321085974,-0.7539638644525527,UP
-1.0975217214860011,-0.6712287988730937,0.34121533532259357,0.22165827551913314,-0.3545219814187293,0.01383140027947626,-0.354182901596088,0.8040183312145786,0.4082632864468936,-0.353926512665036,0.788462341286021,0.41722899482447207,0.09657236909815572,0.675727131170088,-0.6588680134710225,-0.011911036415083733,0.7954420239186832,-0.5712675602132347,0.6958684356715182,0.1556526995783594,-0.7617767330012074,0.6724613075654188,0.20520941372988996,-0.7386837435613821,UP
-1.057321404527076,-0.6722452619196736,0.3338649825792232,0.3359132375352789,-0.2227834274482559,0.28003239344097547,-0.35442034116517646,0.8029963603101767,0.4084894084083007,-0.3818179789582679,0.7619080512930627,0.41531135921393775,0.11731806390443815,0.678290027514144,-0.6719885770175779,-0.054217647887743727,0.2143328085233745,-0.3597201018169428,0.6957428601896484,0.1560409313532188,-0.7617661602485573,0.6895138744352671,0.16640939053341863,-0.7563602809277208,UP
-1.089481877642109,-0.6895280485994196,0.3434770892104174,0.24450929785715367,0.12851957489256918,0.1617208154378221,-0.3544928681608248,0.8024984770490577,0.4087144137180467,-0.36945996425674776,0.7718585908968086,0.41685221189387445,0.1570802325484073,0.6851245344087041,-0.6571567067302432,-0.2869027847895027,0.4011178552126871,-0.17461623593420772,0.6952115273711995,0.15620258186574754,-0.7617661602485573,0.6774765302396061,0.14805615666107882,-0.7587013346460366,UP
-1.1136019580435177,-0.7251105014180466,0.34460796615432937,0.08455227619757115,-0.2447399010482255,0.1617208154378221,-0.35495306921654807,0.8016625572580215,0.4088330579570566,-0.38263036012686574,0.7706455793940861,0.4116541680909842,0.14497851823501812,0.6740184169636398,-0.6605793202118015,-0.3503621962784668,0.006793604943839655,0.2484784730131605,0.6942967167371483,0.15613426930605967,-0.7615467756310738,0.6600710352940583,0.15114606701959998,-0.7524927969133405,UP
-1.148442562063092,-0.7129108627963108,0.33951913570407805,0.15310522347246724,-0.3106091780334622,0.5758110962799575,-0.35491076180241976,0.8014703917888178,0.408961752061018,-0.3609674366215033,0.8049612203637585,0.40790361729218,0.1346060248902242,0.6731642348260319,-0.6828270088141071,-0.5195880325340071,-0.5328079219862178,-0.33327664786686306,0.6938369484406252,0.15527596595711082,-0.7617555874959079,0.6879510036449794,0.13138704494889888,-0.767179745409668,UP
-1.1136019580435177,-0.6529295491467673,0.3270799525104565,0.587274034231634,0.06265025476293086,0.9307456559278086,-0.3541880820957776,0.8018608370830638,0.40920434463442895,-0.3452780560886292,0.817273112330874,0.4099628251872882,0.11213181723204109,0.6629122995185756,-0.6617202692581184,-0.7522728646182164,-0.7195931046136159,0.3542517692004408,0.6923543475901628,0.1552563514597745,-0.7612401658042286,0.6446933584507617,0.17902383528035845,-0.7388867403365063,UP
-1.0546412736225346,-0.7068108352791656,0.34065001264798994,0.587274034231634,0.1724325220925083,1.0490571758104255,-0.3546232440696698,0.8007689878262241,0.40957367717139387,-0.4023601093561588,0.7386161330145594,0.41527652351399347,0.1346060248902242,0.6706009885507437,-0.6514521951560515,-1.1118772124475125,-0.15923759751284733,0.22203467265438823,0.6906698807769098,0.15553365987038847,-0.7607961101929366,0.6434105357511345,0.17320504194854777,-0.7403788984497573,UP
-1.0466014297786423,-0.6722452619196736,0.33951913570407805,0.7472308912498641,-0.13495766248158245,0.9899015127366774,-0.3545420829078724,0.7996797590076012,0.40999158405562436,-0.3818429620482884,0.7510363920035316,0.4193910377058157,0.14497851823501812,0.6680380922066876,-0.666854423137848,-0.9003451942349505,-0.32526893590761985,-0.015955784510961447,0.6893493128062795,0.1550094793381306,-0.7606983122309255,0.6549235489433182,0.13986345700291053,-0.7545596731691514,UP
-1.0908216686595138,-0.642763253030747,0.3666590243844403,0.4501680498774678,-0.02517551451818277,0.9011679212584951,-0.35327458731724976,0.7993827760097407,0.4107358323878611,-0.3119557829164581,0.7850042097901468,0.43634459746911297,0.13287751203832351,0.6808529238582001,-0.6765521395454528,-0.9426520689591309,0.8784576455377396,0.5922426815468125,0.6888719909477744,0.15547955091222004,-0.7606850962901136,0.6972890891354805,0.145025409077046,-0.765574225460958,UP
-1.1631824587334716,-0.6763119469311039,0.35930867164107,0.4044661548753836,0.06265025476293086,0.9899015127366774,-0.3519993209770939,0.799961019376163,0.4112173884167836,-0.30835735646764323,0.8245450638540399,0.4230448846015747,0.15016547302410976,0.6765813133076959,-0.6828270088141071,-0.5830477211298347,0.8369499026972542,0.6715726969883592,0.6885573771061009,0.15533886762098156,-0.7608040397574242,0.6920505028034413,0.1166218988884452,-0.7731299236103876,UP
-1.137722038444926,-0.6671621138616635,0.34686948844744836,0.0388504350781114,-0.02517551451818277,0.7532784729714436,-0.35140356351283675,0.8003025498237025,0.41154791730851975,-0.3255577832038266,0.8172259202407103,0.41846886705688985,0.15362249872791114,0.6876877806839924,-0.6965179300551249,-0.41382202342772617,0.5256412196722288,0.5657994008010789,0.6891650004054708,0.15462733482106494,-0.761293029567478,0.7317559235416685,0.09944586976757867,-0.7904057400699878,UP
-1.0908216686595138,-0.660046039710493,0.34234621226650547,0.01599932892267505,0.15047604849253873,0.3391880565147234,-0.35128613885321525,0.8002248101566154,0.4118086554714262,-0.3478530373324664,0.7887620984513191,0.41971514905809787,0.2175888041153537,0.6791442096517519,-0.6548748086376095,-0.4772814349166903,0.3803639158234017,0.14270465721284142,0.6880408973016364,0.15350389757709004,-0.761464836798038,0.6481160184889047,0.08353108343012926,-0.7703696947330485,UP
-1.0988620613731384,-0.6935947336108498,0.3463041657728449,-0.48672221956784845,0.06265025476293086,0.427921841728027,-0.3519449257303573,0.7998002991655561,0.41203756906198663,-0.3651456430559667,0.7752232121399513,0.4174296484561512,0.122504310576835,0.6748725991012479,-0.6805453443788657,-0.03400563952835668,0.7954420239186832,0.22203467265438823,0.6881239391525503,0.15399967090630953,-0.761464836798038,0.6914161770077285,0.14780000873971305,-0.7629379037060977,UP
-1.0948415905814595,-0.6935947336108498,0.32764527518506,-0.09825543851732682,0.2602581288630426,0.014230713355838028,-0.3526494736880877,0.7996902407604668,0.41195661181654464,-0.3845842100636415,0.7817444598584785,0.4065790246374977,0.09830088195005642,0.6876877806839924,-0.666854423137848,-0.13883019192124815,0.19357873319600355,-0.06884245477475792,0.6884635330631982,0.1550345047312836,-0.7613036023201282,0.7078418410433034,0.19761842638044172,-0.7516069928037079,UP
-1.0921620085466504,-0.6915613911051347,0.33895358143476967,-0.0754045359184718,0.545691854218631,0.1025650554965136,-0.3530993137444323,0.7996701507341408,0.41203840655073243,-0.37386560295898397,0.7750868794350345,0.4137398511180502,0.14843625205551428,0.6979393660602166,-0.6805453443788657,-0.011911036415083733,0.712426402299627,0.30136503450462754,0.6894458573971793,0.15509267186131478,-0.7616657190983844,0.7360173782224396,0.13060918892522422,-0.7816452428785867,UP
-1.0908216686595138,-0.6905449280585547,0.3231219990041171,0.4273171772134041,0.8311257233888912,0.04340929555520508,-0.3534161876420878,0.8000911678075783,0.4119222747779604,-0.3885746125800195,0.7826585881234988,0.4044983579512241,0.12596204439733116,0.6577861568992313,-0.6976588791014416,0.1573143426141318,0.9199655243163105,0.40713885030494656,0.6893081294493222,0.15496889761950405,-0.7617397283669326,0.6749493492769001,0.11407453806415503,-0.7688221738629458,UP
-1.0988620613731384,-0.6783452894368189,0.3429115349411091,0.0388504350781114,0.8969950003741279,-0.04532433467000163,-0.35342136814177744,0.8006073941362121,0.41204566478653104,-0.3569804800485769,0.7848704988680169,0.4172799942891905,0.16399570018939966,0.6825616380646481,-0.6839679578604239,0.1784675721460743,0.7331803416889124,-0.17461623593420772,0.6897591209648544,0.1544913860636665,-0.7621837839782254,0.7035021078600825,0.10314556008588643,-0.7808464373868637,UP
-1.1082422451041671,-0.6885115855528396,0.32086024511629324,-0.21251040053347262,0.940907947574067,-0.31152520597210964,-0.35410951118382444,0.8014083747510292,0.411809492960172,-0.3803267469298033,0.7977285955823952,0.4022836434915646,0.1467077392036136,0.6919593912344965,-0.670847627971261,0.1573143426141318,0.7331803416889124,0.618685962292546,0.6903397387842523,0.15478898533359364,-0.7622419341177992,0.7116174291571459,0.14315640324660886,-0.770417148524636,UP
-1.1270020636964924,-0.6508962066410522,0.31294456969831935,0.13025430590621653,0.853082053174189,0.04340929555520508,-0.3538884765304193,0.8028199174702716,0.4116241287844014,-0.3499705695831696,0.8355801476039523,0.4008433963130669,0.14152149253121674,0.6859790664775443,-0.6645725250452144,-0.03306450910829899,0.8369499026972542,-0.14817288590673572,0.6903876735112027,0.15542679467800552,-0.7622710091875863,0.6919526546753791,0.15466356288465308,-0.7608815727373066,UP
-1.0948415905814595,-0.6763119469311039,0.3265146298358529,-0.48672221956784845,0.8969950003741279,-0.015746483759615536,-0.35464741973488567,0.8034103895483704,0.4115738794596442,-0.3727956375174164,0.7913690244690579,0.4079966982824314,0.12769055724923187,0.6919593912344965,-0.68682021364752,-0.13883019192124815,0.9614732671567959,0.14270465721284142,0.6912147163353447,0.15587319358289636,-0.7625723326381064,0.7347318562641072,0.1412208392948719,-0.7778383942645678,UP
-1.0734016410845928,-0.6824115580356943,0.33216878296070773,-0.9208910452944109,0.8091691059742496,-0.16363587392613074,-0.3559624032393257,0.8034724065861587,0.4115733211338134,-0.38287588359775704,0.7694238286154073,0.4120122790864117,0.14325000538311744,0.6885419628216004,-0.6594386048228769,0.2207737541030959,1.0444890247139376,0.03693089337382626,0.6914057801061465,0.15677140228849445,-0.7625036097458825,0.6908695771199337,0.16111970065072795,-0.7584746109751186,UP
-1.10690190521703,-0.6671621138616635,0.34121533532259357,-0.7609341882761809,0.7652563025889825,-0.16363587392613074,-0.35637943346430545,0.8040558908290136,0.4116752155979045,-0.3461886466455834,0.7975074919007032,0.41711696321345126,0.13287751203832351,0.6603494031745195,-0.6657134740915311,0.05154837507388038,-0.07454092474708618,0.4864688657464934,0.6904443850191438,0.15662327901550807,-0.762093915580702,0.6395202291423228,0.1506532680002797,-0.7464529837729557,UP
-1.124321932791951,-0.6691954563673785,0.3474350427167568,-0.5324242642438894,0.8969950003741279,-0.34110313437654416,-0.3563345358003323,0.8049153945639977,0.41178380997196296,-0.3332293148118458,0.8060370252339687,0.4194331192313487,0.14843625205551428,0.6945222875785525,-0.6731292924065023,0.2630803517204127,1.0444890247139376,0.7509030588385985,0.6912558996923022,0.15706764883446744,-0.762186427166388,0.7196322030674422,0.13930611677505722,-0.7740236366852848,UP
-1.135042456410117,-0.6824115580356943,0.3327341056353113,-0.23536142287149311,1.2263413853003116,-0.13405800364223255,-0.3564018822962917,0.8062221197545835,0.4117131817543878,-0.35130414969874635,0.8145770456983816,0.4083921531481992,0.14497851823501812,0.6817074559270401,-0.6891021117401537,0.5169186904434279,1.1275045103949084,0.5129123196965731,0.6920498608034786,0.15703247801165776,-0.7624428164181456,0.7117739861620452,0.11582185682433715,-0.7792540990469283,UP
-1.1430823002540091,-0.6651291877685032,0.3361265048723422,-0.23536142287149311,0.9848206071446624,-0.5777261741417782,-0.356048744900812,0.8074921588101391,0.41162943287979253,-0.33124186692642155,0.8278170487720466,0.4119760499584696,0.1363345377421249,0.6817074559270401,-0.6856792646012032,0.6226846995497087,1.148258449784194,0.9095636093347309,0.692883654997614,0.1573456336070585,-0.7624983233695575,0.7094431762701395,0.12941584887161778,-0.7742002702428612,UP
-1.1216423507571422,-0.658012697204778,0.312379015429011,-0.5324242642438894,0.8311257233888912,-0.6368820309506472,-0.35651844353929873,0.808664368172282,0.4112868999826979,-0.35857078295126094,0.8281115623717712,0.39999535603362274,0.12596204439733116,0.6876877806839924,-0.6794043953325489,0.5380719199753704,0.8577038420865395,0.30136503450462754,0.6937910391246728,0.15788063593095014,-0.7625881917670809,0.7170071739766744,0.15131952151753275,-0.7693678924662021,UP
-1.0921620085466504,-0.6864782430471246,0.33895358143476967,-0.5095733915798257,0.43590977384812707,-0.9326609275247504,-0.35719018166566424,0.8084547331149686,0.411176351468232,-0.3700914333941628,0.7777270147014069,0.4143604839482578,0.15535171969650663,0.6808529238582001,-0.6617202692581184,0.2630803517204127,1.0652428281651376,-0.3597201018169428,0.6936121278198584,0.15830742033850465,-0.7626304827776801,0.6741746620285192,0.14166859392907016,-0.7597664086350003,UP
-1.120302010870005,-0.680378631942534,0.2858044494232523,0.01599932892267505,0.391996826648188,-0.7847712855025777,-0.35800611036671137,0.8092015580066468,0.4104499695625757,-0.40027014465306465,0.8286385407119308,0.38138723986577044,0.1363345377421249,0.6765813133076959,-0.653734093248685,0.3053866722308661,0.7539342810781977,-0.06884245477475792,0.6931780147293085,0.1591420510182549,-0.76232915932716,0.6590088769935778,0.1709642518647896,-0.7457886306907305,UP
-1.137722038444926,-0.6996943447154403,0.3417808895919019,0.4273171772134041,0.743299685174341,-0.6664599593550817,-0.3575407288112991,0.8097570909085269,0.41035561249719854,-0.35447614064548705,0.802866415917054,0.41151148106401253,0.11386033008394197,0.678290027514144,-0.6748408328046737,-0.07537078043228404,0.08980930812574726,-0.09528622049266094,0.69317666445531,0.15936863228058562,-0.762278938752074,0.6937226935712879,0.16608735679500855,-0.7577127139879641,UP
-1.1042217743124882,-0.6834284374948291,0.32425287594802904,0.22165827551913314,0.08460671398143323,-0.5185705110680303,-0.35768923646905587,0.8095640519599175,0.4101749940909879,-0.37544642951717755,0.7957124446192967,0.40518169504133156,0.10521634959104875,0.6876877806839924,-0.6794043953325489,0.030395228673996886,-0.0762220397846912,-0.2010595513208105,0.6938018413166617,0.15961482804025265,-0.7623740935259218,0.7213671516001838,0.17291057268461552,-0.7636365289711357,UP
-1.0948415905814595,-0.6935947336108498,0.33443030525382683,-0.006851588643575686,-0.44234787581860757,-0.6960376940243953,-0.358075183695901,0.8085639180406525,0.4100619331102845,-0.37825573491568953,0.7783055547697082,0.410626654285427,0.17091116783039217,0.6808529238582001,-0.6805453443788657,-0.03306450910829899,-0.2837610571290489,-0.015955784510961447,0.693825471111637,0.15823166779706863,-0.762736210304178,0.6941808927364888,0.09971344686128865,-0.7791565551419983,UP
-1.1296821946010338,-0.680378631942534,0.34121533532259357,0.10740338833996577,-0.5301736264038139,-0.10448011398482224,-0.3576831925527517,0.8080843778470488,0.41014484449613353,-0.34466123221088174,0.8073479166274007,0.4140280120279895,0.12941977821782735,0.679998741720592,-0.666854423137848,-0.11767705937670783,-0.15923759751284733,0.06337422608086365,0.6935864726138851,0.15820731876589275,-0.7626146236487056,0.6843218503158919,0.1615842628913151,-0.7563787351800048,UP
-1.1109218271389762,-0.6864782430471246,0.33951913570407805,0.49587009455350883,0.06265025476293086,-0.5185705110680303,-0.3572549379117788,0.8078284483812457,0.41011999899667034,-0.360161085853945,0.7912589095920097,0.41349014882084933,0.16399570018939966,0.6791442096517519,-0.666854423137848,-0.18113677568322178,0.5048874162210288,0.9360068900804643,0.6931240037693647,0.15793203944121023,-0.762482464240583,0.6749716181612178,0.124719131342325,-0.7654318640861952,UP
-1.1176218799654636,-0.6539460121933477,0.35591627240403906,0.7700819135878847,0.018737408233262115,0.1617208154378221,-0.3557681345009807,0.8078004970402703,0.41051361870726805,-0.31722893788250944,0.8046326235878049,0.42678568140439455,0.1588094535170028,0.6893961449592083,-0.6719885770175779,-0.13883019192124815,0.4011178552126871,0.5657994008010789,0.6933035902111784,0.15762294201767224,-0.7626040508960554,0.7048422898071945,0.127696766890169,-0.7733909194641184,UP
-1.0801016939110801,-0.6549624752399277,0.36043954858498195,0.4730190722154884,-0.11300127517041608,-0.28194747130279624,-0.3548883129704335,0.8070484312721593,0.41091030920993443,-0.3323187242548916,0.7740381663202887,0.43183351366912476,0.17091116783039217,0.6902506770280484,-0.6503112461097346,0.11500816065711021,0.29734829420434533,0.010487560666788872,0.693102399385387,0.15761753112185534,-0.7625644030736187,0.6771620666004551,0.14511079171750133,-0.759552866572857,UP
-1.0881415377549721,-0.6732621413788088,0.3536545185162152,0.29021119285923785,-0.33256565163343177,0.1912986857217203,-0.35448078032821656,0.8061111878700884,0.4112584253653352,-0.34845004703536986,0.7740547709446055,0.42499233957126137,0.1570802325484073,0.6723097027571918,-0.6833976001659616,-0.6676602235973097,-0.055468104473548316,0.9095636093347309,0.6924434656740703,0.15658405002083592,-0.7625961213315685,0.6820902381814009,0.10679886141056112,-0.7732801939504144,UP
-1.1015421922776798,-0.6508962066410522,0.33725738181625414,0.587274034231634,0.08460671398143323,-0.04532433467000163,-0.3536674418770136,0.8061662170726331,0.4113915860759419,-0.340365863699081,0.804136232713492,0.4170968978502833,0.13114829106972803,0.6731642348260319,-0.6480293480171009,0.28423358125235526,0.23508661197457445,0.5129123196965731,0.691746724290793,0.15731384459413447,-0.7620066903713412,0.645480192363316,0.1828673987093546,-0.7378796654261499,UP
-1.1229821417745465,-0.6742786044253887,0.3485656880659639,0.8157839582639257,-0.06908835673341135,-0.10448011398482224,-0.35260198577426977,0.8060360686412179,0.411558804662217,-0.33664682922947786,0.8018150810195214,0.41957078991752833,0.1467077392036136,0.6817074559270401,-0.6879611626938369,0.7496039381879324,0.02754753073931656,0.5393559468509991,0.6926892155418155,0.15652250108091909,-0.7622445773059616,0.7100471354054193,0.11554419516679379,-0.7788296512443953,UP
-1.0948415905814595,-0.6763119469311039,0.3694861009468678,0.9757408152821557,-0.3764784550186989,-0.6664599593550817,-0.35133967068333727,0.804982652478219,0.4118837502956466,-0.33250049777193746,0.7692132120648627,0.43354770879198434,0.12077579772493431,0.6688926242755278,-0.6685657298786273,0.2630803517204127,-0.2837610571290489,0.16914793795857497,0.6923334183431846,0.15649003570601797,-0.761982901677879,0.6642170966651839,0.16329326030893074,-0.7498274756191765,UP
-1.0814414849284844,-0.6824115580356943,0.37174785483469164,0.49587009455350883,-0.13495766248158245,-0.13405800364223255,-0.35071369363755944,0.8038899297419742,0.4123460440834124,-0.34148321086310157,0.7550520893054123,0.4350018902504598,0.1570802325484073,0.6671839100690796,-0.6794043953325489,-0.4772814349166903,-0.49130017914573254,-0.06884245477475792,0.6915063755190423,0.15522253336091923,-0.7621309202149761,0.6661146755349114,0.10990087324568248,-0.7674908313767413,UP
-1.102881983295084,-0.6874947060937044,0.34121533532259357,0.13025430590621653,-0.17887062406298876,0.4574995763973404,-0.35082507438087746,0.8033501194693926,0.4125196834167399,-0.3633623673200202,0.7839450095442536,0.4148927734434071,0.14152149253121674,0.679998741720592,-0.6942360319624912,-1.0272645714266058,-0.3667766787481052,0.22203467265438823,0.6912795294872774,0.1541105942705552,-0.7624903938050698,0.7149557373607527,0.11186467397615257,-0.7814633366775012,UP
-1.0948415905814595,-0.6783452894368189,0.3038977857417287,-0.7380831659381605,0.06265025476293086,0.9603235843322431,-0.3523101509584453,0.8033937934396664,0.41238066028491166,-0.3953166009421036,0.8017827456984834,0.39415772877975475,0.22623278460824692,0.6714555206195838,-0.691383776175395,-0.9849583894695841,0.2558404154257744,0.03693089337382626,0.690352566387239,0.15167704387692402,-0.7632093409852573,0.6759710186968033,0.02324287161767471,-0.7976767154698919,UP
-1.0774215630065385,-0.680378631942534,0.33216878296070773,-0.6009771815839942,0.3041710760629817,0.8124341360451914,-0.3532918556495476,0.8030653651832091,0.4125593245507153,-0.37933517670174816,0.7734622480347743,0.4120033611472259,0.15016547302410976,0.6107984408436858,-0.666854423137848,-0.5618942144910287,-0.013960239288785956,0.3806955695592131,0.686807422003916,0.15082144597588348,-0.762408454972034,0.5313089720964875,0.10827456925149986,-0.7264222110795264,UP
-1.10690190521703,-0.6844449005414095,0.34517328882893294,-0.37246740722565946,0.6115612750185396,0.7828562076407569,-0.3536173637133515,0.8032985841844699,0.412846583190577,-0.3553944845752062,0.786460173164452,0.417358026257066,0.14325000538311744,0.6714555206195838,-0.6679953721841648,-0.09652392683216751,1.0237349493865666,0.3542517692004408,0.6863267244604144,0.15136050647163787,-0.7622445773059616,0.6641435418654684,0.14165985397374806,-0.7567610018344594,UP
-1.1109218271389762,-0.6752954838845239,0.34121533532259357,-0.18965952786940893,0.5896048014185701,0.7828562076407569,-0.35366485162716943,0.803665445534768,0.4130875007864959,-0.3502539984320228,0.7962201965523528,0.41586176327305785,0.1588094535170028,0.6646210137250236,-0.6782634462862321,-0.2869027847895027,1.1067507069437086,0.3542517692004408,0.6856104041041574,0.15133615744046197,-0.7622551500586119,0.6588064325906908,0.10849239583029913,-0.7657297684444946,UP
-1.0479412207960472,-0.658012697204778,0.31803316855386576,-0.006851588643575686,0.5237355244333334,0.8124341360451914,-0.35438580450058194,0.8034881292154572,0.41318604529560293,-0.39094972910369236,0.7704463239022844,0.4081410574230005,0.1588094535170028,0.6902506770280484,-0.6811157020733279,-0.4772814349166903,-0.07454092474708618,-0.2010595513208105,0.685783239175978,0.15059215926564423,-0.762722994363366,0.7178081789974304,0.11567394988811561,-0.7810889789883106,UP
-1.0921620085466504,-0.6691954563673785,0.3400844583786816,-0.6238280542480579,0.45786624744809673,0.7532784729714436,-0.35522418203361594,0.8038017083220215,0.41353416145100413,-0.3561525921344491,0.7861473070852195,0.41715179891339554,0.2175888041153537,0.6945222875785525,-0.6754111904991359,-0.6676602235973097,1.1897663285627649,-0.2539466324253163,0.6858210468479389,0.14966013246119061,-0.7634472279198786,0.7081178402459061,0.06267956694415469,-0.7950562116455614,UP
-1.0935017995640552,-0.6691954563673785,0.3282108294543684,-0.5095733915798257,-0.06908835673341135,0.6349669530888264,-0.35582080291448764,0.8035501462532458,0.4136137228818695,-0.36658087850335086,0.7932470948720485,0.40996421861528604,0.12596204439733116,0.6740184169636398,-0.6645725250452144,-0.6042005350014821,0.4841334768317434,-0.280390086375396,0.6850966248476903,0.1503649016413362,-0.7632727775011569,0.669247840076926,0.1656759065906102,-0.7505630093887831,UP
-1.1082422451041671,-0.6763119469311039,0.3355611821977387,-0.5552751369079532,0.018737408233262115,0.1025650554965136,-0.3562948186360488,0.8034470756834,0.4136394058700785,-0.35761539512944224,0.7966248250291255,0.4125417817255654,0.1588094535170028,0.6637664816561835,-0.6702770366194064,-0.30805601432144525,0.13131705096623267,-0.3068333671211295,0.6841514330486704,0.14985357198664312,-0.7632754206893193,0.6469499387282756,0.11877461711472567,-0.758875331881858,UP
-1.1149422979306545,-0.6712287988730937,0.3361265048723422,-0.37246740722565946,0.21634532547777544,0.1617208154378221,-0.3564510970433393,0.8036689394523898,0.4136879802173437,-0.34992921826175605,0.8039326075837121,0.41306375985353105,0.13806375871072038,0.6902506770280484,-0.6640021673507521,-0.20229000521516433,0.4841334768317434,-0.015955784510961447,0.6843985331904141,0.15043253783904675,-0.7632674911248317,0.7013663194096247,0.16101145966558394,-0.7616171065069123,UP
-1.1162820889480594,-0.6895280485994196,0.3400844583786816,-0.23536142287149311,0.12851957489256918,0.28003239344097547,-0.35665745361429196,0.8035868323882754,0.41375749178325805,-0.35921862032006835,0.7933205047900806,0.4131108577198557,0.10867408341154493,0.6868332486151523,-0.6600089625173393,-0.011911036415083733,0.23508661197457445,-0.2010595513208105,0.6846496841541537,0.15155056418720497,-0.7630375337546981,0.6954110798913653,0.19603313294584793,-0.7484697699154241,UP
-1.0586617444142132,-0.6671621138616635,0.33895358143476967,-0.14395748319336785,-0.09104481595191372,0.13214292578041179,-0.35706584967312344,0.8027116060239928,0.4139143813416663,-0.3725225464989161,0.7629427815662785,0.4189016657929983,0.11213181723204109,0.6885419628216004,-0.6742702414528191,0.11500816065711021,0.02754753073931656,0.1955913919086547,0.6853916597163842,0.1520341630008365,-0.7629925995559363,0.7156298772223663,0.1732016804272699,-0.7618622844301142,UP
-1.1162820889480594,-0.6793617524833988,0.33782293608556263,-0.006851588643575686,-0.06908835673341135,0.01383140027947626,-0.35697260067871783,0.8026111558923638,0.41392471036953316,-0.35375249252075575,0.7997858211424882,0.41299994085123304,0.09830088195005642,0.6868332486151523,-0.6845383155548864,-0.11767705937670783,0.08980930812574726,-0.2539466324253163,0.6861802197315664,0.152542787207621,-0.7631194725877338,0.7270490911745455,0.17261812033345006,-0.7653949555816275,UP
-1.1189622198526008,-0.6956280761165649,0.33895358143476967,-0.18965952786940893,0.2822146024630121,-0.13405800364223255,-0.3572316256631774,0.8026836546830179,0.41387390271894553,-0.3634511003638861,0.7926886551384463,0.4115282021999856,0.16226718733749895,0.6919593912344965,-0.6959475723606623,0.6226846995497087,0.5879030378400851,0.08981799179876666,0.6877141309939755,0.15180149448071156,-0.7637511945585612,0.7385681776988159,0.092936619965315,-0.7944946751117755,UP
-1.1176218799654636,-0.645813058583042,0.3383882587601661,-0.02970250620982642,0.43590977384812707,-0.4002589911854132,-0.3566272340327719,0.8033999077955045,0.41388423174681194,-0.3274099778087944,0.8181015956915231,0.4173410264354929,0.11386033008394197,0.6945222875785525,-0.6816860597677902,0.8342167177622707,0.6709185235210561,-0.09528622049266094,0.6893385106142907,0.1525610489810029,-0.76394414729442,0.7370714387468047,0.16373630881334006,-0.7712133176946041,UP
-1.124321932791951,-0.6712287988730937,0.3474350427167568,0.5187211168915293,0.19438885187780588,-0.6664599593550817,-0.3557163295040889,0.8036235185233055,0.4138747402076913,-0.3347498373596449,0.8049760771328841,0.419184531676546,0.09830088195005642,0.6893961449592083,-0.6628612183044352,1.2784337066124734,0.46337953744245797,-0.3068333671211295,0.6906422001599386,0.153963823721523,-0.7637379786177485,0.7067594383025342,0.20403422589118347,-0.7491868494327459,UP
-1.0760817719891342,-0.6722452619196736,0.3485656880659639,0.0388504350781114,0.10656318758140279,0.014230713355838028,-0.35570683192132546,0.8030312994863955,0.4140835540683489,-0.358493249223611,0.7682912184514818,0.42287878798424017,0.12596204439733116,0.6748725991012479,-0.6605793202118015,1.616884824909827,0.3803639158234017,-0.49193719836299543,0.6913497437352046,0.15462598209711076,-0.763550312258214,0.6661511155274311,0.1715962178650096,-0.7477236908587986,UP
-1.0975217214860011,-0.6844449005414095,0.3417808895919019,-0.23536142287149311,0.15047604849253873,0.014230713355838028,-0.3560254326522106,0.8027500391178337,0.4141497156792791,-0.36324951267199684,0.7812917653639467,0.41594731975212096,0.14497851823501812,0.675727131170088,-0.6845383155548864,2.018795077589281,0.3803639158234017,-0.04239912206772053,0.6927776584887237,0.1542012267754875,-0.7637644104993732,0.6933751640129985,0.11938439707451229,-0.7726422040857387,UP
-1.0948415905814595,-0.6569958177456428,0.33951913570407805,-0.0754045359184718,0.743299685174341,0.014230713355838028,-0.355852749329238,0.8032278323526266,0.4142580308904222,-0.34619984596179937,0.7948000642094677,0.4181389033070176,0.15189398587601047,0.6817074559270401,-0.6651431163970689,1.9976421251642025,0.7331803416889124,0.16914793795857497,0.6940138343344416,0.1545008551313459,-0.7637141899242863,0.6810604709853822,0.1410083911501171,-0.7620362816659355,UP
-1.135042456410117,-0.666145650815083,0.32764527518506,0.01599932892267505,1.0946028313298382,0.014230713355838028,-0.3555660950131025,0.8046751877274931,0.41414748237595667,-0.34383506726847946,0.8257773017638664,0.4073136398779232,0.13287751203832351,0.6970851839226085,-0.6725589347120401,1.6803450677193816,0.899211584927025,0.06337422608086365,0.6959339239604502,0.15524958784000345,-0.7638569220850591,0.7278244532376029,0.15758943100481956,-0.7705120561078113,UP
-1.1082422451041671,-0.6844449005414095,0.33725738181625414,-0.28106331787357736,1.204385199329686,-1.9974644127331822,-0.3559036909095146,0.8055058666420966,0.4137181298121981,-0.3620951216158774,0.791505357173975,0.41256379788793,0.13114829106972803,0.6808529238582001,-0.6736998837583569,1.7861098298447768,0.6086568412912851,0.08981799179876666,0.6971309418602087,0.15559926698216778,-0.7638384197679221,0.6941856164392228,0.15073259990243504,-0.7628139965836189,UP
-1.0961819304685967,-0.6752954838845239,0.3429115349411091,-0.37246740722565946,0.5676484716332725,-2.32282123771172,-0.356165306143819,0.8055757449945344,0.4133669428647286,-0.3560466293733277,0.7844807271603695,0.41782789017791466,0.16399570018939966,0.6688926242755278,-0.6771224972399152,1.9976421251642025,0.29734829420434533,0.30136503450462754,0.6979681117393405,0.15485594516932713,-0.7638859971548463,0.6654958704767534,0.10641900950617375,-0.7684082713474325,UP
-1.1002018523905426,-0.6895280485994196,0.3417808895919019,-0.05255361835222105,0.8091691059742496,-2.027041953667375,-0.3563690724649269,0.8058185722692554,0.4129987269794249,-0.36568665617778967,0.7806267064636788,0.4151533444789905,0.12423353154543049,0.6791442096517519,-0.6679953721841648,2.124561225248994,0.4841334768317434,0.9360068900804643,0.6992697758739905,0.15544438008941036,-0.7635291667529144,0.6849905916600953,0.16506814354359042,-0.7554507499222938,UP
-1.10690190521703,-0.6834284374948291,0.33895358143476967,0.3130622151972584,0.8311257233888912,-1.7608415667030697,-0.35615235489459623,0.8062666672042623,0.41266708143602754,-0.3604324539007199,0.7901796090114172,0.4137838834427795,0.1346060248902242,0.6680380922066876,-0.662290860609973,1.9130303154638861,0.5463951590615143,0.9624501708261979,0.6996309741686159,0.15587386994487343,-0.7630375337546981,0.6514914414997073,0.1570166277790884,-0.7480242315388521,UP
-1.1270020636964924,-0.6925782705642698,0.33895358143476967,0.7472308912498641,0.5896048014185701,-1.4650628638640877,-0.35554623643096045,0.8066536185808861,0.412377310329928,-0.35716397653734827,0.8001747189225399,0.41138105620342086,0.13979227156262125,0.6159242335317979,-0.6891021117401537,1.405352529590402,0.5463951590615143,0.5657994008010789,0.6981510738661507,0.1550331520073292,-0.7625617598854563,0.5733991879007234,0.09277728385674902,-0.744449379239262,UP
-1.1578227457941208,-0.6874947060937044,0.34460796615432937,0.4044661548753836,0.2822146024630121,-1.1692839672899846,-0.3547147662308451,0.8072397232619578,0.4121749172163228,-0.33280804822494814,0.8224485115521443,0.41335944527465834,0.16226718733749895,0.6825616380646481,-0.6759815481935985,1.0034422769109475,-0.09697588809545937,0.3806955695592131,0.6987789512754995,0.15419987405153335,-0.7627335671160163,0.6940958660872762,0.11567596680088219,-0.7740420909375695,UP
-1.074741432101997,-0.6946111966574298,0.3536545185162152,0.4730190722154884,0.10656318758140279,-1.1692839672899846,-0.3546318782358181,0.8062649202454515,0.4121905503395808,-0.37098824017731247,0.7531670274816568,0.423219899158095,0.22104582981915508,0.6620577674497354,-0.6805453443788657,0.7284507086559897,-0.1799915369021328,0.5129123196965731,0.6982246637990744,0.1517730872776732,-0.7630428201310231,0.6430292654590307,0.03870385258262563,-0.7828104970942347,UP
-1.0827818248156216,-0.6712287988730937,0.34234621226650547,0.5415721392295499,0.238301799077745,-0.5481484394724647,-0.3542528383418922,0.8059111610862355,0.41223354142853946,-0.36024981889781094,0.776983302317533,0.41886097769546315,0.15362249872791114,0.6791442096517519,-0.6605793202118015,0.45345900184760024,-0.013960239288785956,0.40713885030494656,0.698011995644295,0.15164119669213724,-0.7628604401478137,0.669380778568155,0.14430604352360435,-0.7574833539952912,UP
-1.0935017995640552,-0.7078277147383006,0.3219911220602052,0.1988072531811126,0.37004049686289037,-0.28194747130279624,-0.3549901961309874,0.8056665868527034,0.41198536559682236,-0.4010437589578375,0.7761722975087962,0.40157076572790407,0.1346060248902242,0.677435845376536,-0.6776930885917696,0.601531608571198,0.8577038420865395,-0.14817288590673572,0.6983407873629539,0.15206595201376052,-0.7629635244861491,0.69091209044454,0.140175406177487,-0.765242048919845,UP
-1.152462483985038,-0.6610625027570729,0.33782293608556263,0.5644231615675704,0.15047604849253873,0.2504544650365409,-0.3538168129513855,0.8064247669766526,0.41208167680260693,-0.3219369581225792,0.8359506929044958,0.41286589307784716,0.15189398587601047,0.6765813133076959,-0.6702770366194064,0.136161251635621,0.11056311157694723,0.14270465721284142,0.6980275237952788,0.1517568545902225,-0.7629688108624743,0.6762470178994058,0.13172790320646446,-0.7635732572490185,UP
-1.1095820361215714,-0.6610625027570729,0.3361265048723422,0.3130622151972584,-0.156914136081552,0.1025650554965136,-0.3533574753122774,0.8062893776688047,0.4121793838229681,-0.3450127184428945,0.8053195306779634,0.4146505956573942,0.16572421304130033,0.675727131170088,-0.6685657298786273,-0.011911036415083733,0.42187165866388704,-0.8092579529465675,0.6974826882368438,0.15143625901307387,-0.7632252001142326,0.6692788815520353,0.11906169103184691,-0.7655267716693703,UP
-1.0667015882581048,-0.6935947336108498,0.3310379060167958,-0.18965952786940893,-0.04713189751490898,0.2208765366321064,-0.354333136087075,0.8053250564051639,0.41221595416487444,-0.3956207054516633,0.7592154803709528,0.41039618129459554,0.12077579772493431,0.6629122995185756,-0.6543044509431473,0.2207737541030959,1.1690123891734796,-1.1530226810932582,0.6963984182159684,0.15289922996955638,-0.762939735792687,0.633401009657725,0.18023734446163142,-0.7350904370095073,UP
-1.1337021165229804,-0.7037610297268705,0.3474350427167568,-0.32676536254961835,-0.003219050985240245,0.4574995763973404,-0.3545774829890815,0.8051328909359603,0.41238652270613363,-0.35427799889704875,0.7949302794212153,0.4146230057830383,0.15189398587601047,0.6740184169636398,-0.6662838317859936,-0.11767705937670783,0.899211584927025,-0.7828150186095265,0.6957394845046518,0.15324552730183533,-0.7630586792599976,0.6656976400649641,0.13602527200795886,-0.7590335111871496,UP
-1.0841216158330258,-0.6773284099776837,0.34686948844744836,-0.37246740722565946,-0.3106091780334622,0.605389024684392,-0.354966883882386,0.8042218519160534,0.4127070017329179,-0.3598742110616408,0.7724799534172956,0.42071730247409544,0.1588094535170028,0.6851245344087041,-0.6645725250452144,-0.13883019192124815,0.6086568412912851,-0.280390086375396,0.695496435184904,0.15333886525467594,-0.763185552291796,0.6863435950860566,0.1359802276228366,-0.765228867311071,UP
-1.1430823002540091,-0.7118939833371757,0.3248181986226326,-0.48672221956784845,-0.06908835673341135,0.7237005445670089,-0.35574568566899445,0.8042777545980034,0.41261431964503287,-0.37634926670136676,0.8090127486970595,0.3996514580037723,0.23141903128064378,0.6834161701334882,-0.6349090181279378,0.1573143426141318,0.8784576455377396,-0.9943617841884335,0.6943048183811399,0.15288705545396844,-0.7633626458986802,0.6283479973616654,0.09756543476479711,-0.759919315296782,UP
-1.1323623255055755,-0.6874947060937044,0.33951913570407805,-0.3039144898855547,0.018737408233262115,0.605389024684392,-0.35585965666215663,0.8043563677444959,0.41275529691726814,-0.35018421807713784,0.8064652497558232,0.41198636132565325,0.16399570018939966,0.6876877806839924,-0.6845383155548864,-0.15998367084936782,0.29734829420434533,-0.7034846567592872,0.6946504885247813,0.15216064269055554,-0.7639547200470702,0.7153093402511285,0.10454193602467006,-0.7839098432660112,UP
-1.0774215630065385,-0.6946111966574298,0.3219911220602052,-0.6923812709360763,-0.06908835673341135,0.6645448814932611,-0.3572886111597588,0.803650596384875,0.41274999282187697,-0.3994448411965254,0.7711882884309669,0.40417842688293537,0.16226718733749895,0.6150700513941899,-0.6799747530270112,0.19962066312458512,0.33885617298291626,-0.4654937444129156,0.6920350077894941,0.1510006818998168,-0.763648110220225,0.554833011711957,0.08079480511002894,-0.7423719576964319,UP
-1.072061850067188,-0.6844449005414095,0.33782293608556263,-0.4410203245657642,-0.3984349286186684,0.6645448814932611,-0.35808036419559003,0.8025316692664657,0.4129657857554173,-0.3797349061420757,0.7644957509036977,0.4152277535340714,0.15016547302410976,0.6919593912344965,-0.6828270088141071,0.030395228673996886,0.29734829420434533,-0.3068333671211295,0.692760104926742,0.15066858816905732,-0.7640815930788677,0.7253647537425257,0.12316274699071986,-0.7809149817524901,UP
-1.0787619028936757,-0.6874947060937044,0.32594907556654457,-0.16680835585743156,-0.13495766248158245,0.2504544650365409,-0.35881254148499564,0.8018643310006855,0.4129280987618494,-0.38978413873135637,0.7739009596877761,0.40732729547230134,0.029149038006911803,0.6765813133076959,-0.6822566511196448,0.136161251635621,0.13131705096623267,-0.5977108409589682,0.6933846066510944,0.15263071426464495,-0.7637485513703987,0.7171016480313547,0.24203151780652488,-0.7396829095064743,UP
-1.0600015354316175,-0.6996943447154403,0.3355611821977387,-0.16680835585743156,-0.33256565163343177,0.014230713355838028,-0.359732080179827,0.8005252870720977,0.4129537817500588,-0.3992372231035966,0.7488113723450794,0.4127772710571888,0.14325000538311744,0.6577861568992313,-0.6640021673507521,0.4957655994649171,-0.32526893590761985,-0.06884245477475792,0.6924758722500367,0.15219784259929645,-0.7634392983553909,0.6295073289755315,0.1409189746841286,-0.746526800782092,UP
-1.1162820889480594,-0.6549624752399277,0.3332994283099149,-0.006851588643575686,0.43590977384812707,0.014230713355838028,-0.3593012352890093,0.8011943722966888,0.41298867711447346,-0.33968959729680215,0.8149432213609468,0.4132674790268051,0.1588094535170028,0.6851245344087041,-0.7216178744445262,0.7496039381879324,0.3803639158234017,0.14270465721284142,0.6942967167371483,0.1506584427394006,-0.7643564846477631,0.7546598084696271,0.06044415529444123,-0.8095823445148417,UP
-1.0787619028936757,-0.700711224174575,0.344042411885021,0.26736017052121736,0.32612754966295127,-0.22279161449392715,-0.35950931869319225,0.8006388393948091,0.4130372514617387,-0.38257264057405976,0.7578844886428214,0.4165052483224291,0.14325000538311744,0.6620577674497354,-0.6782634462862321,0.6861441110386729,0.9822272065460813,0.46002558500075985,0.6940739215273792,0.15086202769450982,-0.7641926069816907,0.6566247567422453,0.12365151218450673,-0.760251491837895,UP
-1.0921620085466504,-0.7139273258428908,0.33895358143476967,0.7472308912498641,0.5896048014185701,-0.37068106278097873,-0.3594626941959894,0.800442306528578,0.41294373188510736,-0.3903923477504764,0.7635143302138151,0.41101792886720134,0.16918194686179672,0.6594948711056794,-0.6765521395454528,1.2784337066124734,0.1728249297448036,0.5657994008010789,0.6939523968675053,0.14993338269994186,-0.7641000953960048,0.6434010883456663,0.09763333749460801,-0.7644906972197103,UP
-1.0868017467375675,-0.700711224174575,0.34234621226650547,0.8843368756040305,0.743299685174341,-0.8439271423114468,-0.3591423666318746,0.8003636933820854,0.4128432332355929,-0.3801466963844829,0.7646749060608002,0.4149830675776625,0.14325000538311744,0.6928135733721045,-0.6343386604334755,0.8976761292512347,0.2765944907531454,0.4864688657464934,0.6941333335833177,0.15114677608687194,-0.76352388037659,0.6689023349626654,0.1987680666574372,-0.7397250906545519,UP
-1.0921620085466504,-0.6834284374948291,0.3287761521289719,0.907187897942051,0.5017790508333638,-0.9030828053851947,-0.35870547782475276,0.800513058360421,0.41259366158929917,-0.3773382524718334,0.7845051971330469,0.4086577405245746,0.15189398587601047,0.6646210137250236,-0.6560157576839264,0.8553699472942132,-0.49130017914573254,1.5970923728107271,0.6935047810369697,0.15072810802304265,-0.7628577969596512,0.6322356047117721,0.14579990357944306,-0.7457991759777504,UP
-1.0787619028936757,-0.664112308309368,0.3287761521289719,1.227101611978511,0.5896048014185701,-0.8143492139070122,-0.35791976870522507,0.8007060973090303,0.412444030266689,-0.3697097951569531,0.7847009569144662,0.41187516577143096,0.14843625205551428,0.6620577674497354,-0.6640021673507521,1.4688127723999564,-0.15923759751284733,1.0417807058807835,0.6934777755569975,0.15037166526110723,-0.762389952654897,0.637599031758925,0.13739878960205335,-0.750109562046947,UP
-1.0988620613731384,-0.6905449280585547,0.3366920591416507,2.0497373684295517,0.018737408233262115,-1.376328884915663,-0.35642864821135306,0.8003619464232745,0.41217100893550834,-0.3718626483280303,0.781706880971867,0.4120878028838912,0.16572421304130033,0.6697468064131357,-0.6674247808323105,2.018795077589281,-0.5743156648267033,-0.015056789521927549,0.6941900450912589,0.14932803873043088,-0.7623978822193839,0.6548236763712272,0.11796045666125107,-0.761516926280228,UP
-1.0975217214860011,-0.6763119469311039,0.35082744195378773,1.8897808107592355,-0.3106091780334622,0.014230713355838028,-0.35464051240196703,0.7997138247044145,0.41240299331813746,-0.3487214150821441,0.7808582972765185,0.42232420364112694,0.1605379663689035,0.6714555206195838,-0.6845383155548864,1.405352529590402,-1.0724095304791268,0.8037897935344118,0.6949711785994487,0.14760534477473922,-0.7624851074287448,0.6809295569381821,0.10130277412141583,-0.7746800808022452,UP
-1.074741432101997,-0.6793617524833988,0.3496965650098758,1.66127058737903,-0.17887062406298876,-1.5833741900115834,-0.35337474364457466,0.7988394718195374,0.4123005405282159,-0.3634002726979827,0.763038913601797,0.4227572810628343,0.12596204439733116,0.6500974678670631,-0.6697066789249442,1.341893395208301,-0.5120539825969325,1.3591016336687018,0.6944864302339516,0.14728407283561326,-0.7618269535762943,0.6240393056535538,0.14781076560780196,-0.7426645894112215,UP
-1.0948415905814595,-0.6569958177456428,0.3417808895919019,0.9985918376201762,0.19438885187780588,-1.258017558768167,-0.35236281937195224,0.7989145910484079,0.41222153742318096,-0.3440814522252332,0.7936246315933569,0.4194905284648569,0.10348783673914806,0.6808529238582001,-0.6765521395454528,0.2630803517204127,-0.15923759751284733,0.724459778092865,0.6948955632555271,0.14776631892529063,-0.7615996393943232,0.7035500197020992,0.17564483409194925,-0.7575123535345949,UP
-1.074741432101997,-0.6763119469311039,0.34234621226650547,0.5644231615675704,0.545691854218631,-0.34110313437654416,-0.35216682380037817,0.7988106469991567,0.41230556546069164,-0.3680695260742281,0.7683890983421915,0.4187553558532321,0.14152149253121674,0.6714555206195838,-0.6782634462862321,0.2630803517204127,-0.9893937729219849,0.9624501708261979,0.6947699877736573,0.14670443062123256,-0.7614621936098754,0.6772234747359973,0.12956913424188377,-0.7645566052635818,UP
-1.0144409566636094,-0.680378631942534,0.3361265048723422,0.6558269515717388,0.4139533002481576,-0.6368820309506472,-0.35268487376929736,0.7977144303452901,0.41231868611771133,-0.40734811250163144,0.7245336637387152,0.4184161954785744,0.1588094535170028,0.6834161701334882,-0.6856792646012032,0.3053866722308661,-0.22149937489927807,0.5657994008010789,0.695287142715121,0.1457710510928248,-0.7617635170603947,0.7084964112793048,0.10666238364668403,-0.7812102497890345,UP
-1.0707215101800514,-0.6722452619196736,0.34065001264798994,0.587274034231634,0.5676484716332725,-0.10448011398482224,-0.3525044196967903,0.7976183476106882,0.41244765938458816,-0.36865447497505255,0.768389972269787,0.41850509618483195,0.16918194686179672,0.675727131170088,-0.6822566511196448,0.601531608571198,-0.11772981389093629,0.6451294162426258,0.6955619234738359,0.1447328354579653,-0.7619538266080917,0.6855392159919189,0.09707801417952128,-0.7774060374967714,UP
-1.0801016939110801,-0.6671621138616635,0.3361265048723422,0.5415721392295499,0.6554740784038068,0.01383140027947626,-0.35225143862863484,0.7978768975147079,0.4125436914274573,-0.3644064881857048,0.7803190839500203,0.4158188456907263,0.15362249872791114,0.6706009885507437,-0.6736998837583569,0.2419272607419019,0.4841334768317434,0.9888939711849701,0.6952068014122043,0.14467061015607166,-0.7617899489420195,0.6671478168043113,0.12265045114798856,-0.7637419818413299,UP
-1.0760817719891342,-0.6508962066410522,0.3491312423352722,0.7015289962477799,0.4798225772333943,0.2504544650365409,-0.35141824159528984,0.7979485228259563,0.41288929511662065,-0.3419596125452166,0.7790781067642375,0.4258696418386589,0.19165615451997964,0.679998741720592,-0.691383776175395,0.11500816065711021,0.7954420239186832,0.9095636093347309,0.695444449635958,0.1435985764223569,-0.7622445773059616,0.7013683438536535,0.06323421795498589,-0.7928575193020075,UP
-1.0653617972407006,-0.6905449280585547,0.3383882587601661,0.4501680498774678,0.2822146024630121,-0.015746483759615536,-0.351742022825864,0.7973641651036959,0.41295908584544994,-0.38709630283949575,0.7560841977958414,0.4152450320412437,0.17091116783039217,0.6697468064131357,-0.6679953721841648,-0.07537078043228404,0.7954420239186832,0.1955913919086547,0.694609305167824,0.14356611104745579,-0.7622445773059616,0.6544181127507769,0.11170264865056448,-0.763383442082669,UP
-1.0868017467375675,-0.6966445391631448,0.3338649825792232,0.1988072531811126,-0.2227834274482559,-0.4002589911854132,-0.35220913121450653,0.7966583937440749,0.4128490956568148,-0.3850881792933656,0.7710746778435364,0.4104318530513384,0.18646990784758277,0.6697468064131357,-0.6782634462862321,-0.07537078043228404,0.42187165866388704,-0.6770408564005149,0.6939827780324739,0.14265505146429242,-0.7626912761054163,0.6640173515210022,0.08158274569753703,-0.7758136991568353,UP
-1.1015421922776798,-0.6691954563673785,0.33499585952313515,-0.02970250620982642,-0.3106091780334622,-0.31152520597210964,-0.3522816582101549,0.7963806272931349,0.41282173769111374,-0.35619738939931356,0.7957010835605535,0.41350436178642636,0.11040259626344562,0.6697468064131357,-0.6930953165735665,0.1784675721460743,-0.03471417867807141,0.40713885030494656,0.6942319035852154,0.1426273206232311,-0.762709778422554,0.6980786223067399,0.14119193021188325,-0.7670426566784152,UP
-1.0921620085466504,-0.6996943447154403,0.34460796615432937,0.06170135863132041,-0.003219050985240245,0.427921841728027,-0.3526442931883987,0.7958294617882824,0.41300375191190064,-0.37459528148475535,0.7680028223449268,0.4161072852862653,0.17091116783039217,0.6834161701334882,-0.6828270088141071,-0.07537078043228404,0.13131705096623267,0.14270465721284142,0.6943838094100578,0.14184747526362662,-0.7630903975179474,0.7025384725023404,0.0977570414776296,-0.7822753237779982,UP
-1.1270020636964924,-0.6752954838845239,0.3304723517474874,0.0388504350781114,-0.04713189751490898,0.5166554332062095,-0.35256831252629034,0.7961613839623615,0.4130470221637747,-0.3521268686976977,0.8135816421669686,0.40841862828015696,0.15016547302410976,0.6594948711056794,-0.6822566511196448,-0.07537078043228404,0.2765944907531454,-0.22750283206654398,0.693557441722915,0.14157354866289829,-0.7632066977970955,0.6546104349335194,0.1100138203606154,-0.7639766144775127,UP
-1.1136019580435177,-0.6549624752399277,0.3649628247659248,0.6329760789076752,-0.6838686539742569,0.4574995763973404,-0.3509140062922086,0.7952625736541314,0.41360506883149467,-0.3115284859285215,0.7963844949403296,0.4322908367379935,0.1467077392036136,0.6646210137250236,-0.6685657298786273,0.1573143426141318,-1.5082418498398646,0.11626132450580404,0.6928242429416754,0.14034933348433443,-0.7630322473783729,0.6492874967669441,0.13419391521583246,-0.7546703986828555,UP
-1.0841216158330258,-0.6712287988730937,0.3853179149722251,0.4730190722154884,-0.9034331023446085,0.4870775048017749,-0.34983991602331577,0.7936833228890386,0.414347363023324,-0.3189458792070214,0.7556472339980304,0.4442238754253169,0.122504310576835,0.6791442096517519,-0.6816860597677902,-0.7734263712570223,-1.6950262168387495,-0.12172955319969832,0.6924927506750193,0.139292856076093,-0.7631406180930342,0.701999970390661,0.14810859639301188,-0.7659775826894515,UP
-1.0961819304685967,-0.6783452894368189,0.33725738181625414,0.1988072531811126,-0.6179993769890202,0.427921841728027,-0.34991503326880957,0.7929932741587161,0.41445819070070494,-0.3636087522767745,0.7857968621193756,0.41408430651909955,0.1588094535170028,0.6731642348260319,-0.6719885770175779,-0.13883019192124815,-0.7818549227814723,-0.12172955319969832,0.6919722200485592,0.1383716510632732,-0.7632278433023951,0.6694617563293099,0.12062009229621863,-0.7650865059363083,UP
-1.0707215101800514,-0.6702123358265133,0.3265146298358529,0.13025430590621653,-0.029907099200566903,0.3983439133235925,-0.3503847319072963,0.7926596050258259,0.41448471117766017,-0.3804654461537102,0.7766887887178086,0.41028888733876706,0.1467077392036136,0.6885419628216004,-0.670847627971261,0.1573143426141318,-0.9271320906922141,-0.015955784510961447,0.6923678503301488,0.1377865979530756,-0.7633626458986802,0.7041404825438529,0.14166590471204804,-0.768687721453448,UP
-1.0881415377549721,-0.6671621138616635,0.33499585952313515,0.13025430590621653,-1.079084459700349,-0.42983672585472665,-0.3504633028192488,0.7915992010275835,0.4144218995217136,-0.36142143967118645,0.78685781022046,0.41462105498384116,0.10521634959104875,0.6817074559270401,-0.6736998837583569,0.136161251635621,-0.3045149965183344,-0.17461623593420772,0.6926898906788148,0.13840344007619723,-0.7632807070656437,0.7015971060289158,0.17817337039708392,-0.7561151030045189,UP
-1.0626816663361591,-0.6610625027570729,0.33895358143476967,-0.5781263089199304,-0.5521299561891114,-0.5481484394724647,-0.3512308801898641,0.7906759332959999,0.41443083273500386,-0.365936487077995,0.7691074668257925,0.419396611417807,0.12423353154543049,0.6731642348260319,-0.6816860597677902,0.36884636082669364,-0.15923759751284733,0.4864688657464934,0.6929147112995815,0.13842102548760207,-0.7631961250444453,0.6887560575537933,0.14371307117020665,-0.7634625317353144,UP
-1.1109218271389762,-0.666145650815083,0.3287761521289719,-0.09825543851732682,-0.7058251275742263,-0.13405800364223255,-0.3513569390156346,0.7903999138038709,0.41433033408548975,-0.35497063353072067,0.8074335615317717,0.4095489770719499,0.16399570018939966,0.7192977687439693,-0.6731292924065023,0.36884636082669364,0.23508661197457445,0.1955913919086547,0.6947618861296658,0.13850286528683206,-0.7637326922414234,0.7710308125164224,0.13337975476235786,-0.7909409133862242,UP
-1.0841216158330258,-0.6620789658036529,0.34065001264798994,-0.09825543851732682,-0.26669623083352306,-0.5481484394724647,-0.35145882217618846,0.7900592568357371,0.41433898813586456,-0.35432968804881515,0.7836181606234911,0.4188888462554187,0.16572421304130033,0.6825616380646481,-0.6782634462862321,0.5169186904434279,0.06905536873646181,-0.06884245477475792,0.6952000500422113,0.13798612473632232,-0.7640340156919434,0.6961729456608969,0.10896031959216393,-0.7768075924584177,UP
-1.1095820361215714,-0.666145650815083,0.3519583188976997,0.26736017052121736,0.3041710760629817,-0.015746483759615536,-0.35085097687932304,0.7904374734183062,0.4145438937157076,-0.3340684020421896,0.7944338885469024,0.4234595687737119,0.23487676510113994,0.6731642348260319,-0.6548748086376095,0.32653976320937683,0.3803639158234017,-0.14817288590673572,0.6941913953652575,0.1367646150056668,-0.7642454707449401,0.6311113634610731,0.062146429669501325,-0.7718618528462996,UP
-1.0640214573535633,-0.6773284099776837,0.3163369689353504,-0.14395748319336785,0.2602581288630426,-0.16363587392613074,-0.3519008914829993,0.7903431376425154,0.41431777175430046,-0.3987522065628535,0.7731458862451591,0.4037289070108539,0.1570802325484073,0.709900015574121,-0.6731292924065023,0.38999959035863613,0.23508661197457445,-0.2539466324253163,0.6956395642287556,0.13694790910146284,-0.7647212446141819,0.7516454113106397,0.13675472212523365,-0.7842235655548403,UP
-1.061341326449022,-0.681395094989114,0.34800036539136026,-0.5324242642438894,0.08460671398143323,-0.34110313437654416,-0.35271422993420226,0.7896827872119788,0.4144372534820562,-0.37320398181637204,0.7529310670308389,0.4223646130530621,0.14152149253121674,0.6688926242755278,-0.6794043953325489,0.36884636082669364,0.1728249297448036,0.03693089337382626,0.6954923843629081,0.13689921103911107,-0.7647238878023445,0.673103731137247,0.12691891086649407,-0.7641690659656172,UP
-1.061341326449022,-0.6722452619196736,0.37909820757806195,0.01599932892267505,0.4139533002481576,-0.4889925826635957,-0.35234814128949976,0.7891097847219894,0.4149104346235193,-0.3367269474147157,0.7415612690118037,0.4419489648761539,0.12596204439733116,0.6637664816561835,-0.6679953721841648,0.601531608571198,0.6501647200698562,0.724459778092865,0.6950785253823374,0.13779268521086957,-0.7642507571212644,0.6512903467261727,0.15633558356821325,-0.7481850471658987,UP
-1.0626816663361591,-0.6925782705642698,0.35535071813473057,0.0388504350781114,0.4139533002481576,-0.22279161449392715,-0.35271422993420226,0.7886049136256267,0.41509607796220566,-0.37385957255794444,0.744427751525442,0.42525736957643784,0.12596204439733116,0.6697468064131357,-0.6908134184809328,0.6861441110386729,0.4011178552126871,-0.06884245477475792,0.6955497710078485,0.1379198412625657,-0.7643934892820372,0.6921051627922207,0.12820032277757795,-0.7694417094753376,UP
-1.1095820361215714,-0.6630958452627881,0.32142579938560156,0.22165827551913314,0.37004049686289037,-0.5185705110680303,-0.35264342977178353,0.7894189964315265,0.41482138165353327,-0.360177454085338,0.8118425262516819,0.40559833001266543,0.14497851823501812,0.6825616380646481,-0.6731292924065023,0.707297617677479,0.13131705096623267,0.14270465721284142,0.6960345193733459,0.138029411902857,-0.7644384234807989,0.6942537727215282,0.13774906011919655,-0.7670162934608665,UP
-1.0988620613731384,-0.666145650815083,0.3598742259103783,0.5415721392295499,0.19438885187780588,-0.31152520597210964,-0.3517653350744654,0.7894583030047727,0.41506704501901254,-0.3319655150511534,0.7824121405415335,0.4288621678066747,0.14497851823501812,0.6620577674497354,-0.6582976557765601,0.5592250109538812,0.2143328085233745,0.010487560666788872,0.6951757451102365,0.13842981819330435,-0.7640578043854056,0.6311235101252463,0.14881586046985354,-0.7444968330308496,UP
-1.165862589638013,-0.6610625027570729,0.3485656880659639,0.3359132375352789,0.12851957489256918,0.01383140027947626,-0.35051942489921506,0.7906051814641566,0.41516168124730507,-0.3054351964211073,0.8401123361148454,0.4183690976122494,0.1363345377421249,0.6834161701334882,-0.6776930885917696,0.28423358125235526,0.6294107806805707,-0.2010595513208105,0.6955855532688116,0.13896752596510456,-0.7642190388633154,0.7034994086013774,0.140968052894784,-0.7687246299580157,UP
-1.0760817719891342,-0.6681789933207982,0.35026211927918416,0.1988072531811126,0.37004049686289037,-0.04532433467000163,-0.3503847319072963,0.7905326826735027,0.415362678546334,-0.3538515633949746,0.7695199606509256,0.424394001589018,0.10348783673914806,0.6740184169636398,-0.6714179856657232,0.6861441110386729,0.691672598848427,-0.3068333671211295,0.6958562832055308,0.1403202499193187,-0.7640260861274558,0.6825794788217111,0.17969277801463363,-0.749993563889733,UP
-1.074741432101997,-0.6651291877685032,0.35817779469715805,0.08455227619757115,0.32612754966295127,-0.5481484394724647,-0.35016801433696504,0.7903527459159756,0.4155566967724794,-0.3447422118819827,0.7660006542233581,0.4295711439719414,0.10694557055964422,0.616778765600638,-0.6554453999894642,0.6226846995497087,0.7331803416889124,-0.6770408564005149,0.6931732887703134,0.14146397802260677,-0.7630877543297848,0.5390558445802967,0.17112963871165582,-0.7090303964627129,UP
-1.0479412207960472,-0.6590291602513578,0.3728787317786036,-0.14395748319336785,0.699387025603746,-0.34110313437654416,-0.3500298676785863,0.7899780232510282,0.41602150302648305,-0.33935275632445633,0.741588360767268,0.44084091093232525,0.044708486140797164,0.6706009885507437,-0.6702770366194064,0.38999959035863613,0.4841334768317434,-0.09528622049266094,0.6933643525411152,0.1438353031143443,-0.7624930369932323,0.686805168324639,0.24035949712296473,-0.7313837686221741,UP
-1.0466014297786423,-0.6763119469311039,0.37457493139711895,-0.3039144898855547,0.8750385267741584,-0.7847712855025777,-0.35028025849689753,0.7895980597096481,0.4163562193619491,-0.3513110415856489,0.7309246962454949,0.43973675858689043,0.15189398587601047,0.679998741720592,-0.6571567067302432,0.4957655994649171,-0.07454092474708618,-0.5448242794675011,0.6932381019222463,0.14395704827022354,-0.7624798210524204,0.6673428382457592,0.15125565261325524,-0.7546387628217969,UP
-1.0586617444142132,-0.646829521629622,0.35252364157230326,-0.7837852106142014,0.34808387944824887,-0.9326609275247504,-0.35079399138274225,0.7894652908400163,0.4164486222869192,-0.344364019588224,0.7664699533422067,0.42955665232076473,0.1000301029186519,0.6671839100690796,-0.6816860597677902,0.5380719199753704,-0.07454092474708618,-0.8357017533053398,0.6933927082950859,0.14437639269602992,-0.7625062529340451,0.6810908376458154,0.1661451749609863,-0.7539427738785138,UP
-1.0466014297786423,-0.6508962066410522,0.3457386115035364,-0.7837852106142014,0.43590977384812707,-0.42983672585472665,-0.35156156875335753,0.7892346922769717,0.41657647890213434,-0.3599224542699562,0.7589017403641247,0.4257818558747991,0.09657236909815572,0.6911048591656563,-0.6799747530270112,0.2207737541030959,-0.07454092474708618,-0.7034846567592872,0.6943480271490952,0.1451183617849164,-0.762704492046229,0.7312579103105664,0.1825729294454223,-0.7633728967956491,UP
-1.0519611427179931,-0.660046039710493,0.36043954858498195,-0.6923812709360763,0.8311257233888912,-0.7551935508332643,-0.35208652605519536,0.7892224635652954,0.41677217210577217,-0.3500636100563489,0.7505365054188361,0.4330563860799699,0.11731806390443815,0.6748725991012479,-0.6788338039806944,0.8130633496768964,-0.07454092474708618,-0.3068333671211295,0.6948516793505727,0.1453003031567583,-0.7627388534923405,0.6904457935032235,0.15551738928920525,-0.7601592205764749,UP
-1.0948415905814595,-0.6702123358265133,0.3225566763295135,-1.1265497973147252,0.8750385267741584,-0.8143492139070122,-0.3533402069799795,0.7901160329970928,0.4164282433941009,-0.3719332901687777,0.7966021029116392,0.4063636006690422,0.13979227156262125,0.677435845376536,-0.6748408328046737,0.5592250109538812,1.2312740714032502,0.010487560666788872,0.6951210590132934,0.146094352117882,-0.7627917172555899,0.6863220010164154,0.13862103873864867,-0.7643720627407414,UP
-1.124321932791951,-0.6946111966574298,0.3542198411908187,-0.966593089970452,0.8091691059742496,-0.6073041025462128,-0.35397740844175046,0.7908418943830394,0.4164039562204681,-0.3458724813339447,0.7893292774608773,0.4203477653690865,0.17782592735468974,0.6620577674497354,-0.6754111904991359,0.707297617677479,0.5671492343888852,-0.4654937444129156,0.6946417117437904,0.14539972836739312,-0.7630005291204239,0.64563405010951,0.09115165216682192,-0.7672140175924809,UP
-1.1229821417745465,-0.6763119469311039,0.3361265048723422,-0.6695302485980557,0.7872127761889521,-0.34110313437654416,-0.35438580450058194,0.7918420283023044,0.41627247048735383,-0.34968714073431634,0.8071818703842327,0.41192672260734864,0.20548708980196448,0.677435845376536,-0.662290860609973,0.580378101932392,0.2143328085233745,0.1955913919086547,0.6943338492721096,0.1443865381256866,-0.7631617635983338,0.656516786394039,0.08586397919689803,-0.7721913930656575,UP
-1.0814414849284844,-0.7027445666802901,0.325383752891941,-0.5324242642438894,0.6774304081891044,-0.015746483759615536,-0.3557241002536227,0.7919931402394512,0.41606840239625664,-0.4002417156195932,0.7682178085334497,0.40496989398567024,0.13979227156262125,0.6911048591656563,-0.6685657298786273,0.5592250109538812,-0.0762220397846912,-0.22750283206654398,0.69502789010739,0.14453601412262715,-0.7632939230064564,0.7084397268464965,0.15322819329904744,-0.7662253969344084,UP
-1.1002018523905426,-0.681395094989114,0.3457386115035364,-0.48672221956784845,0.37004049686289037,0.2208765366321064,-0.35607896448233206,0.792135517382543,0.4161864883094357,-0.3559398051263432,0.7828193908010933,0.41850119458643853,0.17091116783039217,0.6663293780002395,-0.6851089069067408,0.05154837507388038,-0.013960239288785956,-0.6505975756547815,0.6945728477698618,0.14340581325888122,-0.7637036171716369,0.6684414365387595,0.08750776310172509,-0.7752864348058629,UP
-1.1310219856184387,-0.6864782430471246,0.34686948844744836,-0.4181693022277436,0.19438885187780588,0.13214292578041179,-0.35614544756167693,0.792530330073816,0.41624762498789025,-0.3433121453497744,0.8022345662654197,0.4165556904159486,0.17263968068229288,0.6748725991012479,-0.6628612183044352,-0.09652392683216751,-0.11772981389093629,-0.3068333671211295,0.6938261462486363,0.14285728369544748,-0.7637670536875357,0.6587389511230617,0.1190717755956803,-0.7623473676330089,UP
-1.0787619028936757,-0.6620789658036529,0.3225566763295135,-0.4410203245657642,0.19438885187780588,0.30961012811028893,-0.3568448150197177,0.7926517437111766,0.41618146337696,-0.37402325487187177,0.7889631017983121,0.4083868581218076,0.13979227156262125,0.6808529238582001,-0.6776930885917696,0.1784675721460743,0.712426402299627,-0.7299279375050207,0.6940610939243925,0.14327256994939114,-0.7640445884445936,0.6972128350770598,0.13623637554420237,-0.7683819081298837,UP
-1.0653617972407006,-0.6783452894368189,0.3496965650098758,-0.8294871056162857,0.32612754966295127,-0.22279161449392715,-0.35772636338349517,0.7922412083906051,0.4163062492001073,-0.3673183104018872,0.7566155457739789,0.4234927323600587,0.1605379663689035,0.6706009885507437,-0.6822566511196448,-0.054217647887743727,-0.09697588809545937,-0.7563713914551005,0.6937073221367597,0.14243929199359526,-0.7643934892820372,0.6762794090038676,0.10396173745212786,-0.7724365709888594,UP
-1.0667015882581048,-0.6834284374948291,0.3570469177532461,-1.332208699008996,0.32612754966295127,-0.28194747130279624,-0.3588600293988136,0.7917101329120783,0.4164935675162853,-0.3634579922507887,0.7512225385813991,0.4271421202862246,0.14497851823501812,0.646680039454167,-0.6719885770175779,0.45345900184760024,0.6709185235210561,-0.7034846567592872,0.6925042280040075,0.14257321166506243,-0.764240184368615,0.6153875066888398,0.12336712748440785,-0.7478001441896891,UP
-1.0385610370650178,-0.6864782430471246,0.3429115349411091,-1.2636557816688914,0.08460671398143323,-0.13405800364223255,-0.3605885894617734,0.790690782445893,0.41656447489677584,-0.3932292206965974,0.7359751238205914,0.4201682918429731,0.16226718733749895,0.6646210137250236,-0.6891021117401537,0.8130633496768964,1.0444890247139376,-0.9150322883599253,0.692706093966798,0.14231889956167018,-0.7646895263562321,0.6715111685012025,0.09058960580917967,-0.7752389810142761,UP
-1.0774215630065385,-0.7068108352791656,0.3355611821977387,-1.0351460073105567,0.391996826648188,-0.37068106278097873,-0.36213842228545645,0.7904069016391146,0.4163958604959241,-0.3957275296986477,0.7580269388409079,0.4108008327851484,0.1795551483232852,0.6697468064131357,-0.6485999393689552,0.580378101932392,-0.07454092474708618,-0.8621446876423808,0.6918601473066753,0.14201994756778888,-0.7646075875231964,0.6276731826853755,0.12881548117140904,-0.7498248392974224,UP
-1.074741432101997,-0.6885115855528396,0.3191640454977777,0.05267518085996921,0.238301799077745,-0.28194747130279624,-0.3627997994124434,0.7903073249868909,0.41610134362026424,-0.3989374260233503,0.7738161887110009,0.4033914187497936,0.1830121740270866,0.6765813133076959,-0.6303454556000625,0.2630803517204127,-0.07454092474708618,-1.3116827119763517,0.6905989913919834,0.14222691433278375,-0.7643908460938746,0.618140750568103,0.15367729254175677,-0.7389921932067005,UP
-1.085461955720163,-0.7200269369474813,0.31068281581049545,-0.8523381279543062,-0.04713189751490898,-0.4002589911854132,-0.3646785939663902,0.7898688383253444,0.4156022003276763,-0.4246209040502877,0.7694919949678659,0.3938500598778467,0.18819912881617823,0.6654751958626316,-0.6862498559530575,0.2419272607419019,0.5256412196722288,-0.33327664786686306,0.6902877532353062,0.1411352661017329,-0.7648058266353802,0.6644283136588628,0.06750940071604715,-0.7803639905057247,UP
-1.0787619028936757,-0.7108775202905957,0.30842129351737646,-0.34961638488763885,0.5237355244333334,-0.22279161449392715,-0.36612136312983035,0.7899675414981626,0.4151477231015395,-0.42343549950310827,0.7704445760470933,0.39400082878720566,0.17782592735468974,0.679998741720592,-0.6679953721841648,0.6226846995497087,0.33885617298291626,-0.17461623593420772,0.6904416844711465,0.1407409470690795,-0.764980277054102,0.6752975536498657,0.10886686930064203,-0.7705832367951926,UP
-1.0881415377549721,-0.6976614186222799,0.3287761521289719,-0.09825543851732682,-0.17887062406298876,-0.5481484394724647,-0.36664113993197917,0.7895185730837502,0.41490540969104356,-0.38992456092698935,0.7741063326727471,0.407187395301325,0.11213181723204109,0.675727131170088,-0.6856792646012032,0.9611359564004941,0.006793604943839655,0.11626132450580404,0.6913936276401591,0.14099864098235715,-0.7649697043014526,0.7016288223187014,0.15196358899435244,-0.7646225133074532,UP
-1.0814414849284844,-0.6844449005414095,0.3310379060167958,0.7015289962477799,-0.156914136081552,-1.3467509565112283,-0.3663104513684857,0.7891054173249622,0.4145589685131348,-0.38139240494205684,0.7748946153639976,0.4105723105935137,0.16399570018939966,0.6552232605551752,-0.6845383155548864,0.7284507086559897,-0.2007454626976097,-0.280390086375396,0.6910344547565318,0.13986776375663415,-0.7651018637095752,0.6453789701618725,0.09073751274540146,-0.7672693803493332,UP
-1.0801016939110801,-0.6824115580356943,0.33951913570407805,0.29021119285923785,-0.3984349286186684,-0.9326609275247504,-0.36615849004426904,0.7883996459653408,0.4144151996117463,-0.37258801942448705,0.7706385879733211,0.4159724014560809,0.14843625205551428,0.649242935798223,-0.6828270088141071,0.3053866722308661,-0.3045149965183344,0.03693089337382626,0.6901311214514686,0.1390135185795478,-0.7649882066185897,0.6337971258727072,0.1065964978296397,-0.7587329705070952,UP
-1.0479412207960472,-0.769841954481004,0.34065001264798994,-0.37246740722565946,-0.3545219814187293,-0.4002589911854132,-0.3681322604258511,0.7863862759357291,0.414233185390959,-0.45168103648594077,0.7016044254123948,0.40799363274083617,0.1346060248902242,0.6620577674497354,-0.6748408328046737,-0.09652392683216751,-0.5328079219862178,0.4864688657464934,0.6893830696562445,0.13861581773700898,-0.7647053854852066,0.6542386120468838,0.13726231183817625,-0.755187117746808,UP
-1.0787619028936757,-0.681395094989114,0.3587433489664664,-0.25821244520951364,0.018737408233262115,0.1025650554965136,-0.36804419193113513,0.7859014948656924,0.41454863948526793,-0.35436242451160066,0.7603113855758622,0.4276150497486686,0.122504310576835,0.6697468064131357,-0.6634315759988975,-0.32920910529995606,-0.242253178350478,0.3542517692004408,0.6885850577230721,0.1390750675194646,-0.7642824753792141,0.6593165924859661,0.16893792683855308,-0.746537346069111,UP
-1.0586617444142132,-0.7078277147383006,0.3496965650098758,-0.05255361835222105,-0.13495766248158245,0.1912986857217203,-0.3685467004009867,0.7848131395264747,0.4147292578914782,-0.392508157029454,0.7365222024954502,0.42027112682920886,0.09657236909815572,0.6560777926240153,-0.6782634462862321,0.030395228673996886,0.06905536873646181,-0.14817288590673572,0.6879538046287268,0.13976292765018244,-0.7639467904825825,0.6539592387708998,0.16940585060041788,-0.7447789194586192,UP
-1.0586617444142132,-0.6783452894368189,0.3530891958416116,-0.16680835585743156,-0.13495766248158245,-0.25236954289836167,-0.3686347688957027,0.784013905870468,0.41492578858386187,-0.36743030356404816,0.7499055296947974,0.425947673806534,0.1570802325484073,0.6688926242755278,-0.6811157020733279,0.1573143426141318,0.29734829420434533,0.5393559468509991,0.687785020378902,0.1393753722373001,-0.763962649611557,0.6719160573069766,0.10836398571748836,-0.7697264322248629,UP
-1.0693817191626465,-0.6590291602513578,0.3683554555976606,-0.25821244520951364,0.391996826648188,0.1025650554965136,-0.3681106750104794,0.783900353547757,0.415410136241938,-0.33314488919729396,0.7598621867917127,0.43673308519489207,0.11213181723204109,0.6936677555097124,-0.6645725250452144,0.07270150761842069,0.7746880845293979,0.43358230425502636,0.6884243751172389,0.14096820469338728,-0.763740621805911,0.715161555837021,0.189050580947675,-0.7565527324158253,UP
-1.0961819304685967,-0.681395094989114,0.34065001264798994,-0.05255361835222105,0.5896048014185701,0.0729871852126154,-0.36801569918284477,0.7844174533557962,0.41545787310045695,-0.36270849955017326,0.7824680719076533,0.4157335678972629,0.15362249872791114,0.6637664816561835,-0.6611499115636562,0.45345900184760024,-0.07454092474708618,0.16914793795857497,0.6877505883919375,0.14085254679530204,-0.7634498711080411,0.6365341741997395,0.13657118306346772,-0.7500489266465854,UP
-1.0975217214860011,-0.6752954838845239,0.3627013024728058,0.01599932892267505,0.4798225772333943,0.1025650554965136,-0.3673448244730944,0.7846812441362485,0.4157867270147011,-0.33681223451513065,0.7752345731986945,0.42948809566327434,0.14152149253121674,0.6706009885507437,-0.6782634462862321,0.19962066312458512,1.0444890247139376,0.27492175375889405,0.6876851001030055,0.14140919270246124,-0.7634234392264164,0.6753812306697257,0.12919667768430745,-0.7641242484957845,UP
-1.0064011128197174,-0.6925782705642698,0.36722457865374863,0.06170135863132041,0.391996826648188,-0.34110313437654416,-0.36772041070056033,0.7832889179639267,0.41614377638339245,-0.39027604715900144,0.6965539978372982,0.4359491426033452,0.13287751203832351,0.6620577674497354,-0.6799747530270112,0.3476932698481828,0.6501647200698562,0.08981799179876666,0.6874211215362792,0.1416905592849377,-0.763333570828893,0.6609719128869054,0.1321729686236404,-0.7588436960207993,UP
-1.120302010870005,-0.6702123358265133,0.33951913570407805,-0.16680835585743156,0.06265025476293086,-0.19321368608949263,-0.3673292829740268,0.7838252343188862,0.4161058102269091,-0.34333540546806934,0.8066566398992642,0.4148621180274559,0.1363345377421249,0.6671839100690796,-0.6440363768410803,0.36884636082669364,0.3803639158234017,0.16914793795857497,0.6864968589842381,0.14276935663842352,-0.7627071352343915,0.6260516030182507,0.18013784343180952,-0.7328996536312182,UP
-1.0680413792755097,-0.6783452894368189,0.33725738181625414,-0.16680835585743156,0.21634532547777544,0.1025650554965136,-0.36764788370491197,0.7836610201906575,0.4161490804787832,-0.3777526271718285,0.7649694196605247,0.4158988284577985,0.14497851823501812,0.6569319747616232,-0.6714179856657232,-0.07537078043228404,0.4011178552126871,0.11626132450580404,0.6854855037592869,0.1428079092711186,-0.76250096655772,0.6366637386175872,0.1287280816181871,-0.7525877044965156,UP
-0.99970105999323,-0.6935947336108498,0.3491312423352722,-0.1211066105293042,0.391996826648188,0.30961012811028893,-0.36860713956402746,0.782361282835316,0.4164274059053551,-0.41196050781093335,0.7001746798659582,0.42548728519607,0.16745343400989582,0.6817074559270401,-0.6856792646012032,0.19962066312458512,0.2765944907531454,0.03693089337382626,0.6860188619887336,0.14211260915865265,-0.7629185902873874,0.7030243390692693,0.0968790121198775,-0.7826997715805306,UP
-1.0667015882581048,-0.7047774927734505,0.34234621226650547,-0.4181693022277436,0.238301799077745,-0.22279161449392715,-0.36942393168168974,0.7819009591886326,0.4163925105409404,-0.39320940652175335,0.7477373153300606,0.41576784622600793,0.15016547302410976,0.6577861568992313,-0.6702770366194064,0.11500816065711021,0.2558404154257744,0.03693089337382626,0.6851310568346545,0.14197057314346,-0.7627441398686656,0.6359254913617258,0.12520050118930084,-0.7534866902149229,UP
-1.0479412207960472,-0.6996943447154403,0.3231219990041171,-0.25821244520951364,-0.46430420560390523,0.04340929555520508,-0.37054982694747374,0.7808152242876312,0.41622054618510457,-0.4171156392137843,0.7460908357399098,0.4060996854062639,0.16745343400989582,0.6577861568992313,-0.6651431163970689,0.6226846995497087,-0.5120539825969325,0.3542517692004408,0.6844248635333868,0.14105816083634273,-0.7625088961222068,0.6255859808916104,0.11385805609386707,-0.7539295922697399,UP
-1.0841216158330258,-0.7027445666802901,0.3429115349411091,0.06170135863132041,-0.33256565163343177,0.01383140027947626,-0.3707043785215352,0.7801487595012564,0.4162294793983948,-0.3824597859260358,0.7613635944009904,0.4152416878140492,0.16399570018939966,0.6740184169636398,-0.6697066789249442,0.07270150761842069,-0.6573314223838451,-0.09528622049266094,0.6842155710636039,0.13992525452468824,-0.7626146236487056,0.667356334539285,0.11859780109551527,-0.7650970512233282,UP
-1.0506213517005887,-0.6569958177456428,0.32086024511629324,0.10740338833996577,0.06265025476293086,0.30961012811028893,-0.37086670084512985,0.7800954772575225,0.4162255711175803,-0.3861417765035401,0.7715387333968112,0.4098006301683475,0.13114829106972803,0.675727131170088,-0.6628612183044352,0.2207737541030959,-0.4290384969159616,0.08981799179876666,0.6841230772947,0.14010990134443846,-0.7623925958430595,0.6697019903540692,0.1633631799515082,-0.7514461771766614,UP
-1.0787619028936757,-0.6732621413788088,0.3576124720225545,0.4730190722154884,-0.26669623083352306,0.04340929555520508,-0.3700032842302642,0.7795766304906725,0.41649552165669235,-0.3493666679933636,0.7650769127547861,0.42795671829372234,0.1363345377421249,0.6637664816561835,-0.6902430607864706,0.136161251635621,-0.11772981389093629,-0.015955784510961447,0.6841068740067167,0.13955866633309613,-0.7625459007564818,0.676487251924165,0.11567327758386008,-0.7687747200713583,UP
-1.102881983295084,-0.6763119469311039,0.35591627240403906,0.26736017052121736,-0.2447399010482255,0.36876598491915796,-0.3691692237803046,0.7794290124711478,0.41676965963953433,-0.34129109951570213,0.7821753061631201,0.4249931756280599,0.14497851823501812,0.6116526229812937,-0.6839679578604239,0.07270150761842069,-0.13848375328022175,-0.14817288590673572,0.6816493753292654,0.13852924340393918,-0.7621388497794638,0.5567231676202451,0.09207203669267393,-0.7394588221573113,UP
-1.1109218271389762,-0.7037610297268705,0.3700516552161761,0.17595633561486188,-0.5082171528038443,-0.13405800364223255,-0.36849403198747976,0.7787398372202308,0.41702006877457387,-0.34449065801005185,0.7666945527342813,0.4294192603201843,0.1346060248902242,0.6663293780002395,-0.6862498559530575,0.136161251635621,0.08980930812574726,0.618685962292546,0.6817027111522103,0.13832633481080706,-0.762107131521514,0.6774556109846411,0.12385992650372814,-0.7664521206053264,UP
-1.089481877642109,-0.700711224174575,0.35026211927918416,0.4501680498774678,-0.44234787581860757,0.30961012811028893,-0.3681383043421553,0.778041927175259,0.4171613252097246,-0.37137763178728717,0.7626316633422373,0.4195075282864296,0.1467077392036136,0.6586406889680714,-0.6816860597677902,0.030395228673996886,-0.055468104473548316,0.40713885030494656,0.6811855562107465,0.13782312149983944,-0.7620410518174526,0.6528100293771778,0.11400125690029991,-0.7621654614319235,UP
-1.10690190521703,-0.6752954838845239,0.33782293608556263,0.15310522347246724,-0.2227834274482559,0.7532784729714436,-0.3677212741171755,0.7782017739064601,0.41728527354412565,-0.3554254980662662,0.7950063111220346,0.41410074896947296,0.16918194686179672,0.649242935798223,-0.6685657298786273,-0.07537078043228404,-0.44979230036716156,-0.2539466324253163,0.679769793923215,0.13683292756535467,-0.7619326811027922,0.6111543942244726,0.10364911597329564,-0.7527274295495233,UP
-1.0961819304685967,-0.6824115580356943,0.344042411885021,0.24450929785715367,-0.2886527044334926,0.7532784729714436,-0.36733360005710125,0.7780026206020126,0.4174776167927794,-0.36029117021922447,0.7802002297970155,0.4176283512886337,0.12596204439733116,0.6543690784175672,-0.6805453443788657,-0.6676602235973097,-0.7403469080648158,0.11626132450580404,0.6786699957513556,0.136285074363898,-0.7617608738722322,0.6467279246997761,0.13520304390341745,-0.7535763251545881,UP
-1.0546412736225346,-0.6905449280585547,0.35817779469715805,0.13025430590621653,-0.6619121803742873,0.9307456559278086,-0.3673180585580337,0.7766330048942333,0.4179050152161305,-0.37364506257811314,0.7380708021948915,0.42770840942451926,0.15535171969650663,0.6560777926240153,-0.6651431163970689,-0.49843452589520115,-0.8648704084624431,-0.09528622049266094,0.6772920411357849,0.13550793445220183,-0.7615626347600483,0.6245717344331466,0.12586406548953155,-0.7498169303321576,UP
-1.0412411679695592,-0.6519126696876326,0.33499585952313515,-0.25821244520951364,-0.5521299561891114,0.5166554332062095,-0.367614210456932,0.7758564817027689,0.41806609221826907,-0.37364506257811314,0.7599259835061931,0.4195557408951524,0.16399570018939966,0.6620577674497354,-0.6782634462862321,-0.32920910529995606,-0.2630071177397635,0.3542517692004408,0.6765932743415094,0.13466654015268076,-0.7615890666416729,0.6521804272841993,0.10193675703440239,-0.765800949131876,UP
-1.0425815078566967,-0.6895280485994196,0.3231219990041171,0.13025430590621653,-0.06908835673341135,1.0194794411411119,-0.36836797316170933,0.775245046118939,0.4180995917681071,-0.412323193359162,0.7473790050158557,0.4076817835549347,0.13979227156262125,0.6654751958626316,-0.662290860609973,-0.15998367084936782,-0.1799915369021328,0.2484784730131605,0.6758810048072482,0.1348775650895381,-0.7612851000029911,0.6447709621385352,0.15038905242784736,-0.7481270480872921,UP
-1.0881415377549721,-0.6996943447154403,0.3429115349411091,0.1988072531811126,-0.26669623083352306,0.9011679212584951,-0.36836451949525,0.7748388781953945,0.4182612270960757,-0.37819456941943264,0.7659010264774573,0.4153576210234638,0.15016547302410976,0.6688926242755278,-0.6662838317859936,-0.26574969381099195,-0.32526893590761985,0.2484784730131605,0.6753105140428399,0.13468006739222285,-0.7611450110303809,0.6549255733873469,0.13555802055034957,-0.7559384694469434,UP
-1.0506213517005887,-0.6834284374948291,0.34234621226650547,0.49587009455350883,-0.11300127517041608,0.9603235843322431,-0.3682557290017768,0.7741968708323731,0.41851386953443814,-0.38545603375677073,0.7468065824407236,0.4194331192313487,0.10175861577055259,0.6603494031745195,-0.6679953721841648,-0.2445961871721859,-0.4290384969159616,0.618685962292546,0.6746542808795205,0.1353043494970926,-0.7606031574570777,0.6493009930604698,0.1800006933636769,-0.7399570869689799,UP
-1.0988620613731384,-0.6996943447154403,0.3513927646283913,-0.1211066105293042,-0.6838686539742569,0.7532784729714436,-0.36825918266823676,0.7735111894990777,0.41872296255801106,-0.3649027040426639,0.7694797599815271,0.41969870660772407,0.11040259626344562,0.6706009885507437,-0.6594386048228769,-0.43497511440623704,-0.4290384969159616,0.3806955695592131,0.6740864906631095,0.13608554758065128,-0.7601405995286479,0.6589096792361631,0.18755941010885865,-0.7403894437367772,UP
-1.0868017467375675,-0.6874947060937044,0.33782293608556263,0.24450929785715367,-0.5960429033890506,0.4574995763973404,-0.3681581629242973,0.7730386371407175,0.41874306228791397,-0.3745961429706178,0.7738170626385964,0.41390706247778286,0.11040259626344562,0.6740184169636398,-0.6685657298786273,-0.37151542581040936,-0.7403469080648158,0.08981799179876666,0.6739298588792719,0.13638247048860136,-0.7599291444756513,0.6775851754024887,0.17643680850499072,-0.7495664797654457,UP
-1.0760817719891342,-0.6681789933207982,0.3434770892104174,-0.05255361835222105,-0.3764784550186989,0.4574995763973404,-0.36801310893299993,0.7727215641165316,0.4188979977059152,-0.3602610182140275,0.7730235363817721,0.4203480440546858,0.10175861577055259,0.678290027514144,-0.6896724694346159,-0.11767705937670783,-0.40828455752667614,1.0417807058807835,0.6746873625924863,0.13655223734485528,-0.7598445624544529,0.7140460871771137,0.1583551855518943,-0.7662174879691435,UP
-1.0626816663361591,-0.6895280485994196,0.3434770892104174,0.22165827551913314,-0.06908835673341135,0.4574995763973404,-0.36809081642833796,0.7722656078668753,0.41901412947868727,-0.38286813022499205,0.7520387869557094,0.41857671838391763,0.09657236909815572,0.6612035853121275,-0.6702770366194064,-0.07537078043228404,-0.8856243478517287,0.5922426815468125,0.6742829555299057,0.1368978583151569,-0.7593608590207241,0.6551084481646215,0.1826341091326777,-0.7408455274003674,UP
-1.0935017995640552,-0.6752954838845239,0.36383194782201284,0.3130622151972584,-0.04713189751490898,0.4574995763973404,-0.3672006338984115,0.7722324156494673,0.41935889567910434,-0.33772971695898685,0.7716864271604712,0.4304214137361823,0.14843625205551428,0.6629122995185756,-0.6816860597677902,-0.2445961871721859,-0.7403469080648158,0.883120155384651,0.6738934014813096,0.1359232207061457,-0.7592947793166621,0.6615961164624737,0.11405571354499955,-0.7648044195085386,UP
-1.0680413792755097,-0.7129108627963108,0.34121533532259357,0.3587641101993426,-0.06908835673341135,0.2504544650365409,-0.3675140541296077,0.7716480579272069,0.41933070022465746,-0.3996016316235508,0.7451172803983873,0.41401352037681244,0.15189398587601047,0.6714555206195838,-0.6719885770175779,-0.20229000521516433,0.15207099035551813,1.6235358267608069,0.6736544029835577,0.1358846680734504,-0.7590119581832799,0.6672416160443158,0.1271508558346599,-0.7623341860242342,UP
-1.085461955720163,-0.6681789933207982,0.35252364157230326,0.49587009455350883,0.32612754966295127,0.2504544650365409,-0.3666515009313571,0.7720315153862091,0.41952555593954904,-0.34704840953663363,0.7752905045648143,0.4251261086590476,0.12596204439733116,0.6663293780002395,-0.6811157020733279,-0.15998367084936782,0.15207099035551813,1.2004410831725696,0.6735727114066424,0.13608825302855984,-0.7588031463184458,0.6730139807853005,0.1397027762858335,-0.7600484950627707,UP
-1.0868017467375675,-0.6722452619196736,0.3513927646283913,0.4730190722154884,0.45786624744809673,0.4870775048017749,-0.36591846022533703,0.7724848511976486,0.419734648963122,-0.3504865996149721,0.7747609044418676,0.42386171209386875,0.1588094535170028,0.6817074559270401,-0.6679953721841648,0.05154837507388038,0.4841334768317434,1.4648752762646746,0.6738393905213658,0.13634188876997502,-0.7586445550286985,0.6831078587132463,0.12978763312493857,-0.7662464875084471,UP
-1.0653617972407006,-0.6702123358265133,0.33725738181625414,0.587274034231634,0.6554740784038068,0.014230713355838028,-0.3655316495818773,0.772983607938173,0.41971008262657383,-0.37303685355899374,0.7672084221605069,0.4170748816879187,0.15189398587601047,0.6526603642111192,-0.6263522507666498,0.28423358125235526,0.02754753073931656,1.411988195160169,0.6719476566493277,0.1372928537097874,-0.7574656931082437,0.5671463551102205,0.1812780714492274,-0.7145113093910676,UP
-1.085461955720163,-0.6915613911051347,0.3610048712595855,0.5644231615675704,0.6335177486185092,-0.19321368608949263,-0.3648391894567552,0.7732867052918717,0.4198457558034184,-0.3564730648754018,0.7588772703914474,0.42725443058284507,0.1588094535170028,0.6859790664775443,-0.6605793202118015,0.5169186904434279,0.4011178552126871,1.1211107213223304,0.6725573053596954,0.13768108548464705,-0.7573520360172582,0.6832549683126774,0.14186020064190266,-0.7624185483203902,UP
-1.0841216158330258,-0.6722452619196736,0.3570469177532461,0.7929329359259052,0.9628642773593646,0.2504544650365409,-0.3638099968518361,0.7740378975805771,0.42007271525357137,-0.3464867207541036,0.7698555488476444,0.4273962815530182,0.15016547302410976,0.6663293780002395,-0.6634315759988975,0.1784675721460743,0.1728249297448036,1.2533278178683829,0.6721886805580777,0.13784679416903828,-0.7569899192390019,0.6457649641567104,0.13828219739384992,-0.7523003454252359,UP
-1.0961819304685967,-0.6569958177456428,0.3576124720225545,0.6101250565696547,0.8091691059742496,-0.16363587392613074,-0.3625537256772072,0.7750258027881656,0.4202393755140161,-0.32855403103456093,0.7863544279253821,0.42883457793231916,0.16918194686179672,0.6723097027571918,-0.6742702414528191,0.5169186904434279,0.8784576455377396,0.6715726969883592,0.6724924922077626,0.1378332669294959,-0.7571194354589628,0.6682349432478146,0.10624353809547439,-0.7692914391353108,UP
-1.0921620085466504,-0.6722452619196736,0.3434770892104174,0.907187897942051,0.5017790508333638,-0.16363587392613074,-0.3616540455645173,0.7756171483456697,0.420204200986686,-0.35525147792198536,0.78280802974235,0.41880050292036003,0.11904657675633884,0.6304477793897584,-0.6719885770175779,0.5380719199753704,-0.013960239288785956,1.1211107213223304,0.6711996048541036,0.1379529829994439,-0.7564004882787745,0.5866437755522673,0.14295000584015405,-0.7327546559347013,UP
-1.0921620085466504,-0.658012697204778,0.3219911220602052,0.6558269515717388,0.19438885187780588,-0.45941465425916117,-0.3611273614294498,0.7763237931846962,0.41988176781949427,-0.36469422446387206,0.8013475297558639,0.40767788195654087,0.16399570018939966,0.678290027514144,-0.6794043953325489,0.38999959035863613,0.1728249297448036,0.27492175375889405,0.6718679904834105,0.13749170413105702,-0.7567335299872443,0.688661583499113,0.10742410436822533,-0.7750518021696808,UP
-1.1015421922776798,-0.658012697204778,0.3429115349411091,0.29021119285923785,0.238301799077745,-0.22279161449392715,-0.36043403788771256,0.7769789027388,0.4198546890167082,-0.3404313366246519,0.797456804100157,0.4196017240190792,0.12596204439733116,0.678290027514144,-0.6543044509431473,0.1784675721460743,0.42187165866388704,-0.17461623593420772,0.6719037727443732,0.13869698117426188,-0.7565432204395472,0.6658015615251129,0.18193155118562496,-0.7442727456816864,UP
-1.0908216686595138,-0.658012697204778,0.33725738181625414,0.22165827551913314,0.08460671398143323,-0.45941465425916117,-0.36003686624487485,0.7773763358682897,0.41973101984522254,-0.3511008390351316,0.7924658036015629,0.4169235554073604,0.1467077392036136,0.6765813133076959,-0.6617202692581184,0.030395228673996886,0.4011178552126871,0.010487560666788872,0.6718612391134174,0.1392225144304739,-0.7565352908750597,0.6667186346701909,0.14890594924009756,-0.7552082083208468,UP
-1.1002018523905426,-0.6854617800005441,0.3536545185162152,0.10740338833996577,-0.156914136081552,0.1025650554965136,-0.35974330459582077,0.7772409465604414,0.41983821840470475,-0.3515565650565396,0.7766433444828363,0.4226995931437268,0.14843625205551428,0.6629122995185756,-0.6594386048228769,-0.011911036415083733,-0.242253178350478,0.08981799179876666,0.6711273651951786,0.13916772911032838,-0.7563423381392008,0.6336574392347152,0.14399543895753894,-0.7468062508881067,UP
-1.0827818248156216,-0.6691954563673785,0.35817779469715805,0.06170135863132041,-0.13495766248158245,-0.25236954289836167,-0.35933922562006376,0.7769920049298822,0.4199847789352462,-0.34380233080569395,0.7698511792096661,0.42853499091279806,0.15362249872791114,0.6663293780002395,-0.6759815481935985,0.11500816065711021,-0.7195931046136159,-0.04239912206772053,0.6710416227962674,0.13823705502982894,-0.75651414536976,0.6607552973758164,0.1177184271292521,-0.7633860784044239,UP
-1.085461955720163,-0.6610625027570729,0.34121533532259357,0.3130622151972584,0.06265025476293086,0.30961012811028893,-0.3589014733963268,0.7772243504517374,0.42006154873695867,-0.3523646387958234,0.7848495246057218,0.4192645144436182,0.14497851823501812,0.6791442096517519,-0.6776930885917696,-0.2445961871721859,-0.03471417867807141,-0.2539466324253163,0.6713332819799649,0.13807405179334606,-0.7568419007019048,0.6924142279139615,0.13006260556545982,-0.7689355356984048,UP
-1.072061850067188,-0.6539460121933477,0.34517328882893294,-0.32676536254961835,0.1724325220925083,-0.015746483759615536,-0.3589688198922862,0.7773841971829389,0.4201508808698601,-0.3500041675318175,0.7765673127820171,0.4233896186882237,0.1570802325484073,0.675727131170088,-0.6782634462862321,0.09385465401830416,-0.49130017914573254,-0.2539466324253163,0.6716762515756092,0.13727932647024527,-0.7572040174801611,0.6831577949992915,0.1151192988772844,-0.7709523218408725,UP
-1.0961819304685967,-0.6620789658036529,0.34460796615432937,-0.006851588643575686,-0.3764784550186989,0.0729871852126154,-0.3586536728278603,0.7773291679803941,0.42019861772837946,-0.34457508362460376,0.7904907272354583,0.4204639772641004,0.11386033008394197,0.6688926242755278,-0.6560157576839264,0.11500816065711021,-0.13848375328022175,-0.015955784510961447,0.6713670388299301,0.13822352779028682,-0.7568366143255797,0.6501418121471273,0.18791909288557948,-0.7376450327899671,UP
-1.1015421922776798,-0.6844449005414095,0.3706169778907797,-0.6009771815839942,-0.26669623083352306,0.0729871852126154,-0.35864158499525267,0.7769518248772305,0.42049145962654766,-0.33421399315299843,0.7693888715115824,0.4327595859164444,0.17436819353419358,0.6620577674497354,-0.6645725250452144,0.41115268133714694,0.42187165866388704,-0.5448242794675011,0.6709254992323879,0.13797530294468854,-0.756995205615327,0.6325966305635872,0.10921176138374077,-0.7575413530738985,UP
-1.0948415905814595,-0.681395094989114,0.34065001264798994,-0.16680835585743156,-0.2008269538482864,0.1025650554965136,-0.3588462147329757,0.7768819465247926,0.42044539774552037,-0.3633804585231387,0.7814796597970054,0.4158199604331249,0.16745343400989582,0.6629122995185756,-0.662290860609973,0.1573143426141318,-0.1799915369021328,-0.2539466324253163,0.6703104494260258,0.13751334771432436,-0.7570163511206266,0.6330609030608749,0.11999484933855441,-0.754267041454362,UP
-1.1685427205425547,-0.6651291877685032,0.3429115349411091,0.22165827551913314,-0.2886527044334926,0.01383140027947626,-0.3577030511348938,0.7779781631786594,0.420351878168889,-0.31230985360605873,0.8428914258689213,0.41434933652427564,0.14152149253121674,0.6706009885507437,-0.6548748086376095,0.4957655994649171,-0.6158235436052742,0.16914793795857497,0.6702220064791176,0.13756475122458448,-0.7567599618688683,0.6461826744413339,0.16112104525923898,-0.7451058233562222,UP
-1.0760817719891342,-0.6844449005414095,0.33443030525382683,0.24450929785715367,-0.4862606792038748,-0.31152520597210964,-0.357928402871374,0.7773876911005607,0.42016316403813436,-0.38090824988717675,0.7692009770785239,0.41294336767452333,0.12077579772493431,0.647534221591775,-0.670847627971261,0.7284507086559897,-0.6158235436052742,-0.4654937444129156,0.6698013961285536,0.1374017479881016,-0.7565696523211719,0.6211510988390326,0.15050603336831367,-0.7409246170530136,UP
-1.1229821417745465,-0.6742786044253887,0.3643975020913213,0.29021119285923785,-0.8595201551446695,-0.5777261741417782,-0.35692856643135984,0.7769631801095014,0.42024244630608437,-0.32192489732050084,0.7935783134307889,0.42894103583134874,0.12423353154543049,0.6389910004907666,-0.6748408328046737,0.41115268133714694,-0.6988391652243304,0.40713885030494656,0.6688622805625277,0.13695331999727975,-0.7561890332257787,0.607224948364436,0.1376966203872635,-0.740750619817193,UP
-1.0626816663361591,-0.6915613911051347,0.34800036539136026,0.17595633561486188,-0.8375636815446998,-0.4002589911854132,-0.3572186744139546,0.7757175984772989,0.42020475931251644,-0.3800872538599515,0.7486925181920747,0.4210177255504155,0.14843625205551428,0.6688926242755278,-0.6628612183044352,0.1573143426141318,-1.4252258204065518,-0.14817288590673572,0.6686563637777414,0.13604023132818513,-0.7561731740968034,0.6510008512300445,0.14204373970366882,-0.7526799757579358,UP
-1.0693817191626465,-0.7047774927734505,0.3536545185162152,0.24450929785715367,-0.6619121803742873,-0.22279161449392715,-0.3574595676495018,0.7745121968977482,0.42022541736825014,-0.38117100307532353,0.7440047705691614,0.42230748250515354,0.11213181723204109,0.6688926242755278,-0.6600089625173393,-0.011911036415083733,-0.5950696042159888,-0.14817288590673572,0.6684241166499822,0.13659958268325267,-0.7559141416568833,0.6555187354878059,0.18416292900980502,-0.7404738060329324,UP
-1.120302010870005,-0.6722452619196736,0.3434770892104174,-0.006851588643575686,-0.420391402218638,0.1025650554965136,-0.3571064302540221,0.7747358076255488,0.42020783010458507,-0.3411859982404438,0.8035445837312563,0.4169703745880854,0.1363345377421249,0.6603494031745195,-0.6468886326281762,-0.13883019192124815,-0.49130017914573254,0.30136503450462754,0.6672905616281578,0.1369972835257917,-0.7553828608362295,0.6147518312637745,0.17290250503354895,-0.7317976711376868,UP
-1.0693817191626465,-0.6539460121933477,0.3536545185162152,0.3359132375352789,-0.5082171528038443,0.014230713355838028,-0.35651326303960973,0.774209973023455,0.42040547744862994,-0.3433043919770094,0.7701605495785162,0.42863030138784547,0.12769055724923187,0.6671839100690796,-0.6588680134710225,-0.26574969381099195,-0.4290384969159616,0.2484784730131605,0.6667308730557384,0.13734628630597898,-0.7550973965146848,0.6468811076312939,0.16861992692567665,-0.7429018583691586,UP
-1.0479412207960472,-0.6874947060937044,0.33216878296070773,-0.05255361835222105,-0.2447399010482255,0.0729871852126154,-0.3573870406538534,0.7734841116375082,0.4202985580520631,-0.3995051452069199,0.7478710262521906,0.4130169406728057,0.10521634959104875,0.6825616380646481,-0.6936656742680287,-0.11767705937670783,-0.15923759751284733,0.1955913919086547,0.6678995352015262,0.1375397258314315,-0.7554251518468287,0.727182704480451,0.15120993592387746,-0.7723917535190269,UP
-1.0881415377549721,-0.6895280485994196,0.3383882587601661,-0.1211066105293042,0.1724325220925083,0.1617208154378221,-0.3577988903791442,0.7736448318481148,0.4202284881603184,-0.37490369342362906,0.7734639958899654,0.41390929196257925,0.15362249872791114,0.677435845376536,-0.6520225528505137,0.009242096129456579,0.3596099764341162,0.1955913919086547,0.6676841664987496,0.13818835696747714,-0.7552850628742193,0.654841896367487,0.15537015465723925,-0.7495638434436908,UP
-1.0868017467375675,-0.664112308309368,0.38192528414048926,-0.0754045359184718,0.2602581288630426,0.3391880565147234,-0.35698296167809646,0.7736841384213611,0.4207815098955626,-0.31553353370456644,0.7630205611222887,0.4429491674929548,0.10694557055964422,0.6620577674497354,-0.6611499115636562,-0.054217647887743727,0.5256412196722288,0.6715726969883592,0.6671967175852551,0.13953837547378298,-0.7547828571233527,0.6433032402176044,0.18483657787386912,-0.7365878677662682,UP
-1.0693817191626465,-0.6966445391631448,0.3576124720225545,0.06170135863132041,0.10656318758140279,0.1617208154378221,-0.3571875914158194,0.7732482721980308,0.4209392369427171,-0.3714043378490331,0.7461493888888163,0.4256589555253958,0.1467077392036136,0.6543690784175672,-0.6628612183044352,0.030395228673996886,0.46337953744245797,0.724459778092865,0.6663109378421738,0.13985829468895478,-0.7544392426622335,0.6198959435411333,0.13726500105519837,-0.7447657378498452,UP
-1.072061850067188,-0.700711224174575,0.3530891958416116,-0.02970250620982642,0.37004049686289037,-0.4889925826635957,-0.35758562647527226,0.7730997806991007,0.4208889876179599,-0.3773701274487564,0.7483499385745914,0.42230302353556043,0.018776544662117884,0.675727131170088,-0.6799747530270112,0.05154837507388038,0.7539342810781977,0.14270465721284142,0.6673594256020865,0.1427605639327212,-0.7540321916852155,0.7148828573757132,0.25537406806222845,-0.7346132627718774,UP
-1.0506213517005887,-0.6610625027570729,0.36383194782201284,-0.0754045359184718,0.018737408233262115,-0.37068106278097873,-0.35742934806798177,0.7726193670260912,0.421119297023097,-0.34823984448485257,0.7472549072972775,0.43503449646560777,0.1346060248902242,0.6817074559270401,-0.6582976557765601,0.2419272607419019,0.5879030378400851,0.010487560666788872,0.6677516801986797,0.14374128879952638,-0.7540031166154283,0.6763421667687626,0.16877253999168712,-0.7516781734910886,UP
-1.072061850067188,-0.6559793546990628,0.3366920591416507,-0.23536142287149311,0.06265025476293086,-0.45941465425916117,-0.3576391583053937,0.7728403573156755,0.4209864154754057,-0.35954512346206063,0.7799048422696955,0.4180594779111447,0.08447065478476654,0.6586406889680714,-0.6805453443788657,0.41115268133714694,0.23508661197457445,0.08981799179876666,0.6680271360943938,0.1446679047081631,-0.7538180934440564,0.6648466987581626,0.1799005200295995,-0.7446471033708764,UP
-1.0801016939110801,-0.6793617524833988,0.3191640454977777,-0.16680835585743156,0.4139533002481576,-0.37068106278097873,-0.3583860136772524,0.7734238415585305,0.4205964248827071,-0.3894136998103633,0.7825930435538272,0.4041594762621656,0.13114829106972803,0.6876877806839924,-0.6531635018968305,0.6226846995497087,0.5256412196722288,0.27492175375889405,0.6688298739865614,0.1458386872905356,-0.7536912204122588,0.6838845704056559,0.1823813227325898,-0.7495084806868391,UP
-1.1055621141996257,-0.7098606408314606,0.33443030525382683,-0.21251040053347262,0.1724325220925083,-0.28194747130279624,-0.3590655225531511,0.7736832649419556,0.4203094454057608,-0.38488917605906425,0.7777462411085105,0.40797523949126563,0.1363345377421249,0.6620577674497354,-0.6719885770175779,0.876523038272724,0.5048874162210288,0.4864688657464934,0.6690830503612988,0.1460760903445001,-0.7536039952028979,0.6503084913721708,0.13930006603675724,-0.75334960148367,UP
