xa_S1,ya_S1,za_S1,xgb_S1,ybg_S1,zbg_S1,tilt_x_S1,tilt_y_S1,tilt_z_S1,tilt_accx_S1,tilt_accy_S1,tilt_accz_S1,xa_S2,ya_S2,za_S2,xgb_S2,ybg_S2,zbg_S2,tilt_x_S2,tilt_y_S2,tilt_z_S2,tilt_accx_S2,tilt_accy_S2,tilt_accz_S2,Posture
0.03077002861710335,0.11869457468699043,1.3261714035330001,0.24450929785715367,-0.574086429789081,1.5223034490760148,0.9971694374950452,-0.36695418409014596,1.1756813031660645,0.9800903762444535,-0.36813363942882543,1.167707298262327,-0.8542676094701684,0.7030655086795609,-0.4152848552067626,-0.6676602235973097,-0.242253178350478,0.618685962292546,0.782192127538987,1.6186189215271503,-0.24247748428825258,0.7559109148794688,1.5634925933937251,-0.25462343350796274,S_LF
0.012009661155045422,0.10242825105382444,1.34483006252608,0.5415721392295499,-1.34256185527064,1.3448360723845285,0.9975096236413021,-0.36810193602893565,1.1758890003750606,0.9866221620560203,-0.3659662989916843,1.169258462309447,-0.8611830771111607,0.7064825871612248,-0.4084393945862539,-0.6676602235973097,-0.4290384969159616,0.22203467265438823,0.7813130991658988,1.6178708651804699,-0.24249334341722745,0.7601420028998072,1.5868343248422678,-0.24612129584853798,S_LF
0.029429688729966413,0.11666123218127535,1.328432925826119,1.0214428599581968,-0.029907099200566903,1.4927255206715802,0.9981312836040055,-0.368108050384774,1.1760983725615486,0.9806787710887295,-0.36861429960641706,1.167978180665094,-0.8784710380969472,0.7261322756385296,-0.38619170598394825,-0.9003451942349505,-0.32526893590761985,0.30136503450462754,0.7809546014192704,1.6188556482191379,-0.24199906723084857,0.7915829682975107,1.667818078553409,-0.22124760009143052,S_LF
0.06159016184499955,0.15529307413964225,1.336348832838798,1.2499526343165315,-0.029907099200566903,1.0194794411411119,0.999618087014803,-0.3685509044433481,1.1765000879966905,1.0181611594922448,-0.3904860855420355,1.1835110012418626,-0.8819287719174433,0.7064825871612248,-0.3941781156507739,-1.1118772124475125,-0.5743156648267033,0.16914793795857497,0.7797474564645226,1.6189686006693147,-0.24162109132361742,0.7558137415660832,1.633921170292685,-0.22510981146230102,S_LF
0.03747008144359095,0.14919346303505215,1.3408721090197406,0.9985918376201762,-0.991258852929815,0.9899015127366774,1.0009304802693981,-0.3694750456543368,1.1768442958712773,1.0208653636154985,-0.37491531757084806,1.1813160734597716,-0.8663693237835578,0.7167345224686812,-0.3879030127247275,-1.2599494035108147,-0.22149937489927807,-0.04239912206772053,0.7786476582926631,1.6195428319878786,-0.24126954729801095,0.7678895501982925,1.6453510149413404,-0.22383119541119365,S_LF
0.03880987246099553,0.1725758608193882,1.3261714035330001,0.3359132375352789,-0.5082171528038443,0.7828562076407569,1.0018465652977702,-0.36978862476090135,1.1771502584264653,1.0277727572632354,-0.3639955922635577,1.1812684182222477,-0.8957589990827333,0.7286951719825856,-0.41642580425307946,-0.9003451942349505,0.4841334768317434,-0.14817288590673572,0.7787138217185946,1.6202482775300013,-0.24153386611425653,0.8266436396188337,1.6173253397443605,-0.25231928829421474,S_LF
0.014689792059586936,0.1288608708030107,1.3159937426324977,-0.4410203245657642,-0.13495766248158245,0.9011679212584951,1.0009727876835266,-0.3694925152424462,1.1772256324136008,0.9820407802377777,-0.3483085919221523,1.164431906410763,-0.9216909405614125,0.7005026123355048,-0.4249825716143674,-0.5195880325340071,1.2312740714032502,-0.8621446876423808,0.7784262133568928,1.62081439250484,-0.2418774805753754,0.7809047008598978,1.5933926528551865,-0.24936660792877127,S_LF
0.04685026517462007,0.12377772274500057,1.3397414636705338,-0.4181693022277436,-0.3984349286186684,0.9899015127366774,1.0005963380394454,-0.37015898002882125,1.1774592917737219,0.9952482199999951,-0.38658487275518155,1.1758493767389107,-0.8629115899630616,0.7235693792944735,-0.4238416225680506,-0.2869027847895027,0.9614732671567959,-1.1530226810932582,0.7789143374073865,1.6206649165078995,-0.24262021644902534,0.8104804784923357,1.5707588577877416,-0.26712487126951046,S_LF
0.040150212348132465,0.14614365748275665,1.3408721090197406,-0.02970250620982642,-0.04713189751490898,0.9011679212584951,1.0010116414311956,-0.37031795328061695,1.1777577169301963,1.017665805121149,-0.3776070145653621,1.1808746354700772,-0.8438951161253747,0.7175890545375213,-0.40958034363257073,-0.30805601432144525,1.0237349493865666,-1.1530226810932582,0.7787455531575617,1.6208225088485655,-0.24310391988275443,0.779511208553359,1.5810464575062126,-0.2541067144440102,S_LF
0.036129741556454015,0.1288608708030107,1.3318255566578547,-0.6009771815839942,0.10656318758140279,1.0194794411411119,1.0004521474647632,-0.3702498218869903,1.177927447982709,0.9939043020540642,-0.37321989803534233,1.1728632605396845,-0.8421666032734738,0.7389471072900419,-0.4169961619475418,-0.30805601432144525,1.0859966316163376,-0.9414750494926202,0.7796326831746416,1.6210632937124156,-0.24380965112212993,0.8320819710950549,1.5830768163579825,-0.2680238569879181,S_LF
0.03747008144359095,0.13292713940188616,1.3216481273520573,-0.5552751369079532,0.018737408233262115,1.3448360723845285,0.9998140825863777,-0.37016422090525386,1.178104716433936,0.9874603878005009,-0.36835212132773065,1.1699749629859018,-0.869827057604054,0.7244235614320814,-0.415855212901225,-0.7311200507465689,0.712426402299627,-1.1530226810932582,0.7797562332455134,1.6212134460713334,-0.24430657049667134,0.8082927293118035,1.5943177435108278,-0.2567483088423803,S_LF
0.05891003094045803,0.15834329610449246,1.3306946797139427,-0.4410203245657642,-0.06908835673341135,0.9307456559278086,0.9998831559155668,-0.37048828176468396,1.1784137497811924,1.0158894212721048,-0.38494451065820007,1.1817583475062645,-0.8801995509488477,0.7286951719825856,-0.4101507013270329,-0.8580388737244972,0.6086568412912851,-1.2059094157890715,0.7799196163993439,1.6218167609549126,-0.24466340089860253,0.8166253409346325,1.6188575211427656,-0.24888152472587696,S_LF
0.040150212348132465,0.1634264441625026,1.3159937426324977,-0.39531842956367996,-0.09104481595191372,0.8715899928540606,0.9998296240854453,-0.370360753771485,1.1785868307886893,1.0092981929360068,-0.3616298702622105,1.1752499240142689,-0.8801995509488477,0.7005026123355048,-0.4038758320583786,-0.9426520689591309,0.2143328085233745,-0.624154294909048,0.7787286747325791,1.6218458445199284,-0.2445999643827038,0.7499738953574694,1.6059412117850824,-0.23515946999182888,S_LF
0.04550992528748283,0.15935975915107242,1.3159937426324977,-0.6009771815839942,0.34808387944824887,0.8715899928540606,0.9995472868523843,-0.3699685615184285,1.178735903785469,1.0046944124853323,-0.36667767605451995,1.1748466659517138,-0.8663693237835578,0.712462911918177,-0.4061574964936202,-1.0907243985758652,0.6294107806805707,-0.4390504636671821,0.7778766518394626,1.6221021857092521,-0.24467661683941488,0.7731612024494701,1.601495263743111,-0.24375915155618336,S_LF
0.036129741556454015,0.14106050942474652,1.336348832838798,-0.7609341882761809,-0.003219050985240245,0.6645448814932611,0.9991915592070598,-0.3700035006946473,1.17890395986049,1.0093386827715571,-0.3731421184793319,1.1775014249730695,-0.8646408109316569,0.7133174439870171,-0.41756651964200403,-0.32920910529995606,0.712426402299627,-0.7563713914551005,0.7778104884135314,1.6218701935511042,-0.2450810246282703,0.7836370254841959,1.5763241924152087,-0.25724920997580353,S_LF
0.036129741556454015,0.10446159355953953,1.3374797097827098,-0.7837852106142014,-0.44234787581860757,0.6645448814932611,0.9982305765147146,-0.37055816011712156,1.1788953058101153,0.9773922025222394,-0.38075839747517304,1.1693328713645283,-0.8352511356324814,0.7064825871612248,-0.4124325994196666,0.030395228673996886,1.0859966316163376,-0.7828150186095265,0.7774060813509508,1.62157665245304,-0.2454827892289636,0.754489755171202,1.5576005188980593,-0.2566639465462246,S_LF
0.044170134270078557,0.14207697247132647,1.31882105078963,-0.28106331787357736,-0.13495766248158245,0.36876598491915796,0.9979577368644171,-0.37064463457826335,1.1788816268272646,0.9919099622817386,-0.3704294472225231,1.1717206495815111,-0.8732847914245501,0.7141716261246251,-0.41813711099385864,0.1573143426141318,1.0859966316163376,-0.06884245477475792,0.7777787569745643,1.6217383029655683,-0.24570481703460964,0.7888573918199753,1.5827110828429616,-0.25607868311664567,S_LF
-0.0013904444979294778,0.14817658357591704,1.3261714035330001,-0.09825543851732682,-0.2227834274482559,0.2504544650365409,0.9982599326796201,-0.37013015520844056,1.1788308191766768,1.0121324814245392,-0.3370532784181436,1.1712800476486154,-0.8629115899630616,0.7252777435696894,-0.426123287003292,-0.09652392683216751,0.5256412196722288,-0.4654937444129156,0.7785153314408003,1.6212344132926237,-0.24629424799483704,0.8160301543901446,1.5673590151674102,-0.2700749153131993,S_LF
0.014689792059586936,0.14106050942474652,1.3431338629075646,0.10740338833996577,-0.46430420560390523,0.1912986857217203,0.9988669145598704,-0.3703057245689405,1.1789045181863207,1.0193551788980524,-0.3597421866556682,1.1779074698916205,-0.8577253432906645,0.7671396669371228,-0.40216429166020734,-0.2445961871721859,-0.2630071177397635,-0.5183804791087289,0.7805846263436542,1.621912804355662,-0.24655856681108262,0.8886550594818267,1.6542926615401947,-0.2539300808864343,S_LF
0.05087018709656585,0.1430934355179069,1.3346526332202826,0.10740338833996577,-0.420391402218638,0.4870775048017749,0.9992165982888909,-0.3709136662351487,1.1790580577897454,1.0071522316518322,-0.3835068997634025,1.1788477551045173,-0.8525390966182679,0.7175890545375213,-0.43924385054984727,-0.43497511440623704,-0.7403469080648158,-0.3068333671211295,0.7808492800473797,1.6196429335604905,-0.24739381427041818,0.8064106711796307,1.524154054488556,-0.28520212954258783,S_LF
0.03077002861710335,0.16545937025566299,1.353876846482671,0.17595633561486188,-0.09104481595191372,0.6941226161625745,1.0004530108813776,-0.3710045080933177,1.1794561441069882,1.0491712046087256,-0.37312027028944156,1.1894723649019323,-0.8836572847693438,0.6731642348260319,-0.4152848552067626,-0.26574969381099195,-0.6158235436052742,0.22203467265438823,0.7791135028221801,1.6181698171743515,-0.24720350472272154,0.701597780843592,1.5586089752813888,-0.2406693824594867,S_LF
0.08973071303808659,0.15122680554076726,1.34483006252608,-0.09825543851732682,0.10656318758140279,-0.04532433467000163,1.0008190995260808,-0.3718116030639733,1.1796836618829718,1.0182068182429724,-0.41769582123170995,1.188726323551925,-0.9234201615300078,0.7201519508815774,-0.44095515729062645,-0.11767705937670783,-0.49130017914573254,-0.12172955319969832,0.7802106004460422,1.6172350849219892,-0.24770306728542513,0.8359398865994048,1.578346483615912,-0.27103980907547803,S_LF
0.06293050173213648,0.10649493606525462,1.3159937426324977,-0.006851588643575686,0.34808387944824887,0.28003239344097547,0.9999660439105937,-0.37187187314295106,1.1794790354660443,0.9537711216507871,-0.39077622950378205,1.1641050082024857,-0.8732847914245501,0.7244235614320814,-0.41471426385490817,-0.09652392683216751,0.048301456534793466,0.2484784730131605,0.7807486846344841,1.6171194270239042,-0.24777971974213658,0.8085390366686493,1.5995254122743405,-0.25465243304726604,S_LF
0.06561008376694533,0.1105612046641301,1.336348832838798,0.24450929785715367,0.6554740784038068,-0.22279161449392715,0.9998054484202288,-0.37186139139008517,1.179360391227034,0.9769950575394998,-0.40217137142309023,1.1733172393813587,-0.8594545642592603,0.7278409898449777,-0.42098936678095455,0.36884636082669364,0.1728249297448036,0.4864688657464934,0.7817674663664275,1.616664911775288,-0.2480281794294073,0.8164323439372135,1.5780567204817688,-0.2657645292440027,S_LF
0.06159016184499955,0.15122680554076726,1.3289984800954273,0.0388504350781114,0.6335177486185092,-0.22279161449392715,1.0000826051536007,-0.37157925754211796,1.1793712785807315,1.007321082880936,-0.387575906648616,1.1796826971607826,-0.8525390966182679,0.7081913013676729,-0.3953190646970907,0.4323057723156577,0.006793604943839655,1.0417807058807835,0.7814852591007201,1.61673931159277,-0.24749689860875396,0.7501689167989172,1.609917219152423,-0.2335486773996089,S_LF
0.009329530250503908,0.12987733384959113,1.3380450324573134,0.6101250565696547,0.6554740784038068,-0.5777261741417782,1.0007966506940946,-0.3706341528253978,1.1791683271412958,1.0052250877768023,-0.35512959680597794,1.172754015784659,-0.8421666032734738,0.7158803403310733,-0.39588942239155306,0.45345900184760024,-0.0762220397846912,0.5922426815468125,0.7814764823197293,1.6167102280277543,-0.24718764559374665,0.7639789991491921,1.607848538958086,-0.23844696322013947,S_LF
0.010669870137640848,0.11462788967556026,1.327302280476912,0.0388504350781114,0.3041710760629817,-0.45941465425916117,1.000522947627182,-0.3700131089681074,1.1788481272774265,0.9808476223178333,-0.3537138341010713,1.1651291777808483,-0.8525390966182679,0.7158803403310733,-0.40729844553993705,0.1573143426141318,0.15207099035551813,0.9095636093347309,0.7815372446496661,1.6165147594163702,-0.24701583836318702,0.7768497394700711,1.5912816174927504,-0.24908452150100122,S_LF
0.013349452172449998,0.1105612046641301,1.322213450026661,0.38161513253736307,-0.04713189751490898,-0.5777261741417782,1.000363215553432,-0.36970477073797586,1.1784492034714376,0.9717804836121173,-0.35403980909423793,1.1624549107675237,-0.8853865057379395,0.7201519508815774,-0.41471426385490817,0.6649910200601621,-0.13848375328022175,0.724459778092865,0.7824547558317145,1.6163923378985139,-0.2469365427183134,0.8032221718341606,1.6051088991167077,-0.2508324028244736,S_LF
0.05622990003591652,0.11971103773357039,1.3142975430139823,1.0899957772983015,-0.5301736264038139,-0.6073041025462128,1.000617060038202,-0.3703642476891071,1.1781292827704837,0.9651651336718612,-0.3820579278098623,1.165883858384442,-0.8283356679914892,0.7192977687439693,-0.3947484733452362,0.009242096129456579,-0.7818549227814723,0.9624501708261979,0.7821678226070122,1.615747764934331,-0.24660085782168178,0.7657895269256781,1.60257027824774,-0.24118082887992975,S_LF
0.00396981731115355,0.12072750078015035,1.317690173845718,1.0214428599581968,-0.5082171528038443,-0.13405800364223255,1.0011247490077433,-0.37022711142244796,1.1778311367769247,0.9781253269914617,-0.3423519014303965,1.162082586806519,-0.8577253432906645,0.6979393660602166,-0.4107210590214953,-0.3503621962784668,-0.6365774829945596,0.5393559468509991,0.7811571425190603,1.6145898332295234,-0.24649248710702093,0.7421878836224355,1.5711548449942623,-0.24743945672596845,S_LF
0.012009661155045422,0.14411031497704155,1.3216481273520573,0.4501680498774678,-0.6179993769890202,0.3391880565147234,1.001613442811757,-0.3702655445162888,1.177797078901256,1.0018351409067794,-0.3460774547705307,1.1699593565923267,-0.8940304862308324,0.7047742228860089,-0.41129165037334975,-0.5830477211298347,-0.678085225835045,-0.015955784510961447,0.7805826009326564,1.614133965256953,-0.246386759580523,0.7699673045865894,1.6049535968336754,-0.24139173462031846,S_LF
0.042829794382941315,0.14411031497704155,1.322213450026661,0.38161513253736307,-0.2886527044334926,0.014230713355838028,1.0019251362097235,-0.37048566132646765,1.1777635793514178,0.9972925259523624,-0.37069162550120954,1.173395271349234,-0.8629115899630616,0.7141716261246251,-0.3896143194655065,-0.03400563952835668,-0.8233626656219577,0.16914793795857497,0.7802342302410177,1.614184016043259,-0.24593741759290547,0.7623817128104137,1.636369030087153,-0.2260061608589537,S_LF
0.044170134270078557,0.15122680554076726,1.319951696138837,0.10740338833996577,0.0406937955444285,0.014230713355838028,1.002097819532696,-0.37039307250948744,1.177749621205652,1.0013492628801737,-0.3692190575025872,1.1743324910205357,-0.8317934018119852,0.7372383930835938,-0.4084393945862539,-0.26574969381099195,-0.5328079219862178,0.06337422608086365,0.7808405032663888,1.6135549994045497,-0.24620702278547615,0.8180289554613157,1.5921078794228252,-0.2603890691858423,S_LF
0.02540976680802032,0.14106050942474652,1.328432925826119,0.10740338833996577,0.21634532547777544,0.014230713355838028,1.0023084931867232,-0.3699746758742666,1.177715284167068,1.0034280282670518,-0.3606973895176823,1.173300239559786,-0.8438951161253747,0.7158803403310733,-0.43981420824430967,-0.41382202342772617,-0.3045149965183344,0.11626132450580404,0.7809930842282304,1.6115563497621983,-0.24700526561053723,0.8003623072360435,1.5145481712852156,-0.2874667299300131,S_LF
0.03478995053904944,0.1400436299656114,1.323909649645176,-0.0754045359184718,-0.3106091780334622,0.01383140027947626,1.0022299222747706,-0.3701249143320079,1.1776605682356656,0.9965688778276305,-0.3659933907471485,1.1722646438718416,-0.8387088694529776,0.7244235614320814,-0.42270067352173374,0.2630803517204127,0.048301456534793466,0.08981799179876666,0.7816715969125267,1.6106527301607834,-0.24747839629161653,0.8034509340094229,1.5547270905098258,-0.2717858881321036,S_LF
0.01602958307699151,0.10649493606525462,1.3312600023885468,-0.3039144898855547,-0.6619121803742873,-0.13405800364223255,1.0015495499822569,-0.3705127391880372,1.1774369587404963,0.9764773045359711,-0.3615075203988235,1.165328995355729,-0.9597245963534812,0.7107545476429611,-0.41870746868832087,0.7284507086559897,0.23508661197457445,-0.015955784510961447,0.7828112281673448,1.611725440256475,-0.24724843892148324,0.8105486347746411,1.6452373955221522,-0.23615336329341124,S_LF
0.010669870137640848,0.1319106763553062,1.322213450026661,0.3587641101993426,-1.4084311322558767,-0.28194747130279624,1.0017455455538313,-0.37128314802366313,1.1772233991102785,0.9915317699879799,-0.3477186907951081,1.167178074308773,-0.8663693237835578,0.7073371192300649,-0.3998826272249659,0.601531608571198,-0.8233626656219577,-0.14817288590673572,0.7827632934403946,1.611296626762989,-0.24703962705664917,0.7568529561675698,1.6101760562908107,-0.23539673894976632,S_LF
0.009329530250503908,0.15325973163392717,1.3369143871081064,0.4501680498774678,-1.2108231574854946,0.0729871852126154,1.0026927135803387,-0.37190768579857525,1.177302123052398,1.025322691469501,-0.35000313753006246,1.1777929301102037,-0.869827057604054,0.7210061330191853,-0.40045298491942816,0.3053866722308661,-1.1969328949386684,0.1955913919086547,0.783137994475006,1.6108955441105643,-0.24682024243916528,0.7885503511422635,1.624714635817143,-0.2384733264376882,S_LF
0.029429688729966413,0.12377772274500057,1.3323908793324588,0.1988072531811126,-1.7597344222260456,0.2208765366321064,1.0027194794953993,-0.3733943477466878,1.1772781150416807,0.9909537129740574,-0.3692225532129699,1.1711981140823464,-0.9078607133961226,0.7269864577761376,-0.3896143194655065,-0.26574969381099195,-0.07454092474708618,0.3278084884547073,0.7834505829056817,1.612515431045736,-0.2461753045275264,0.8062547889894078,1.6839627929462573,-0.2186640047716674,S_LF
0.02540976680802032,0.11564435272214021,1.3391759094012252,0.8386348309279895,-2.0671239021082437,0.6941226161625745,1.0032858807947511,-0.3751622700633624,1.1773615847533607,0.9908486116987985,-0.3710516836706056,1.17152111069223,-0.9078607133961226,0.7235693792944735,-0.40729844553993705,-0.6676602235973097,-0.07454092474708618,0.6451294162426258,0.7836220677035038,1.6132567237726456,-0.2458739810770067,0.8123888543968838,1.6419128509784429,-0.23806469656568477,S_LF
0.05622990003591652,0.13597736136673638,1.3453956167953884,0.7929329359259052,-2.1329938981668404,0.014230713355838028,1.004148433993001,-0.37729618025092937,1.1775067494693259,1.0102397969840209,-0.3944458514777964,1.181883756026064,-0.9026744667237255,0.7150261581934653,-0.426123287003292,-0.5618942144910287,-1.2799486524958104,0.40713885030494656,0.7837483183223729,1.612104202963655,-0.246032572366754,0.8067582007379202,1.5893837025793245,-0.25836437407810975,S_LF
0.05622990003591652,0.15732641664535735,1.342568540232961,0.7929329359259052,-6.634063795427002,0.3983439133235925,1.005327861088907,-0.3830288255890396,1.1778046162999696,1.026881119395262,-0.38898904757073616,1.1858480586797264,-0.9078607133961226,0.7201519508815774,-0.40501654744730337,-0.18113677568322178,-0.8648704084624431,0.8302335938931841,0.7840467288760634,1.612311846090627,-0.24561494863708622,0.8031607636986181,1.6436850449960803,-0.23470602264999282,S_LF
0.04685026517462007,0.14411031497704155,1.3470918164139039,0.10740338833996577,-0.5960429033890506,-0.19321368608949263,1.0058208719759951,-0.3835965872025961,1.1779294021231164,1.0207378637078075,-0.3863794997702105,1.1834953948482874,-0.8611830771111607,0.7210061330191853,-0.4192780600401755,0.2207737541030959,-0.49130017914573254,0.2484784730131605,0.7845659092285249,1.611465717257266,-0.2458845538296565,0.8006592256936111,1.5769366615920175,-0.26181268293346693,S_LF
0.06025037082759497,0.14512677802362198,1.34483006252608,0.22165827551913314,-0.7058251275742263,-0.28194747130279624,1.0063233804458467,-0.38439494737919727,1.1780519546429409,1.0173401634650197,-0.39559506626603863,1.1842453377966886,-0.8732847914245501,0.7201519508815774,-0.40102357627128277,0.707297617677479,0.08980930812574726,-0.12172955319969832,0.78518771040488,1.6120155995446541,-0.24574975123337137,0.7883047186000939,1.6253802170301404,-0.23812533196604668,S_LF
0.05489010901851194,0.12479418579158053,1.3346526332202826,-0.02970250620982642,-0.7497379309594936,0.1912986857217203,1.0060634920447726,-0.385148760106119,1.1780815459119647,0.9899216529104519,-0.3901793369559725,1.1749316650595778,-0.8957589990827333,0.7192977687439693,-0.3964597800860154,0.4323057723156577,0.3596099764341162,-0.5183804791087289,0.7856218234954299,1.6132695746502104,-0.24548807560528832,0.7905147366649435,1.6521318756628478,-0.2275405001202824,S_LF
0.010669870137640848,0.1522432685873472,1.3606618765514376,-0.34961638488763885,-0.7058251275742263,0.2208765366321064,1.006699830089928,-0.38527192070229044,1.1783531714285684,1.046836577920603,-0.3633366508564592,1.1868633103189035,-0.850810583766367,0.7312580683266416,-0.4198484177346377,0.07270150761842069,0.1728249297448036,-0.7563713914551005,0.7864063326886163,1.6128664629118548,-0.24609072250632805,0.8201964602015591,1.5767632070940847,-0.26734632229691896,S_LF
0.053550318001107364,0.1542766110930623,1.319951696138837,-0.37246740722565946,-0.33256565163343177,0.5758110962799575,1.0063950440248806,-0.38535315428699934,1.1784804697179532,1.002593248466022,-0.37605666701072965,1.1760333092346167,-0.8421666032734738,0.7141716261246251,-0.415855212901225,-0.03306450910829899,0.1728249297448036,-0.8092579529465675,0.7862253959728038,1.6121806318670682,-0.24655063724659498,0.776530552128186,1.5629231516892717,-0.2607871537708263,S_LF
0.03077002861710335,0.1400436299656114,1.3346526332202826,-0.8980401726303472,-0.26669623083352306,0.0729871852126154,1.0058061938935428,-0.3852046627880692,1.1784977778187031,1.0076484475087912,-0.36826647642335986,1.1760452927153975,-0.88711501858984,0.7175890545375213,-0.3987416781786491,-0.011911036415083733,-0.09697588809545937,-0.8621446876423808,0.7862442998087842,1.612849553862427,-0.24644226653193452,0.7855973621188185,1.6387711731922439,-0.2317348880322651,S_LF
0.04550992528748283,0.17460920332510327,1.3403067863451372,-0.9894439626345156,-0.3984349286186684,0.605389024684392,1.0057889255612453,-0.38534791341056673,1.1788673895185833,1.0421750779171226,-0.3761038591008933,1.1879526923275618,-0.8819287719174433,0.7218606650880254,-0.3793462453634395,0.07270150761842069,-0.5950696042159888,-1.2059094157890715,0.7861707098758607,1.6139993692235088,-0.2460061404851293,0.7779233696200486,1.6814665272453893,-0.21151166385073134,S_LF
0.044170134270078557,0.14614365748275665,1.3470918164139039,-0.8523381279543062,-0.6399558505889896,0.01383140027947626,1.0055039980783396,-0.3858588988627675,1.179018974981601,1.0230087404420851,-0.3838888061226892,1.1836982779647631,-0.9113184472166188,0.769702913212411,-0.42041877542910006,0.136161251635621,-0.470546239756447,-1.3116827119763517,0.7890731238358504,1.6147474255701892,-0.24660350100984435,0.9247549454046365,1.6571149948050057,-0.262321493032155,S_LF
0.06293050173213648,0.12784399134387603,1.3256058492636915,-0.6923812709360763,-0.727781457359524,0.1025650554965136,1.004592230133042,-0.3865472006342791,1.1789692839826742,0.9825438879816387,-0.3914290534177111,1.1729418498787587,-0.88711501858984,0.711608729780569,-0.43810290150353043,-0.054217647887743727,-0.7611008474541013,-0.9414750494926202,0.7893688338415435,1.6130659896951014,-0.24736738238879352,0.8037674220926029,1.5486615615162274,-0.2743773924171315,S_LF
0.05489010901851194,0.14716012052933708,1.3216481273520573,-0.8066359336043083,-0.2886527044334926,0.1912986857217203,1.0038600528436366,-0.38663018117779885,1.1789849171059321,0.9975406338808416,-0.3793557436842006,1.1751470890280333,-0.850810583766367,0.7295493541201936,-0.41756651964200403,-0.20229000521516433,-1.0724095304791268,-0.7299279375050207,0.7897698652191277,1.61182486546711,-0.24786694495149747,0.8146150680139647,1.5801966649271937,-0.26437255135743626,S_LF
0.1192110552485779,0.1288608708030107,1.335217955894886,-0.4638713469037847,-0.2447399010482255,-0.015746483759615536,1.0031589585523655,-0.3878941058775162,1.1791066321370105,0.9838662687810001,-0.44049397041868715,1.1826370432016597,-0.88711501858984,0.7073371192300649,-0.3947484733452362,-0.054217647887743727,-0.7403469080648158,-0.17461623593420772,0.7891757446597439,1.6120385958518755,-0.24743610528101737,0.7599550792344747,1.6375778331386373,-0.2247855438864533,S_LF
0.06025037082759497,0.14411031497704155,1.3233443269705727,-0.5324242642438894,-0.5521299561891114,-0.19321368608949263,1.0026806257477303,-0.38826795506305817,1.179050799553947,0.9955437096509268,-0.3850432644765053,1.1756420346528422,-0.9234201615300078,0.7304038861890337,-0.41870746868832087,0.47461250848640635,0.11056311157694723,-0.3068333671211295,0.7905955577692713,1.6127934158183272,-0.24752861686670333,0.8411150403518727,1.6353545229655235,-0.2488393435777993,S_LF
0.044170134270078557,0.10751139911183458,1.3233443269705727,-0.32676536254961835,-0.6179993769890202,-0.45941465425916117,1.0017420918873714,-0.38861210594881396,1.1787305996900779,0.9650195425610523,-0.3794396407333802,1.1653359624957178,-0.8957589990827333,0.712462911918177,-0.43525064571643457,1.1938210655915666,0.006793604943839655,-0.49193719836299543,0.7918020275870199,1.6119858396176612,-0.248073113628169,0.8061495178999065,1.5622374013486078,-0.26943692544852293,S_LF
0.10447060970846607,0.13496048190760127,1.3278676031515155,0.15310522347246724,-0.6399558505889896,-0.7551935508332643,1.001619486728061,-0.38986118149863824,1.1786426633717528,0.9845158291215331,-0.4240824841005117,1.1797504177614744,-0.88711501858984,0.6928135733721045,-0.4033052407065242,0.8342167177622707,0.23508661197457445,0.06337422608086365,0.7912673190835746,1.6122110681560375,-0.24771628322623745,0.7352312191245618,1.6052131062763186,-0.23112326138513742,S_LF
0.042829794382941315,0.12581106525071567,1.3414376632890492,0.7472308912498641,-0.09104481595191372,-0.6073041025462128,1.0022618686895204,-0.3897878092285786,1.1785332315089483,0.999376460254417,-0.38388531041230656,1.1765753527257503,-0.9666400639944736,0.712462911918177,-0.40958034363257073,0.601531608571198,-0.11772981389093629,1.0153372519307036,0.7921051640997055,1.6135252394775568,-0.24702376792767428,0.8096045690425114,1.6716233206398383,-0.22481717974751156,S_LF
0.020050053868669964,0.1319106763553062,1.352745969538759,0.4273171772134041,0.018737408233262115,-0.31152520597210964,1.003061392474886,-0.3893554369228704,1.1785491437951214,1.0194335741115648,-0.3705439317375495,1.1800360705010176,-0.8542676094701684,0.711608729780569,-0.3918962175581402,0.36884636082669364,-0.4290384969159616,0.9095636093347309,0.7916778023791489,1.6135874647794506,-0.2464739847898839,0.7555228964406022,1.6220462602268533,-0.23002127889160592,S_LF
0.04550992528748283,0.12682752829729563,1.3397414636705338,0.5644231615675704,0.6335177486185092,-0.28194747130279624,1.0035362716130616,-0.38867062906898053,1.1784986153074488,0.998219484740709,-0.38494888029617796,1.1764312722707806,-0.8784710380969472,0.7039196908171688,-0.40558713879915786,0.4957655994649171,-0.4290384969159616,1.2004410831725696,0.7915805826512495,1.6131681203536443,-0.24590834252311863,0.7581985366320919,1.6041730515929782,-0.23830460184537716,S_LF
0.04685026517462007,0.14817658357591704,1.3617925219006444,0.38161513253736307,0.3041710760629817,0.0729871852126154,1.0047839086215422,-0.38831424947154825,1.1788042986997216,1.0385042866558345,-0.3929444438685188,1.190107489383317,-0.8473528499458708,0.7671396669371228,-0.41471426385490817,0.6438379290816514,-0.32526893590761985,0.7509030588385985,0.794117072357619,1.613235080189378,-0.24624402741975024,0.8948620048743423,1.617551906278482,-0.2707761768999922,S_LF
0.057570239923053455,0.14207697247132647,1.3318255566578547,0.24450929785715367,0.545691854218631,-0.7551935508332643,1.0050256652737046,-0.38781549273102395,1.1786945876740018,1.0023994141468973,-0.3875706630830425,1.1781973029151573,-0.8266071551395886,0.7235693792944735,-0.41471426385490817,0.7496039381879324,-0.22149937489927807,0.43358230425502636,0.7946322018880847,1.6122387989970992,-0.24652684855313287,0.7910302950776292,1.5615805600909325,-0.26545871592043885,S_LF
0.05220997811397043,0.13496048190760127,1.3256058492636915,0.13025430590621653,0.5237355244333334,-0.5481484394724647,1.004942777278677,-0.38719182843551725,1.178526810761896,0.9907486793387166,-0.38158862869101334,1.173528483065821,-0.8369796484843823,0.7022109766107207,-0.4038758320583786,0.601531608571198,-0.055468104473548316,0.22203467265438823,0.7939827200947583,1.611619251426069,-0.2464528392845843,0.7386106910234221,1.5733008401779873,-0.24549385127088136,S_LF
0.04685026517462007,0.12479418579158053,1.3403067863451372,0.0388504350781114,0.6115612750185396,-0.6664599593550817,1.004904786947623,-0.3866048502750402,1.1783928125625436,0.9967144689384393,-0.3866722655147435,1.1763086506069764,-0.869827057604054,0.709045833436513,-0.42783482740146345,0.6649910200601621,-0.1799915369021328,0.06337422608086365,0.7942737041414564,1.6105499231402631,-0.24683610156814018,0.7843584023731499,1.554569099009771,-0.26647369979606006,S_LF
0.07901018941992054,0.1339440188610213,1.355007723426583,-0.4638713469037847,0.5896048014185701,-1.1988615082241767,1.0048175818695217,-0.3867009330096422,1.1783891834446445,1.014075993530962,-0.41746510434646594,1.1874357305403882,-0.8680985447521531,0.7158803403310733,-0.3702191203076892,1.1092081474637967,0.1728249297448036,0.5657994008010789,0.7942716787304586,1.6123747477544976,-0.24581583093743264,0.752432245223194,1.6847897271805876,-0.20257716942350973,S_LF
0.09509042597743694,0.09836198245494898,1.3312600023885468,-0.37246740722565946,0.6554740784038068,-1.258017558768167,1.0036208864413183,-0.38685379190559954,1.178034367379276,0.9562625387659349,-0.4252203378300106,1.1713965382292293,-0.850810583766367,0.7064825871612248,-0.4084393945862539,1.130361376995739,0.5671492343888852,0.4864688657464934,0.7943115118134172,1.6122834388875884,-0.24576561036234623,0.7565641354861176,1.5785979254074887,-0.2485203486454611,S_LF
0.03747008144359095,0.10344513051295957,1.3578347999890101,-0.6009771815839942,0.5676484716332725,-1.317173415577036,1.0030872949733316,-0.3864563587761101,1.1778074079291225,0.9959451620629804,-0.3920705162728972,1.1771143306752885,-0.850810583766367,0.6987938981290567,-0.39075526851182335,0.9611359564004941,0.44262559805317253,0.5657994008010789,0.7936559537870972,1.612750128651792,-0.24524490229434268,0.725116421941651,1.6092186950309033,-0.22643060866148607,S_LF
0.03747008144359095,0.12682752829729563,1.3380450324573134,-0.48672221956784845,0.545691854218631,-1.258017558768167,1.002663357415433,-0.3857645630869767,1.177535224086688,0.9978783363390498,-0.37778704365006016,1.1749461567107546,-0.8801995509488477,0.7073371192300649,-0.4101507013270329,0.876523038272724,0.29734829420434533,0.14270465721284142,0.7938058342009419,1.6128766083415114,-0.24518146577844355,0.7699085957097522,1.5989673997422318,-0.2438777860351519,S_LF
0.04685026517462007,0.1105612046641301,1.3380450324573134,-0.25821244520951364,0.43590977384812707,-0.8143492139070122,1.0021349464471354,-0.3854221591600318,1.1773166395239945,0.9816849865764516,-0.38827242694232633,1.1720762524065427,-0.8577253432906645,0.7039196908171688,-0.39588942239155306,0.5592250109538812,0.1728249297448036,0.22203467265438823,0.7932312926145376,1.6131234804631553,-0.24486428319894898,0.7430691915896702,1.6086566486732607,-0.23199061124248643,S_LF
0.07767039840251595,0.11971103773357039,1.3465262621445955,-0.28106331787357736,0.6774304081891044,-0.6664599593550817,1.001810301799946,-0.3853758647515417,1.1772940273278538,0.9932271741659229,-0.4149193532604204,1.1806530804184312,-0.8611830771111607,0.7064825871612248,-0.4084393945862539,0.19962066312458512,-0.09697588809545937,0.6980164973471316,0.7927418182900453,1.6127291614305017,-0.24473741016715148,0.7601420028998072,1.5868343248422678,-0.24612129584853798,S_LF
0.036129741556454015,0.12276084328586544,1.3312600023885468,-0.32676536254961835,0.7872127761889521,-0.25236954289836167,1.0013682324931352,-0.3844648257316349,1.1771739872742673,0.9878385800942596,-0.3741165477484499,1.1712061959647335,-0.8594545642592603,0.7039196908171688,-0.41813711099385864,-0.11767705937670783,-0.09697588809545937,0.6451294162426258,0.7920801840307314,1.6118485381363086,-0.24482992175283708,0.761877626247225,1.562324128597574,-0.25683267113853564,S_LF
0.1098308715175491,0.12784399134387603,1.3137322203393782,-0.18965952786940893,0.37004049686289037,-0.07490222432741195,1.0005350354597902,-0.3848692466963681,1.177127087904494,0.9632061148199089,-0.4227602316483365,1.1730413406377997,-0.8715555704559549,0.6996480802666647,-0.4078688032343993,0.009242096129456579,-0.1799915369021328,0.5657994008010789,0.7912524660695901,1.6114778917728538,-0.24463168264065316,0.7483604134664602,1.589792463566701,-0.24145500634243533,S_LF
0.07499026749797444,0.13089421330872578,1.3374797097827098,-0.28106331787357736,0.8311257233888912,-0.22279161449392715,1.0002777373085603,-0.3845233488518014,1.1771795705325736,0.9949570377783769,-0.4062569829326205,1.1795288627098284,-0.8767425252450463,0.6970851839226085,-0.39303716660445703,0.2630803517204127,-0.09697588809545937,-0.4390504636671821,0.7902917461195864,1.6118471854123544,-0.2442801386150467,0.7325069922763792,1.6231360654251046,-0.2227661214222303,S_LF
0.07767039840251595,0.12784399134387603,1.3335217562763706,-0.7380831659381605,1.1604722521297468,-0.25236954289836167,0.9995412429360802,-0.38397655074397613,1.177188782908779,0.9879023300481051,-0.40699632567851624,1.177536818044213,-0.875013304276451,0.7210061330191853,-0.401593933965745,0.8976761292512347,1.0444890247139376,-0.4126071829214486,0.7909938885988582,1.6131065714137276,-0.244253706733422,0.7912280157777822,1.62630396307727,-0.2385761429861278,S_LF
0.009329530250503908,0.1400436299656114,1.325040526589088,-0.8751890006183699,0.545691854218631,-0.6073041025462128,0.9989385781389043,-0.38270913212663704,1.1769688025315088,1.0018739077706043,-0.3465083010751722,1.170055503124173,-0.8075899731852069,0.7158803403310733,-0.3953190646970907,1.045748458867969,0.8577038420865395,-0.14817288590673572,0.7909385273649155,1.61325334196276,-0.24431185687299606,0.7513498424824249,1.5812938654722561,-0.24587875424709102,S_LF
0.042829794382941315,0.0759960477171929,1.3233443269705727,-0.39531842956367996,0.545691854218631,-0.6664599593550817,0.9974794040597821,-0.38226103719163,1.1765051129291664,0.9369230426324796,-0.3845232775571103,1.1577958449141719,-0.8438951161253747,0.7013567944731127,-0.3941781156507739,0.6226846995497087,0.4011178552126871,-0.12172955319969832,0.7902282832416522,1.6134616614517086,-0.24409775863183727,0.7311175488578981,1.5988544526272988,-0.23257851099382032,S_LF
-0.040250970439450216,0.13597736136673638,1.3041201137081844,0.01599932892267505,0.5237355244333334,-0.31152520597210964,0.9973611159835454,-0.38006685692508557,1.1760724104104243,0.986281013654361,-0.2974433840741962,1.1556243267224433,-0.850810583766367,0.709900015574121,-0.4169961619475418,0.601531608571198,-0.4290384969159616,0.06337422608086365,0.7903153759145619,1.6123463405514593,-0.24437793657705736,0.7710429591805956,1.5634206568383813,-0.2590102729080503,S_LF
0.04685026517462007,0.09836198245494898,1.319951696138837,0.01599932892267505,-0.7497379309594936,-0.10448011398482224,0.9965779971138625,-0.38073681562908207,1.1758222804382996,0.952997507346015,-0.38164193827434645,1.1621185372488614,-0.8559968304387641,0.709045833436513,-0.4078688032343993,0.3053866722308661,-0.7611008474541013,0.9624501708261979,0.7900216913198664,1.6115049462519382,-0.2442299180399599,0.7634985310996736,1.5863637118633809,-0.24728918638594127,S_LF
0.036129741556454015,0.09327883439693885,1.325040526589088,0.4044661548753836,-1.2547361046854337,-0.015746483759615536,0.9961652839719572,-0.3816731855517475,1.1755908543815015,0.95519946521127,-0.37673658268012317,1.1618415237629043,-0.8801995509488477,0.6945222875785525,-0.415855212901225,-0.32920910529995606,-1.6327652142994062,0.6715726969883592,0.7889603759569672,1.6097768414004294,-0.24413476326611175,0.7467422078727166,1.5748128524487257,-0.24724173259435372,S_LF
0.09107050405549086,0.10954474161754967,1.3516150925948471,1.112846649962365,-1.4303874620411743,0.28003239344097547,0.9970157493375995,-0.3838813414887799,1.1758214429495537,0.9869021449614219,-0.4298163230553841,1.181553513590592,-0.8923012652622371,0.7073371192300649,-0.41642580425307946,-0.49843452589520115,-1.9233192782447186,1.411988195160169,0.7884452464265016,1.6082773468971832,-0.24389423314332828,0.7790273664304589,1.5950115615025584,-0.24815389992153533,S_LF
0.048190056192024336,0.12682752829729563,1.342568540232961,1.2042507393144473,-0.9473459057298758,0.4574995763973404,0.9981994935165794,-0.3847880131116592,1.1760095987544776,1.0005248209094968,-0.38846206923057613,1.1778032414773871,-0.8663693237835578,0.7081913013676729,-0.40729844553993705,-1.2387967281925993,-2.0063353076780315,0.6715726969883592,0.7871813899638123,1.6068414304197847,-0.24375150098255588,0.7647341167719606,1.5950028215472363,-0.24403860166219846,S_LF
0.06025037082759497,0.17664254583081837,1.353876846482671,1.2042507393144473,-0.7497379309594936,0.014230713355838028,1.0003813473023437,-0.38557152413836737,1.1764490011831876,1.0546933289891192,-0.3941871689094927,1.1952116161391575,-0.7609123369002454,0.7286951719825856,-0.42726423604960884,-0.4561282053847478,-1.2176868343279539,0.4864688657464934,0.7869680466720335,1.6037091981038019,-0.244700405532877,0.7908184032692741,1.4853170545580285,-0.29678876365519935,S_LF
0.028089897712561835,0.15122680554076726,1.3386105867266218,0.3587641101993426,-0.7716944045594633,0.427921841728027,1.0012128175024593,-0.38583793535703637,1.1766614441617442,1.022051629648541,-0.36600387787829586,1.179940202654771,-0.9044029795756264,0.6996480802666647,-0.3993120358731113,-0.26574969381099195,-0.7195931046136159,0.06337422608086365,0.7861464049438859,1.6040237064231566,-0.24427220905055944,0.7528688503187534,1.6337954493968965,-0.22429782436180404,S_LF
0.014689792059586936,0.14614365748275665,1.3380450324573134,0.4273171772134041,-0.420391402218638,0.7532784729714436,1.002004570538291,-0.38556540978252896,1.1768716538369783,1.0190734730209245,-0.3561713184999587,1.1771243633568726,-0.8888435314417409,0.6996480802666647,-0.40102357627128277,0.19962066312458512,-0.5120539825969325,0.1955913919086547,0.7855833406864698,1.6041339534254249,-0.2439338809657653,0.7488206370756898,1.6180023501297023,-0.2297550103943652,S_LF
0.06427029274954106,0.14716012052933708,1.3403067863451372,-0.09825543851732682,-0.33256565163343177,0.7237005445670089,1.002258415023061,-0.3860423295379164,1.1772072076611901,1.0141698954900045,-0.39612466638898536,1.183391166434054,-0.8525390966182679,0.7150261581934653,-0.40958034363257073,-0.13883019192124815,-0.13848375328022175,-0.7299279375050207,0.7853537941067079,1.6038654377205137,-0.24423256122812242,0.7768220720683433,1.5855374499333061,-0.2514703926891496,S_LF
0.03077002861710335,0.11259454716984518,1.3431338629075646,-0.16680835585743156,-0.003219050985240245,0.5758110962799575,1.0019976632053718,-0.3858510375481182,1.1772864899291402,0.9910596757351788,-0.3778132614779287,1.1728930798988368,-0.8680985447521531,0.7192977687439693,-0.4198484177346377,-0.3503621962784668,0.06905536873646181,-0.2539466324253163,0.7854300845876288,1.6036314164764345,-0.244607893947191,0.7996766955249329,1.5796191555716734,-0.26042334136865547,S_LF
0.02272963590347881,0.13699382441331634,1.3374797097827098,-0.1211066105293042,0.06265025476293086,0.8715899928540606,1.002126312280987,-0.38532694990483524,1.1774888830427455,1.0089260310432875,-0.36396850050809354,1.1755938220441193,-0.8629115899630616,0.712462911918177,-0.38448039924316907,-0.15998367084936782,-0.3875306181373907,-0.4654937444129156,0.7847360437523485,1.6044024691303367,-0.24420612934649774,0.7544580388814164,1.6459157505160051,-0.21965262542974026,S_LF
0.00530960832855782,0.13699382441331634,1.3397414636705338,-0.0754045359184718,-0.3106091780334622,0.4574995763973404,1.0023931080149804,-0.38489632455793793,1.1775810068048003,1.0139484936232712,-0.35145910090436794,1.1746599466000123,-0.8594545642592603,0.7167345224686812,-0.3987416781786491,0.3053866722308661,-0.9893937729219849,-0.5712675602132347,0.7847677751913156,1.604164389714395,-0.24419555659384795,0.7741936689041937,1.6161857840311982,-0.23791442622565798,S_LF
0.03880987246099553,0.12987733384959113,1.3487880160324193,-0.3039144898855547,-0.5082171528038443,0.4574995763973404,1.0024164202635812,-0.38526493286704694,1.1777711167501315,1.010788563478609,-0.3836248799888116,1.179966399101129,-0.8577253432906645,0.7167345224686812,-0.40558713879915786,-0.13883019192124815,-1.0931633339303266,-0.14817288590673572,0.7845962903934934,1.603483293203448,-0.24426163629790965,0.7791191412264346,1.599917365655328,-0.2461318411355574,S_LF
0.08035052930705747,0.0993784455015294,1.325040526589088,-0.16680835585743156,-0.991258852929815,0.7828562076407569,1.0013855008254324,-0.38662057290433877,1.1777873081992198,0.953426527305677,-0.4103661904872326,1.1677315439094882,-0.8923012652622371,0.7321126003954818,-0.38448039924316907,-0.4772814349166903,-1.0931633339303266,-0.06884245477475792,0.7847691254653142,1.604593203207881,-0.243735641853581,0.8083042011613004,1.6882494048796628,-0.217443387799167,S_LF
0.08035052930705747,0.14207697247132647,1.3357835101641946,-0.4181693022277436,-0.5082171528038443,0.3983439133235925,1.0011480612563446,-0.38746086009240255,1.1780095218798126,1.0025880795508457,-0.40753553900501477,1.182078278574553,-0.8663693237835578,0.7269864577761376,-0.4061574964936202,-0.6253540416402881,-1.2384407737172394,-0.12172955319969832,0.7847677751913156,1.6041028407744782,-0.24382551025110444,0.8050914084874838,1.6151289217414693,-0.2471863698375017,S_LF
0.06561008376694533,0.1288608708030107,1.3301293570393393,0.24450929785715367,-0.727781457359524,0.014230713355838028,1.0011739637547903,-0.38824262416029953,1.1780086843910667,0.9874543573994614,-0.3956020576868037,1.1752259570527075,-0.9303349210543057,0.7321126003954818,-0.4061574964936202,-0.07537078043228404,-0.9271320906922141,0.11626132450580404,0.785813562403231,1.6049895513264654,-0.24359026650464605,0.8376154514406329,1.6696924628178904,-0.23353549579083493,S_LF
0.09375063496003237,0.14614365748275665,1.3504842156509351,0.1988072531811126,-0.6179993769890202,0.014230713355838028,1.0017731748855068,-0.3894550135750941,1.1783057137329644,1.018436834968333,-0.4245893621059722,1.1901024730425251,-0.8853865057379395,0.7150261581934653,-0.4033052407065242,0.1784675721460743,-0.678085225835045,0.14270465721284142,0.7859256351451148,1.605101151052688,-0.2434158160859239,0.7829993256151018,1.6250554940747084,-0.2367386267229902,S_LF
0.03747008144359095,0.12987733384959113,1.353876846482671,0.24450929785715367,-0.44234787581860757,-0.25236954289836167,1.0023568445171556,-0.38973190654662865,1.178373829484302,1.0158928672155558,-0.38511143082896365,1.1817915110926114,-0.8680985447521531,0.7107545476429611,-0.42726423604960884,0.7284507086559897,-0.40828455752667614,0.3806955695592131,0.7865103037865083,1.6040176191653626,-0.2437911488049925,0.7870279692325532,1.5559594242102543,-0.26665560599714544,S_LF
0.10447060970846607,0.11259454716984518,1.3459609394699918,0.8843368756040305,-0.02517551451818277,-0.25236954289836167,1.0027920064910478,-0.3906691499486996,1.1784332911852646,0.9820226890346598,-0.43705856104029916,1.1814350722107811,-0.8888435314417409,0.7261322756385296,-0.3918962175581402,0.5169186904434279,-0.470546239756447,0.8302335938931841,0.7871570850318375,1.6050903292610548,-0.24324400885536465,0.7996287836829162,1.6633250692135484,-0.225452533290433,S_LF
0.08035052930705747,0.12784399134387603,1.322213450026661,0.9757408152821557,-0.09104481595191372,0.04340929555520508,1.003130465804075,-0.3909722473023982,1.1783928125625436,0.9763790951476148,-0.40352508526870784,1.1733888615804442,-0.8940304862308324,0.7150261581934653,-0.40958034363257073,0.136161251635621,-0.906378287241014,0.6451294162426258,0.7873697531866171,1.6048955370116476,-0.24306691524847995,0.7908926328836661,1.6182262274468011,-0.24185836357092888,S_LF
0.07499026749797444,0.1339440188610213,1.336348832838798,0.7015289962477799,0.06265025476293086,-0.16363587392613074,1.0036882329372776,-0.3911679066892239,1.1784383161177403,0.9966179825218083,-0.4051208770583128,1.1798142367637723,-0.8836572847693438,0.738092925152434,-0.3890439617710443,0.19962066312458512,-0.8233626656219577,0.724459778092865,0.7882494566967047,1.6059499853339576,-0.24255942312128875,0.8221696183150311,1.6771120125821726,-0.22607997786808962,S_LF
0.06427029274954106,0.15325973163392717,1.3504842156509351,0.6329760789076752,0.37004049686289037,-0.07490222432741195,1.0048365770350485,-0.39098360253466924,1.1786811878540666,1.0295310499091608,-0.4000398620173694,1.1887709132478539,-0.8819287719174433,0.7133174439870171,-0.3890439617710443,0.1573143426141318,-0.7195931046136159,0.5129123196965731,0.7879719753899924,1.606548565683697,-0.24200171041901072,0.7667173971055767,1.6517392499776045,-0.22079678907134942,S_LF
0.09241029507289543,0.1288608708030107,1.322213450026661,0.8157839582639257,0.2602581288630426,-0.10448011398482224,1.0050299823567785,-0.39115829841576377,1.1786342884842933,0.9753461735981467,-0.4128918412385787,1.174856419947698,-0.8404373823048785,0.7637225884554587,-0.39760072913233224,0.5592250109538812,-0.470546239756447,0.5129123196965731,0.7900628746768238,1.6072587457596597,-0.24209157881653418,0.8718353036752985,1.6478398852953973,-0.25206883772750294,S_LF
0.05220997811397043,0.1522432685873472,1.329563802770031,0.6329760789076752,0.34808387944824887,-0.37068106278097873,1.0057328034812791,-0.3906202351019932,1.178623680293511,1.0103173307116708,-0.3802471498317346,1.1791718664567994,-0.8473528499458708,0.7081913013676729,-0.40729844553993705,0.32653976320937683,-0.470546239756447,0.46002558500075985,0.7896989758342011,1.6065681801810332,-0.24211008113367158,0.758177617377127,1.579910263314328,-0.2484412589928153,S_LF
0.03880987246099553,0.14817658357591704,1.3335217562763706,0.7700819135878847,0.5237355244333334,-0.5185705110680303,1.006617805511516,-0.38975898440819823,1.1785603103117341,1.0126295587673613,-0.37245346353398245,1.178358940562899,-0.88711501858984,0.7295493541201936,-0.40501654744730337,0.3476932698481828,-0.5950696042159888,0.5129123196965731,0.7905125159183575,1.6069611464897327,-0.2419884944781984,0.8168034920091729,1.6363293641360757,-0.24164482150878522,S_LF
0.048190056192024336,0.12987733384959113,1.342568540232961,0.6329760789076752,0.391996826648188,-0.45941465425916117,1.0071479433130428,-0.38936504519633053,1.178520669177759,1.0032798526986546,-0.38788178130708373,1.1785228076954368,-0.8853865057379395,0.7338209646706977,-0.4221303158272714,0.4323057723156577,-0.3045149965183344,0.46002558500075985,0.7918081038200137,1.606842106781762,-0.24229510430504317,0.8388928756228499,1.6013997965388225,-0.262321493032155,S_LF
0.06293050173213648,0.13496048190760127,1.3278676031515155,0.3130622151972584,0.238301799077745,-0.9622388559291849,1.0071721189782594,-0.389173753206532,1.1783221843449683,0.9912104357611641,-0.39118959725651087,1.1755152327050449,-0.8732847914245501,0.709900015574121,-0.4249825716143674,0.601531608571198,-0.2007454626976097,0.4864688657464934,0.7921443220456649,1.60604061783889,-0.24259114137923812,0.7850622340805204,1.5641494346514002,-0.26270639600836465,S_LF
0.05489010901851194,0.1288608708030107,1.3312600023885468,0.4501680498774678,0.34808387944824887,-0.9326609275247504,1.0073085388034078,-0.3888025244592067,1.178101087316037,0.9902972607466219,-0.3877087436431507,1.1745704885225552,-0.8853865057379395,0.6945222875785525,-0.40958034363257073,0.7707570291664431,-0.1799915369021328,0.8037897935344118,0.7917237116951013,1.6058383856077347,-0.24234532488012997,0.7434254937387512,1.5921710760228471,-0.2390111360756796,S_LF
0.03880987246099553,0.12377772274500057,1.3357835101641946,0.3359132375352789,-0.09104481595191372,-0.5481484394724647,1.007378475549212,-0.38863831033097807,1.1779522934821727,0.9927137285917084,-0.37829392165552067,1.1734855654834895,-0.8715555704559549,0.677435845376536,-0.39760072913233224,0.6226846995497087,-0.5120539825969325,0.6980164973471316,0.7902093794056718,1.6053507286222408,-0.24182461681212641,0.6917191687973827,1.5900862605263772,-0.22444809470183122,S_LF
0.05489010901851194,0.1339440188610213,1.343699185582168,0.587274034231634,-0.2227834274482559,-0.6368820309506472,1.0079612817642463,-0.3888924928379703,1.1779221438873182,1.0069747655641004,-0.39293483066496704,1.1806090480937017,-0.8940304862308324,0.7321126003954818,-0.4124325994196666,0.707297617677479,-0.5535618613755033,1.0417807058807835,0.7915265716913057,1.605625331584946,-0.24174532116725278,0.830471863277427,1.627828749128864,-0.24901597713537482,S_LF
0.048190056192024336,0.10649493606525462,1.327302280476912,0.6101250565696547,0.15047604849253873,-0.4002589911854132,1.0077264324450026,-0.38865490643968204,1.1776773180105848,0.9673197098146638,-0.3847732208494582,1.1670582395009645,-0.8767425252450463,0.7286951719825856,-0.41357354846598343,0.11500816065711021,-0.5743156648267033,0.3542517692004408,0.7921821297176257,1.6054697683302115,-0.24189862608067497,0.8181591946938396,1.608654631760494,-0.25355572319724445,S_LF
0.07097034557602835,0.1380102874598963,1.316559296901806,0.26736017052121736,0.08460671398143323,-0.31152520597210964,1.0075226661238947,-0.3886016241959484,1.1775620237265585,0.9815867771880952,-0.39131544283028025,1.1726305580640564,-0.8732847914245501,0.7227148472256334,-0.4192780600401755,0.28423358125235526,-0.8648704084624431,0.6451294162426258,0.7927505950710362,1.6046905993325844,-0.2420995083810218,0.8084087974361255,1.5880579185873742,-0.25937672163197606,S_LF
0.08169032032446205,0.08107919577520303,1.335217955894886,0.6101250565696547,0.4798225772333943,-0.34110313437654416,1.0069156842436446,-0.38876671180358247,1.177340089208881,0.9468068699361074,-0.419857044175682,1.1675147265130348,-0.8940304862308324,0.7056284050236169,-0.404446189752841,0.009242096129456579,-0.49130017914573254,0.3542517692004408,0.7922678721165368,1.6048718643424489,-0.24185369188191325,0.7663637942152007,1.6204334023177818,-0.23386503601019218,S_LF
0.10447060970846607,0.1380102874598963,1.328432925826119,0.8843368756040305,0.06265025476293086,0.014230713355838028,1.007329260802165,-0.3893851352226562,1.1774620834028748,0.9878446104952991,-0.4237853487180005,1.180702129083953,-0.8940304862308324,0.7278409898449777,-0.4141439061604458,-0.15998367084936782,-0.6158235436052742,0.010487560666788872,0.7927971795239878,1.6049334132823656,-0.24200963998349836,0.8224402190002232,1.6201718759623718,-0.24996241664536964,S_LF
0.03880987246099553,0.14512677802362198,1.325040526589088,0.8614858532660099,-0.26669623083352306,0.1025650554965136,1.0080389892595838,-0.38917986756237044,1.177472691593657,1.0016301072714384,-0.36875063231133415,1.174326081251746,-0.869827057604054,0.7218606650880254,-0.40102357627128277,-0.07537078043228404,-0.7818549227814723,0.1955913919086547,0.792745869112041,1.6049543805036557,-0.24190655564516259,0.7908872343662557,1.624276965746778,-0.23932485836450826,S_LF
0.05220997811397043,0.13699382441331634,1.3380450324573134,0.7929329359259052,0.5237355244333334,0.1912986857217203,1.00873749330101,-0.3886461716456273,1.1775927316472434,1.0046918280277444,-0.387428212884956,1.1788616893844952,-0.8940304862308324,0.7278409898449777,-0.40273488301206184,0.32653976320937683,-0.8233626656219577,0.30136503450462754,0.7934196558373423,1.6054007794085463,-0.24174267797909024,0.8135880000766513,1.6451426006221193,-0.23705498533357344,S_LF
0.10447060970846607,0.12987733384959113,1.3369143871081064,0.3130622151972584,0.5896048014185701,-0.16363587392613074,1.0086813712210436,-0.3889414076846767,1.1777018843471325,0.9887853530574503,-0.4294571388135836,1.1820562624121882,-0.8663693237835578,0.7192977687439693,-0.415855212901225,0.7284507086559897,0.2558404154257744,0.43358230425502636,0.7943236642794046,1.605548226319556,-0.2418774805753754,0.7959119044459109,1.5868834030529233,-0.2563449516138864,S_LF
0.05489010901851194,0.12072750078015035,1.303554791033581,0.38161513253736307,0.6554740784038068,-0.22279161449392715,1.0081849066674962,-0.38772727131107126,1.1773596306129535,0.9556956810682284,-0.3754003473864179,1.1617339511214764,-0.8162339536781001,0.7244235614320814,-0.40102357627128277,0.6649910200601621,-0.2837610571290489,0.46002558500075985,0.7944836717482388,1.6051200891880473,-0.24199113766636093,0.778154831054016,1.58395551801999,-0.2525091034605646,S_LF
0.044170134270078557,0.14106050942474652,1.3278676031515155,0.9300389202800714,0.21634532547777544,-0.34110313437654416,1.0088497374609424,-0.3872678211437932,1.1772970981199222,0.999805480214079,-0.3752002179670204,1.175026696849026,-0.8456236289772756,0.7244235614320814,-0.3998826272249659,0.9399824497616881,-1.0516555910898413,0.9888939711849701,0.7950541625126472,1.6046540757858205,-0.24180875768315152,0.7873518802771725,1.6100294939631,-0.244270597976626,S_LF
0.05087018709656585,0.1502099260816321,1.3431338629075646,1.1356976723003858,-0.7936508781594327,0.1025650554965136,1.010165584381997,-0.38792817157432985,1.1775014453739348,1.0218155825221402,-0.38640134796010084,1.183823965170162,-0.8715555704559549,0.6919593912344965,-0.40102357627128277,0.45345900184760024,-1.383718213504152,1.411988195160169,0.794015801807724,1.603755867080222,-0.24130919512044793,0.7260382187894633,1.5970103220543175,-0.23184561354596916,S_LF
0.07231013659343292,0.10751139911183458,1.3306946797139427,1.3870586186706977,-1.4303874620411743,-0.16363587392613074,1.0105074973614836,-0.3894366705075793,1.1773920135111302,0.9676272602676744,-0.40524584870448654,1.171065738422558,-0.8629115899630616,0.6970851839226085,-0.41186200806781215,0.2630803517204127,-1.6742725493256352,1.1739978024268358,0.793225216381544,1.6020967511503785,-0.24116117658335046,0.7430664923309651,1.5720355635690362,-0.247328731212264,S_LF
0.06293050173213648,0.12174438023928548,1.3629233988445564,1.8212271450493465,-0.9034331023446085,0.13214292578041179,1.0121997939266199,-0.3906429455665355,1.1776429809720008,1.0132257069844017,-0.411005031559632,1.185950893665962,-0.8940304862308324,0.6902506770280484,-0.40729844553993705,-0.07537078043228404,-1.466733155432781,1.332658179718622,0.7920531785507595,1.601179604309421,-0.24070126184308313,0.7353479620635601,1.5997062621190843,-0.23347222406871806,S_LF
0.026750106695157566,0.14512677802362198,1.327302280476912,2.1182895373998725,-1.1229974069002884,0.1617208154378221,1.0139611638209445,-0.39100980691683335,1.1776552641402747,1.005804867762451,-0.36038539736604547,1.1739554294043384,-0.9044029795756264,0.711608729780569,-0.3918962175581402,-0.7099665441077628,-1.6742725493256352,1.1739978024268358,0.791205206479639,1.6013696620249884,-0.2399902442273829,0.7730633543214079,1.6613780760894672,-0.2185849151190216,S_LF
0.05622990003591652,0.16545937025566299,1.3453956167953884,2.0954388144097655,-0.6838686539742569,0.1617208154378221,1.0162941155143104,-0.39154612327179306,1.1779656933021077,1.0370070242263303,-0.3888666977073491,1.188870961378094,-0.8663693237835578,0.712462911918177,-0.3947484733452362,-0.7734263712570223,-1.7157812437327191,1.1475545216811025,0.7901816987887006,1.6008982377269445,-0.2395594045569028,0.7639641532263137,1.6262427833900148,-0.23072517680015378,S_LF
0.08571024224640783,0.16545937025566299,1.3431338629075646,1.2956546789925725,-0.3984349286186684,0.546233361610644,1.017693713847007,-0.3922379189609264,1.1783880667929831,1.030159073103125,-0.4110198883287576,1.1910597580769948,-0.914776181037115,0.6654751958626316,-0.3947484733452362,0.030395228673996886,-1.2799486524958104,0.9624501708261979,0.788025311212937,1.600509329590108,-0.2387215139094047,0.679302578753647,1.6179962993914023,-0.20882261566077367,S_LF
0.08973071303808659,0.14106050942474652,1.3595309996075255,0.9985918376201762,-0.33256565163343177,0.3391880565147234,1.0187444918672985,-0.39319437890991793,1.178783361481073,1.0231956828743074,-0.4267811725157908,1.1919537814803656,-0.9268771872338095,0.7107545476429611,-0.4403847995961641,0.32653976320937683,-0.6573314223838451,0.5657994008010789,0.7888699075990612,1.5996990479415336,-0.23916556952069715,0.8165072483662819,1.5740255841654731,-0.2674517751671131,S_LF
0.10715074061300758,0.1634264441625026,1.3606618765514376,0.5415721392295499,-0.17887062406298876,0.04340929555520508,1.0197615966396094,-0.39419800674680466,1.1792596134146047,1.041877865294465,-0.4369528158012289,1.1995083907130883,-0.8784710380969472,0.7286951719825856,-0.401593933965745,0.136161251635621,-0.32526893590761985,-0.06884245477475792,0.7894093420615017,1.6004126098273819,-0.23918142864967204,0.8093447653921398,1.6362802859254202,-0.23955949100069077,S_LF
0.06293050173213648,0.14919346303505215,1.3561383687757897,0.7015289962477799,0.37004049686289037,0.0729871852126154,1.0206483255030765,-0.3940268047833325,1.1795379388411762,1.031486622817662,-0.40255327778237693,1.1898413446357425,-0.9614538173220765,0.7184432366751292,-0.4033052407065242,0.3053866722308661,0.13131705096623267,-0.015955784510961447,0.790185074473697,1.6024410193967258,-0.23880080955427835,0.8160598462359014,1.6868577350706684,-0.22024579782458367,S_LF
0.03210981963450792,0.1990084805685749,1.3595309996075255,0.17595633561486188,0.545691854218631,-0.37068106278097873,1.0221731192449284,-0.39307645919017936,1.1799206711980765,1.0849151145411595,-0.3707073561979307,1.199705700117573,-0.9026744667237255,0.7210061330191853,-0.3998826272249659,0.09385465401830416,-0.242253178350478,-0.04239912206772053,0.790475383383396,1.603457591448318,-0.2386342887000438,0.7992893519007425,1.6516612626839604,-0.23025591152778843,S_LF
0.05622990003591652,0.14919346303505215,1.3533112922133625,-0.02970250620982642,0.6774304081891044,-0.16363587392613074,1.0223950173149488,-0.39249734234435163,1.1801010104413716,1.029829985503544,-0.3958887059381675,1.1880638878817842,-0.7643700707207416,0.7235693792944735,-0.4090097522807161,0.45345900184760024,-0.055468104473548316,0.1955913919086547,0.7903309040655457,1.6020074713694006,-0.23929244255249504,0.7649925707929797,1.5232793866520813,-0.2739028545012566,S_LF
0.057570239923053455,0.1339440188610213,1.3521804152694505,-0.006851588643575686,0.12851957489256918,-0.28194747130279624,1.0223302610688334,-0.3924859871120806,1.1801744302881,1.01473330724426,-0.39924546183294946,1.184159502632026,-0.9044029795756264,0.712462911918177,-0.3947484733452362,-0.03306450910829899,-0.3460227393588198,-0.4390504636671821,0.7900838039238021,1.6030443342803056,-0.23903869648889925,0.7771716260706615,1.656007037391855,-0.2220464055831535,S_LF
0.033450159521644866,0.14512677802362198,1.3408721090197406,0.08455227619757115,0.06265025476293086,0.28003239344097547,1.0224053783143265,-0.39200033256263817,1.1802805121959208,1.017825180005762,-0.37253473880037496,1.1799390879123728,-0.9095892262480231,0.7244235614320814,-0.3964597800860154,-0.4561282053847478,-0.6988391652243304,-0.2010595513208105,0.7901256624177587,1.6040392627486302,-0.2388087391187656,0.8064768030179073,1.6677690003427534,-0.2255448045518532,S_LF
0.09375063496003237,0.14716012052933708,1.336348832838798,-0.0754045359184718,0.5017790508333638,-0.015746483759615536,1.0220988654160497,-0.39203003086242433,1.180421210305241,1.0056248172171305,-0.4174581129257009,1.1848824130772702,-0.9804702911597634,0.7133174439870171,-0.4152848552067626,-0.5195880325340071,-0.49130017914573254,-0.33327664786686306,0.7903963923544778,1.6052222198465902,-0.2386660069579932,0.8202470713022808,1.6705973843458648,-0.22827076124637863,S_LF
0.053550318001107364,0.14614365748275665,1.351049769920243,-0.05255361835222105,0.34808387944824887,0.014230713355838028,1.022212836409212,-0.3917120843588326,1.1805917788465,1.0253192455260496,-0.39323196604747823,1.1861950222511717,-0.8905727524103362,0.6688926242755278,-0.4061574964936202,-0.26574969381099195,-0.44979230036716156,0.14270465721284142,0.7881839684077724,1.6045668250907734,-0.23841226089439777,0.6873207267373247,1.5788493671990655,-0.2278542224091107,S_LF
0.04550992528748283,0.1380102874598963,1.3420029859636526,-0.39531842956367996,0.10656318758140279,-0.10448011398482224,1.021737093854421,-0.3914299505108654,1.180608528621419,1.0105215028611487,-0.38394298963361756,1.1799474484803594,-0.8577253432906645,0.7201519508815774,-0.40558713879915786,0.41115268133714694,0.19357873319600355,-0.2010595513208105,0.7884884551944566,1.6048833624960597,-0.23862107275923147,0.7866419752377154,1.6031336692138936,-0.2469464645578093,S_LF
0.05891003094045803,0.1400436299656114,1.3380450324573134,-0.18965952786940893,-0.33256565163343177,-0.37068106278097873,1.0213623710435698,-0.3917094639206163,1.1805750290715809,1.0063786173470592,-0.39212382585623023,1.1802732319462386,-0.8957589990827333,0.7167345224686812,-0.3879030127247275,0.8976761292512347,0.02754753073931656,0.14270465721284142,0.7889212180110079,1.6063801515513978,-0.23815587164263943,0.7781703517915707,1.6683720572599847,-0.2171217565450742,S_LF
0.040150212348132465,0.12682752829729563,1.3584001226636138,0.5644231615675704,-0.2008269538482864,-0.5185705110680303,1.021819981849448,-0.39181428144927294,1.1805750290715809,1.0170558731303032,-0.39002989533712135,1.1830896286153363,-0.8801995509488477,0.7192977687439693,-0.3953190646970907,0.5380719199753704,-0.1799915369021328,0.16914793795857497,0.7892533854146633,1.6071782586843837,-0.2379444165896432,0.7842713512799085,1.6424675019892738,-0.2297998278641978,S_LF
0.03478995053904944,0.14106050942474652,1.3606618765514376,0.8614858532660099,0.2602581288630426,-0.42983672585472665,1.022866442786665,-0.39140025221107927,1.180659615434922,1.0328994596326149,-0.3842864431786968,1.186751000022283,-0.9718263106668702,0.7192977687439693,-0.3936075242989194,0.030395228673996886,-0.5743156648267033,0.5129123196965731,0.789811048576085,1.6091884064803463,-0.23721489665680556,0.8141453969992668,1.7165950969022858,-0.2071432787029277,S_LF
0.05489010901851194,0.13089421330872578,1.3606618765514376,0.7929329359259052,-0.02517551451818277,-0.015746483759615536,1.0235450882459491,-0.3916020259537433,1.1808237632291287,1.0205552287048993,-0.40190569743402144,1.1864241018140056,-0.78857349934752,0.7218606650880254,-0.39075526851182335,-0.07537078043228404,-0.7818549227814723,0.6715726969883592,0.789083926027839,1.6082665251055495,-0.23724661491475532,0.7541631448678777,1.5816394298596101,-0.2465536526163352,S_LF
0.09375063496003237,0.18375903639454405,1.39515211797517,0.4730190722154884,0.06265025476293086,0.28003239344097547,1.0254748243801726,-0.3924728849209984,1.1816397564306018,1.0951297524160932,-0.439554498253394,1.2160115945475056,-0.8853865057379395,0.7167345224686812,-0.40102357627128277,-0.26574969381099195,-0.7611008474541013,0.22203467265438823,0.7888510037630808,1.608384212089566,-0.23713560101193193,0.7849346941067016,1.631633991215294,-0.23453729805768178,S_LF
0.057570239923053455,0.18579196248770397,1.3318255566578547,0.26736017052121736,0.2602581288630426,0.28003239344097547,1.0261327478407003,-0.3919444298806882,1.1818904447285572,1.0423129156551665,-0.37920018457217997,1.1885953413201344,-0.8819287719174433,0.7150261581934653,-0.3987416781786491,-0.41382202342772617,-0.968639969470785,0.30136503450462754,0.7884000122475483,1.608403826586902,-0.23697172334585992,0.7781905962318594,1.6322599064772139,-0.23233069674886347,S_LF
0.053550318001107364,0.16545937025566299,1.355007723426583,-0.05255361835222105,0.699387025603746,0.0729871852126154,1.0265998562293421,-0.3913242595028033,1.1821651410372296,1.0466444665732038,-0.39157674718137114,1.1922904336846274,-0.8715555704559549,0.7064825871612248,-0.3941781156507739,0.07270150761842069,-0.8856243478517287,0.16914793795857497,0.7877674088792046,1.608309812272084,-0.23673912278756373,0.7521737912021749,1.6257708258026164,-0.227471955754656,S_LF
0.07767039840251595,0.14817658357591704,1.3403067863451372,0.24450929785715367,0.699387025603746,-0.5481484394724647,1.026627485561018,-0.3909722473023982,1.1821581619643464,1.012956061909353,-0.4065069262249684,1.185012001881063,-0.8957589990827333,0.7184432366751292,-0.40558713879915786,0.030395228673996886,-0.5950696042159888,0.16914793795857497,0.7879875035409762,1.6085695352712934,-0.23671797728226412,0.7957958363215891,1.6314302830258613,-0.23773515634632714,S_LF
0.06829021467148684,0.16037622219765285,1.351049769920243,-0.0754045359184718,0.743299685174341,-0.45941465425916117,1.026851110464268,-0.3905468628319335,1.182298301747836,1.0359069067795652,-0.4021521450159867,1.1910951511481382,-0.9078607133961226,0.7329667825330898,-0.413002957114129,0.45345900184760024,-0.013960239288785956,-0.4126071829214486,0.7893398029505738,1.6093581733366003,-0.23700344160380932,0.8373111100216261,1.6381190380643573,-0.246632742268981,S_LF
0.09777055688197846,0.17155939777280824,1.3499188929763313,0.08455227619757115,0.6335177486185092,-0.42983672585472665,1.027288862688005,-0.39059490419923454,1.1825411734841622,1.0403892177235883,-0.422783827693418,1.1963801448580895,-0.9078607133961226,0.7261322756385296,-0.4101507013270329,0.601531608571198,0.06905536873646181,0.22203467265438823,0.7903977426284765,1.610183334948671,-0.23704837580257102,0.8201863379814149,1.6380719767664689,-0.2418689088579483,S_LF
0.06963055455862409,0.15834329610449246,1.3504842156509351,0.17595633561486188,0.2602581288630426,-0.6368820309506472,1.027645453749944,-0.3906027655138838,1.1826274348249952,1.0333034965022565,-0.4033066033698027,1.1905324849226377,-0.9044029795756264,0.7107545476429611,-0.3964597800860154,0.601531608571198,0.11056311157694723,-0.5712675602132347,0.7905563998233119,1.6112830995234468,-0.23690300045363608,0.7747827821165949,1.6506460832580756,-0.22361238070554046,S_LF
0.057570239923053455,0.1522432685873472,1.3369143871081064,-0.6466792262600352,0.4139533002481576,-1.1101279167459943,1.0269693985405046,-0.3901537970994713,1.182443466463801,1.0165794714481882,-0.3881771688344038,1.1825893879641358,-0.9251486743819087,0.7022109766107207,-0.3873326550302651,0.38999959035863613,-0.13848375328022175,-0.17461623593420772,0.7901695463227132,1.6127332196023647,-0.2363241422460585,0.7562307770360303,1.6780720630591022,-0.20656328791685866,S_LF
0.08035052930705747,0.11971103773357039,1.322213450026661,-0.7380831659381605,0.853082053174189,-0.8735048769807602,1.0253202728061117,-0.3897118165203027,1.1821026085441984,0.9690056376481163,-0.40508417209929654,1.1714525540347396,-0.8905727524103362,0.7158803403310733,-0.4090097522807161,0.6438379290816514,-0.13848375328022175,0.1955913919086547,0.7906900769491733,1.612933422747588,-0.23639286513828234,0.7911402898698644,1.6175572847125264,-0.24220899436432533,S_LF
0.049529847209428914,0.12682752829729563,1.336348832838798,-0.37246740722565946,0.545691854218631,-0.5777261741417782,1.0244767147733889,-0.3891274587980423,1.1819004945935085,0.9942781869185096,-0.386417078656822,1.1755241506442307,-0.9095892262480231,0.711608729780569,-0.4078688032343993,0.36884636082669364,-0.2837610571290489,0.2484784730131605,0.790928400309926,1.6132905418715004,-0.23631621268157124,0.7873660513853745,1.6308238645873525,-0.23557600882909677,S_LF
0.06293050173213648,0.1288608708030107,1.355007723426583,-0.1211066105293042,0.545691854218631,-0.5777261741417782,1.0242176897889292,-0.38894228116408214,1.1818840239815047,1.0120196267765158,-0.4057964230897281,1.1845936947961317,-0.8680985447521531,0.7064825871612248,-0.3839098078913146,0.1573143426141318,-0.1799915369021328,0.22203467265438823,0.7901060834447791,1.614012896463051,-0.23586422750579153,0.7426319116794343,1.6453214335540962,-0.21640467702775237,S_LF
0.06427029274954106,0.14716012052933708,1.3584001226636138,0.26736017052121736,0.545691854218631,-0.04532433467000163,1.0246744371781926,-0.38878068747407013,1.182097025285892,1.0316037848950002,-0.40510339850640037,1.190364716191706,-0.8905727524103362,0.7150261581934653,-0.4141439061604458,0.2207737541030959,0.2765944907531454,-0.04239912206772053,0.7903572344085183,1.6142354195535191,-0.23610740081673715,0.7933314131237781,1.6056722900828613,-0.24779272384111947,S_LF
0.036129741556454015,0.0759960477171929,1.3521804152694505,-0.006851588643575686,0.853082053174189,-0.13405800364223255,1.0235934395763817,-0.3881334392346157,1.1818477328025134,0.9661903018485641,-0.39345569151195725,1.1683811600420497,-0.8819287719174433,0.7167345224686812,-0.4033052407065242,-0.20229000521516433,0.19357873319600355,-0.09528622049266094,0.7901567187197265,1.6147778618591593,-0.23616026457998648,0.7855622717556513,1.623962999659435,-0.23793288047794187,S_LF
0.012009661155045422,0.1756256663716837,1.3487880160324193,-0.25821244520951364,0.545691854218631,-0.13405800364223255,1.0241296212942126,-0.3869306580932812,1.1819928975184786,1.0565799830285982,-0.35386939321309197,1.1879273319380024,-0.8853865057379395,0.7269864577761376,-0.41129165037334975,-0.3926687938957837,0.2558404154257744,-0.3597201018169428,0.7904227226974506,1.6152519916051113,-0.2364853767239683,0.8154896278344365,1.6188528150129768,-0.24856516611529372,S_LF
0.036129741556454015,0.15529307413964225,1.351049769920243,-0.39531842956367996,0.15047604849253873,0.014230713355838028,1.0241339383772872,-0.38658301328990335,1.182139178886105,1.0363867544051313,-0.37782724431945874,1.1865483955914067,-0.88711501858984,0.7321126003954818,-0.40102357627128277,0.030395228673996886,0.11056311157694723,-0.9679188498513923,0.7910641028467854,1.6161874002194503,-0.2367206204704267,0.8193495677828151,1.6475239022952874,-0.23768506623298502,S_LF
0.06963055455862409,0.13902716691903144,1.3205172504081455,-0.23536142287149311,0.43590977384812707,0.04340929555520508,1.0232765656787262,-0.3862720546215557,1.1820431468432357,0.9866204390842948,-0.3920373070242636,1.1742904094950029,-0.9026744667237255,0.7175890545375213,-0.40501654744730337,0.19962066312458512,0.2558404154257744,-0.3068333671211295,0.791331457098508,1.616986860076391,-0.23674969554021352,0.795818780020583,1.6372490763576721,-0.23530710401010108,S_LF
0.08437045122900357,0.14207697247132647,1.3318255566578547,-0.6238280542480579,0.238301799077745,-0.28194747130279624,1.0223751587328065,-0.3864930449111397,1.1820174638550265,0.9980833699743901,-0.40875641585609795,1.180949880581957,-0.8923012652622371,0.7150261581934653,-0.3918962175581402,0.8342167177622707,1.0652428281651376,-0.33327664786686306,0.7916697007351571,1.618742019406984,-0.23652502454640492,0.7763544254976743,1.6552849826213907,-0.2221149499487799,S_LF
0.04149000336553704,0.13597736136673638,1.3216481273520573,-0.48672221956784845,0.10656318758140279,-0.16363587392613074,1.021398634541394,-0.38605630520840406,1.1818161873930826,0.9895675822208506,-0.37093108166240973,1.171110885489686,-0.869827057604054,0.7235693792944735,-0.39817132048418674,0.6649910200601621,0.5671492343888852,-0.3597201018169428,0.7921672767036412,1.6196009991179101,-0.2365937474386288,0.792391396279706,1.6321503208835582,-0.23646181293872967,S_LF
0.09643076586457389,0.14512677802362198,1.3369143871081064,-0.23536142287149311,0.699387025603746,-0.28194747130279624,1.0209582920678126,-0.38612705704024736,1.1818739741165534,1.0039018454915785,-0.42023982446256397,1.18488882284606,-0.875013304276451,0.7141716261246251,-0.40729844553993705,0.3053866722308661,0.29734829420434533,-0.2010595513208105,0.7921983330056089,1.6197795586798664,-0.23677348423367564,0.780772437183345,1.6074532240558213,-0.24346124719788398,S_LF
0.029429688729966413,0.1634264441625026,1.3306946797139427,-0.5324242642438894,0.8750385267741584,0.1617208154378221,1.02068804266736,-0.38480548269976894,1.1819200359975806,1.0253114921532844,-0.3606694238346226,1.1798791705084686,-0.9009452457551302,0.7184432366751292,-0.3998826272249659,0.11500816065711021,-0.11772981389093629,-0.09528622049266094,0.7923320101314704,1.620466742448607,-0.23665189757820285,0.7930898294696663,1.6478822404634972,-0.23006609636143854,S_LF
0.044170134270078557,0.10141178800724449,1.3103395895076424,-0.966593089970452,-0.3106091780334622,-0.22279161449392715,1.0185372718797308,-0.38482120532906744,1.1814641629568672,0.9467146909487899,-0.3741305305899799,1.1587679002854179,-0.9303349210543057,0.711608729780569,-0.404446189752841,0.45345900184760024,0.46337953744245797,-0.09528622049266094,0.7926851067821041,1.6216902812651939,-0.2364748039713185,0.7917132075300346,1.6542126573337839,-0.2270105994475555,S_LF
0.057570239923053455,0.0993784455015294,1.3414376632890492,-0.09825543851732682,-0.6399558505889896,-0.4002589911854132,1.017638455183656,-0.38567459470821314,1.1812385993212906,0.973198489342246,-0.40048818687392335,1.1718471728437088,-0.9268771872338095,0.7039196908171688,-0.39246657525260253,0.2630803517204127,0.3596099764341162,-0.33327664786686306,0.7923509139674507,1.6231309322764318,-0.23606246661797545,0.7645593397708016,1.6700071012094893,-0.21244228543019722,S_LF
0.09375063496003237,0.13089421330872578,1.3374797097827098,0.5644231615675704,0.10656318758140279,0.0729871852126154,1.0176963040968519,-0.38625633199225723,1.1813100650276118,0.9919625129193674,-0.4210674338956175,1.1814347935251817,-0.9113184472166188,0.7039196908171688,-0.37078947800215156,-0.3503621962784668,0.15207099035551813,0.7509030588385985,0.791149170108697,1.6250842656663171,-0.2349919754121815,0.7420522458725011,1.7049998654067644,-0.19084290129262602,S_LF
0.053550318001107364,0.11869457468699043,1.3414376632890492,0.7243800185858004,-0.09104481595191372,0.1617208154378221,1.0178361775884603,-0.3864511178996772,1.1812874528314712,0.9912259425066942,-0.3936584427141415,1.1759934571938804,-0.8594545642592603,0.709900015574121,-0.4221303158272714,-0.8791923803633033,-0.09697588809545937,0.43358230425502636,0.790299847763578,1.62389589767254,-0.23544660377612375,0.7781386355017851,1.5592987594475862,-0.26274857715644234,S_LF
0.06695042365408257,0.16444290720908303,1.3629233988445564,0.13025430590621653,0.545691854218631,-0.34110313437654416,1.0187082283694737,-0.38632795730350566,1.1815710823534338,1.0511810511265818,-0.40623688259792134,1.196471832420343,-0.88711501858984,0.7030655086795609,-0.40558713879915786,-0.30805601432144525,0.44262559805317253,0.03693089337382626,0.7895126380223945,1.624123831658825,-0.23544660377612375,0.7593227778827911,1.6101431133822883,-0.23612963639761747,S_LF
0.07097034557602835,0.1990084805685749,1.3369143871081064,-0.32676536254961835,0.391996826648188,0.6349669530888264,1.0193186639161833,-0.38604320301732215,1.1820205346470951,1.0572235129680916,-0.3899057976185431,1.1951444529096649,-0.7609123369002454,0.7013567944731127,-0.4038758320583786,0.11500816065711021,1.2105199960758795,-0.49193719836299543,0.788038813952923,1.622930052769231,-0.23610740081673715,0.7097131021406556,1.5105499778774418,-0.26312029852387764,S_LF
0.05220997811397043,0.12581106525071567,1.3629233988445564,-0.6923812709360763,0.743299685174341,0.13214292578041179,1.0188109749466427,-0.38566498643475267,1.1821765867167575,1.018567780819475,-0.4018733621129834,1.1858187966917733,-0.9234201615300078,0.6962310017850006,-0.41471426385490817,0.05154837507388038,1.35579689211045,-0.9414750494926202,0.7876398079863368,1.6239175412558076,-0.23632149905789593,0.7642435265022978,1.6124914721469348,-0.2365778110959436,S_LF
0.05622990003591652,0.14411031497704155,1.3289984800954273,-0.5552751369079532,0.743299685174341,0.8715899928540606,1.0180908854898454,-0.3849513537604824,1.1823181223148234,1.0017136714001278,-0.3847041805694039,1.1774381633419708,-0.8387088694529776,0.7321126003954818,-0.4038758320583786,-0.26574969381099195,1.6048449804103888,-0.8621446876423808,0.7878545015521141,1.6247941063781384,-0.23681841843243737,0.8052857551142555,1.6029655931500053,-0.25230610668544035,S_LF
0.03880987246099553,0.1522432685873472,1.3465262621445955,-0.5781263089199304,0.8750385267741584,0.7828562076407569,1.0179458314985481,-0.38405865780809045,1.1825660189836256,1.028855644992745,-0.37823449457901814,1.1843635004908997,-0.8992167329032295,0.709045833436513,-0.3998826272249659,-0.4561282053847478,2.061429743841472,-0.6770408564005149,0.787250253937741,1.6267650251794281,-0.23679462973897522,0.7719661056577605,1.6375684208790595,-0.22829712446392736,S_LF
0.057570239923053455,0.15732641664535735,1.3233443269705727,-0.7609341882761809,1.0726465015445406,0.605389024684392,1.01719552246023,-0.3829956333716317,1.182664842655648,1.008030085746001,-0.3803694996951216,1.1785063652450631,-0.8611830771111607,0.7269864577761376,-0.4090097522807161,-0.6042005350014821,1.750122012383045,-0.8621446876423808,0.7872522793487388,1.6277200482911034,-0.2372677604200549,0.8056103409735509,1.6047801423357426,-0.2516417536032156,S_LF
0.04550992528748283,0.13902716691903144,1.3420029859636526,-0.4181693022277436,0.7652563025889825,1.137790961023729,1.0168458387312096,-0.38234401773514975,1.1828920812687165,1.0114424312484558,-0.38374810377979424,1.1801876754671752,-0.8663693237835578,0.7039196908171688,-0.4152848552067626,-0.18113677568322178,1.521828950977076,-0.888588488001153,0.78666288474835,1.6278783169937465,-0.23774353428929673,0.7619066432783056,1.5738837279675513,-0.25203192922293516,S_LF
0.049529847209428914,0.14512677802362198,1.334087078950974,-0.48672221956784845,-0.26669623083352306,1.078635297949981,1.0163934084250201,-0.3825257014514878,1.1830788412590638,1.0086675852844547,-0.381776523124072,1.1789703767683215,-0.968368576846374,0.7184432366751292,-0.3993120358731113,-0.6676602235973097,0.7331803416889124,-0.8621446876423808,0.7865575633764594,1.6304031762542872,-0.23756115430608732,0.8153803078568775,1.7007542640329476,-0.21419280307542415,S_LF
0.06427029274954106,0.13699382441331634,1.3420029859636526,-0.5781263089199304,-0.33256565163343177,1.137790961023729,1.015515313727702,-0.38326291806970586,1.1834699485034237,1.0065922658410276,-0.398893269011914,1.18163600452806,-0.8542676094701684,0.6688926242755278,-0.39132585986367796,-1.3234092306600742,0.5879030378400851,-0.5977108409589682,0.7831501469409934,1.6300467334923516,-0.23731798099514131,0.6616177105321149,1.5810693158509015,-0.21903836246085764,S_LF
0.04149000336553704,0.1380102874598963,1.3154284199578943,-1.080847752638684,0.08460671398143323,0.9011679212584951,1.014087222646715,-0.3828384070786469,1.183425561599888,0.9853342406911698,-0.36738468347937764,1.169145315956028,-0.8732847914245501,0.7338209646706977,-0.4084393945862539,-1.069570891937059,0.5463951590615143,-0.8621446876423808,0.7832966516698414,1.6304593142983872,-0.23774353428929673,0.8242790889931136,1.621915833201276,-0.24975151090498093,S_LF
0.05891003094045803,0.10751139911183458,1.3154284199578943,-0.9437419179584745,0.3041710760629817,0.6645448814932611,1.0122481452570522,-0.3826418742124158,1.1832142352729929,0.9547962898274908,-0.38712059037129737,1.1637156844199081,-0.869827057604054,0.7261322756385296,-0.4078688032343993,-0.7099665441077628,0.9822272065460813,0.010487560666788872,0.7833094792728281,1.630988229364485,-0.23794177340148065,0.8057257342831964,1.6133130279472205,-0.24812226406047708,S_LF
0.06561008376694533,0.13292713940188616,1.3323908793324588,-0.4181693022277436,0.018737408233262115,0.5166554332062095,1.0116351194604978,-0.3828628645020001,1.1832455015195082,0.9933477821867113,-0.3959490069422653,1.1770730852065545,-0.8577253432906645,0.7201519508815774,-0.4124325994196666,-0.22344309619367508,0.8784576455377396,-0.09528622049266094,0.7833668659177686,1.6309774075728511,-0.23829596061524966,0.7921410400348025,1.588244146866162,-0.254710432125873,S_LF
0.06159016184499955,0.12479418579158053,1.3476571390885073,0.15310522347246724,-0.7058251275742263,1.078635297949981,1.0116541146260247,-0.3838420349155336,1.1834738567842382,1.0014672864433742,-0.401888218882109,1.180661998357617,-0.850810583766367,0.7192977687439693,-0.41813711099385864,-0.4772814349166903,0.08980930812574726,-0.3861637289713688,0.783248716942891,1.630015620841405,-0.23886160288201494,0.7925378310644611,1.5696051836852125,-0.26256139831184744,S_LF
0.06829021467148684,0.1339440188610213,1.3408721090197406,0.13025430590621653,-0.6619121803742873,1.0194794411411119,1.0116662024586331,-0.38476617612652264,1.183689928880694,1.0020901407221612,-0.40207611331516735,1.1808860615796588,-0.8784710380969472,0.7107545476429611,-0.3987416781786491,-0.540741123512518,-0.0762220397846912,0.16914793795857497,0.78261341302655,1.630074464333413,-0.23868715246329278,0.7676283969185683,1.6254541704982512,-0.23212506365198465,S_LF
0.03210981963450792,0.14512677802362198,1.3459609394699918,0.3587641101993426,-0.3545219814187293,0.8124341360451914,1.0122723209222682,-0.3848185848908508,1.183864126539852,1.0229355141437486,-0.3740475074683959,1.1817706096726448,-0.8594545642592603,0.7167345224686812,-0.4101507013270329,-0.7311200507465689,-0.2007454626976097,0.3278084884547073,0.7821455430860352,1.6293561679137256,-0.2388536733175277,0.7833873440539687,1.5913878415651281,-0.2509114924771194,S_LF
0.06427029274954106,0.11462788967556026,1.329563802770031,0.3130622151972584,-0.13495766248158245,0.7237005445670089,1.011869968779741,-0.38515050706493015,1.1838216937767236,0.9742443331796561,-0.39699072863624607,1.1714957503026706,-0.8767425252450463,0.7030655086795609,-0.3890439617710443,-0.7734263712570223,-0.11772981389093629,-0.33327664786686306,0.7808357773073936,1.6296429453920187,-0.23853649073803312,0.742354562847479,1.637608759134393,-0.2195814447423589,S_LF
0.03747008144359095,0.13292713940188616,1.3521804152694505,-0.1211066105293042,-0.17887062406298876,0.7828562076407569,1.0119632177741464,-0.38525008371715386,1.1840000788796117,1.017016244780616,-0.38368780277569614,1.1818550514093098,-0.8767425252450463,0.7261322756385296,-0.3987416781786491,-0.7311200507465689,0.11056311157694723,-0.015056789521927549,0.7807864923064449,1.6301055769843602,-0.23848627016294632,0.8008616700964981,1.6387738624092658,-0.2361059095018237,S_LF
0.05891003094045803,0.1430934355179069,1.3386105867266218,-0.006851588643575686,-0.17887062406298876,0.9899015127366774,1.0120089788547342,-0.38550164578592977,1.1841921429653504,1.0096936149470208,-0.39182494261852785,1.1812157466439317,-0.8715555704559549,0.7269864577761376,-0.39588942239155306,-0.9638048828307781,0.2765944907531454,-0.2539466324253163,0.7805400673017004,1.6307325645371382,-0.23844926552867185,0.7987326297928032,1.6417891469954211,-0.23423675737762747,S_LF
0.042829794382941315,0.1430934355179069,1.3289984800954273,-0.4181693022277436,0.1724325220925083,1.0194794411411119,1.0115928120463695,-0.3851050861358455,1.1842778459803527,1.0029705792739179,-0.3743201728782297,1.1758106394405725,-0.9199624277095116,0.7227148472256334,-0.38448039924316907,-0.9638048828307781,0.1728249297448036,-0.22750283206654398,0.7802200523640322,1.6324687857323723,-0.23790476876720618,0.7970631382836617,1.7004671901158266,-0.20904143036642725,S_LF
0.02138984488607454,0.14716012052933708,1.3380450324573134,-0.02970250620982642,-0.26669623083352306,1.1082130326192945,1.0118078027834712,-0.3848343075201493,1.1844400396341521,1.0189037603059576,-0.36123572891658523,1.178063533827371,-0.8767425252450463,0.7167345224686812,-0.41756651964200403,-0.6676602235973097,0.29734829420434533,-0.3597201018169428,0.7800809741421765,1.6320190050175962,-0.23832767887319906,0.7951432905296167,1.5890152798472816,-0.2552403327985999,S_LF
0.044170134270078557,0.15630995359877736,1.3233443269705727,-0.28106331787357736,-0.3545219814187293,0.9307456559278086,1.011612670628511,-0.38482207880847286,1.184537467491598,1.0092904395632416,-0.36995403061050497,1.1768676939196827,-0.9113184472166188,0.7201519508815774,-0.38847360407658194,-0.49843452589520115,0.6294107806805707,-0.015056789521927549,0.7800154858532444,1.63366865187976,-0.2378571913802823,0.791520885347292,1.6825186834053296,-0.21502588074996035,S_LF
0.05891003094045803,0.12987733384959113,1.34483006252608,-0.4181693022277436,-0.17887062406298876,0.014230713355838028,1.0112206794853622,-0.38519418103520364,1.1845115053404733,1.0037485010080047,-0.39742594457886554,1.1804970164826807,-0.8680985447521531,0.712462911918177,-0.4101507013270329,-0.32920910529995606,0.7539342810781977,-0.09528622049266094,0.7797589337935107,1.6336334810569504,-0.23807393280960326,0.7769685068530982,1.594236394695906,-0.24788499510253964,S_LF
0.03747008144359095,0.13902716691903144,1.3584001226636138,-0.4410203245657642,-0.3545219814187293,0.2208765366321064,1.011286299148092,-0.3854885435948476,1.1846334995344672,1.0284800371565743,-0.3856357873863365,1.1856822407479914,-0.9718263106668702,0.7056284050236169,-0.43468028802197217,-0.20229000521516433,0.7954420239186832,-0.04239912206772053,0.7803800598328665,1.6340230655557642,-0.2383144629323867,0.8156326885458101,1.615888625550244,-0.24983850952289122,S_LF
0.08973071303808659,0.10751139911183458,1.328432925826119,-0.71523214360014,0.018737408233262115,0.01383140027947626,1.0098400763181932,-0.38609037090521736,1.1844338980500153,0.9625841220269844,-0.4178810938819818,1.1719321719515727,-0.9061322005442217,0.7158803403310733,-0.40102357627128277,-0.26574969381099195,0.46337953744245797,-0.3861637289713688,0.7804259691488188,1.6348306417564302,-0.23822195134670074,0.7901422389636314,1.6469907650206344,-0.22959155844556367,S_LF
0.009329530250503908,0.13597736136673638,1.3148630972832902,-0.25821244520951364,-0.02517551451818277,0.1617208154378221,1.0092823091849898,-0.3852020423498529,1.1841326812643875,0.9882951676015307,-0.3420905970793056,1.1650979649936983,-0.8577253432906645,0.7184432366751292,-0.41756651964200403,-0.4772814349166903,0.31810209765554526,-0.2010595513208105,0.7803874863398588,1.6340582363785738,-0.2386950820277804,0.7925209606975537,1.5755517148255782,-0.2600911648275433,S_LF
0.06427029274954106,0.1502099260816321,1.3487880160324193,0.24450929785715367,-0.2227834274482559,0.605389024684392,1.0098901544818553,-0.3856501372848599,1.1843699697424075,1.0251297186362394,-0.3997698183903224,1.187393370329256,-0.9752840444873664,0.7269864577761376,-0.4033052407065242,-0.6253540416402881,0.3803639158234017,-0.22750283206654398,0.7811544419710632,1.6359777516696037,-0.2383461811903361,0.839095320025737,1.7053111422770855,-0.2189988176345349,S_LF
0.07097034557602835,0.13089421330872578,1.3386105867266218,0.13025430590621653,0.06265025476293086,0.4870775048017749,1.0098288519021994,-0.385922662859367,1.1844285939546242,0.9967015466504978,-0.4036456872769037,1.1795584033833812,-0.9113184472166188,0.7141716261246251,-0.41357354846598343,-0.540741123512518,0.3803639158234017,-0.06884245477475792,0.7811436397790744,1.6361874238825072,-0.23843340639969735,0.7979633410618325,1.6222640868056522,-0.24218790379028649,S_LF
0.04149000336553704,0.13699382441331634,1.3465262621445955,0.13025430590621653,-0.06908835673341135,0.5166554332062095,1.0101293208841728,-0.38589995239482466,1.1845223926941708,1.014610114765883,-0.3832420997019293,1.1810440763146064,-0.8888435314417409,0.7235693792944735,-0.413002957114129,-0.3926687938957837,0.5048874162210288,-0.17461623593420772,0.7815075386216971,1.6363030817805921,-0.23867393652248045,0.8104939747858615,1.6146784778902485,-0.24889734265640592,S_LF
0.06427029274954106,0.08616234383321363,1.3267367262076035,0.01599932892267505,0.45786624744809673,0.014230713355838028,1.0089490303716522,-0.38579164094854623,1.1841592017413427,0.9458420057697982,-0.4010649790870334,1.1636630128415923,-0.869827057604054,0.7278409898449777,-0.3918962175581402,-0.26574969381099195,0.4841334768317434,-0.17461623593420772,0.7816648455425338,1.637141094270228,-0.2385391339261953,0.7968809383210633,1.6500638677727668,-0.23023745727550454,S_LF
0.04550992528748283,0.14716012052933708,1.2939426844023865,0.10740338833996577,0.2822146024630121,0.014230713355838028,1.0083903998218344,-0.38494960680167156,1.183794614973938,0.9718554328821788,-0.35780643703136666,1.1632120995415132,-0.88711501858984,0.7158803403310733,-0.4124325994196666,-0.011911036415083733,0.46337953744245797,-0.5183804791087289,0.7819173467802719,1.6370903671219448,-0.2388166686832532,0.7926802169611582,1.6074512071430545,-0.24686473858340854,S_LF
0.06159016184499955,0.14411031497704155,1.3278676031515155,0.10740338833996577,0.6554740784038068,0.30961012811028893,1.0084016242378275,-0.38440106173503535,1.1837870775752244,0.9997417302602342,-0.38837380254341863,1.1775499162673921,-0.8888435314417409,0.7141716261246251,-0.4141439061604458,0.4323057723156577,0.8577038420865395,-0.015056789521927549,0.7824466541877231,1.6372506649105192,-0.23899904866646263,0.7908933076983423,1.6035296564204142,-0.24799308429448913,S_LF
0.04685026517462007,0.14207697247132647,1.31882105078963,-0.09825543851732682,0.4139533002481576,-0.34110313437654416,1.0080717990909487,-0.3837642952484468,1.1835305268560476,0.9914680200341345,-0.3725504694970962,1.171998499124267,-0.850810583766367,0.709900015574121,-0.3719304270484684,0.7919101201449539,-0.07454092474708618,0.03693089337382626,0.7820496736321347,1.6378871215309772,-0.2383461811903361,0.7342082000753063,1.6612799196681565,-0.20712218812888888,S_LF
0.020050053868669964,0.13902716691903144,1.3278676031515155,0.13025430590621653,-0.17887062406298876,0.04340929555520508,1.008147779753057,-0.383340657736793,1.1833610749664498,1.0019169820637432,-0.3565873080354746,1.172042810134596,-0.8266071551395886,0.7227148472256334,-0.41129165037334975,0.2419272607419019,1.0444890247139376,-0.09528622049266094,0.7823494344598237,1.6374576316755143,-0.23882459824774047,0.7863416827067662,1.5682451121762289,-0.2613697808786503,S_LF
0.06963055455862409,0.1522432685873472,1.3227787727012643,0.49587009455350883,-0.33256565163343177,0.36876598491915796,1.0085155952309897,-0.38375206653677,1.1833903870725584,1.0008771686273727,-0.39062678788493055,1.1783257769765518,-0.8369796484843823,0.7235693792944735,-0.40729844553993705,-0.30805601432144525,0.5256412196722288,0.08981799179876666,0.7823055505548692,1.6369862073774704,-0.23911534894561035,0.7885037889295995,1.586075965642004,-0.25457861603813015,S_LF
0.044170134270078557,0.14207697247132647,1.3318255566578547,0.8157839582639257,-1.1229974069002884,0.9603235843322431,1.0091786991912062,-0.3845233488518014,1.1835003772611934,1.0045738044645438,-0.37699876095880963,1.176812514170971,-0.8680985447521531,0.6996480802666647,-0.37307137609478525,-0.2445961871721859,-0.2630071177397635,-0.2010595513208105,0.7808985650483286,1.6375049770139114,-0.23841490408255994,0.7187293010305664,1.6619885283535092,-0.2021500852992224,S_LF
0.048190056192024336,0.11869457468699043,1.3041201137081844,0.6329760789076752,-2.1769062701080917,0.9603235843322431,1.0087340396345505,-0.3861611227370607,1.1833007757767413,0.9555328602401642,-0.37077290076760233,1.1607911577381833,-0.8646408109316569,0.7039196908171688,-0.3970303714378699,-0.6042005350014821,-0.32526893590761985,-0.7563713914551005,0.7798163204384512,1.6369550947265237,-0.23844397915234714,0.7464371916390335,1.6116692440423934,-0.23171643377998122,S_LF
0.02540976680802032,0.11361142662897984,1.353876846482671,0.5644231615675704,-1.979299158225741,0.7532784729714436,1.0091951041068885,-0.3877499817756136,1.1833808955334375,1.0031902581689256,-0.37878244718147286,1.176740613286286,-0.8853865057379395,0.7244235614320814,-0.4078688032343993,-0.8157325532140439,-0.7611008474541013,-0.22750283206654398,0.7798575037954083,1.636377481598074,-0.2385999272539319,0.8071900821307456,1.6239502258785792,-0.2440992370625604,S_LF
0.026750106695157566,0.15122680554076726,1.352745969538759,0.13025430590621653,-1.957341534108396,0.014230713355838028,1.009927281396294,-0.3890383638986841,1.1834735776213228,1.0358181737356993,-0.3721021446405426,1.185265327091058,-0.914776181037115,0.711608729780569,-0.428975542790388,-0.9426520689591309,-0.5950696042159888,-0.2539466324253163,0.779737329409533,1.6352094044636103,-0.23903869648889925,0.80557592542506,1.589623715198557,-0.25793201731031257,S_LF
0.06025037082759497,0.16545937025566299,1.3482226933578159,0.7015289962477799,-1.4303874620411743,0.0729871852126154,1.0112008209032208,-0.39037304043024473,1.1836793206899119,1.0390857896132084,-0.3934530697291705,1.1903800438996812,-0.8888435314417409,0.6970851839226085,-0.4124325994196666,-1.0484180780654118,-1.2384407737172394,-0.5448242794675011,0.7784808994538361,1.6336260410752024,-0.23921579009578395,0.7524680104010372,1.5912486745842285,-0.24204290609376924,S_LF
0.05087018709656585,0.0942952974435188,1.327302280476912,0.3130622151972584,-2.089080088078869,0.5758110962799575,1.0104513752815174,-0.39218376323778736,1.1834679943630164,0.9558998532177069,-0.3892398647906793,1.164456430743524,-0.8940304862308324,0.6945222875785525,-0.3970303714378699,-0.8157325532140439,-0.8233626656219577,-0.49193719836299543,0.7771299503182373,1.633106595076784,-0.2389858327256503,0.7362819055755453,1.6256309865174614,-0.22283466578785668,S_LF
0.06561008376694533,0.17155939777280824,1.3357835101641946,0.01599932892267505,-1.6499520542261978,0.8420120644496261,1.0109884204159634,-0.39349136190777817,1.1837689319857287,1.0318114029879288,-0.3902877039778295,1.1875820404801543,-0.8853865057379395,0.6987938981290567,-0.415855212901225,-0.8368860598528499,-0.49130017914573254,-1.0208055845472055,0.7761827331082196,1.6319432524761601,-0.23937173819736868,0.7577430367255962,1.5828751250813167,-0.24707828064555257,S_LF
0.08437045122900357,0.15630995359877736,1.3578347999890101,-0.5324242642438894,-1.4962573142850988,1.5518811837453281,1.0111360646571057,-0.39530470515353716,1.1843624323436939,1.0362144572325764,-0.4189236895035582,1.1943894936204718,-0.8957589990827333,0.709900015574121,-0.43525064571643457,-0.7734263712570223,-0.2007454626976097,-1.3116827119763517,0.7761942104372078,1.6305614449569301,-0.2402334175383289,0.80063763162397,1.5599656852690942,-0.2688332077666601,S_LF
0.05622990003591652,0.14411031497704155,1.3572692457197018,-0.6466792262600352,-0.3764784550186989,1.3448360723845285,1.0110790791605249,-0.3956584643127534,1.1847610769867674,1.0290244962218489,-0.39880675017994766,1.1883815894652763,-0.875013304276451,0.7372383930835938,-0.4084393945862539,-0.6676602235973097,0.42187165866388704,-1.734777801973282,0.7768808247654956,1.6309936402603016,-0.2408149189340687,0.8323984591782349,1.626429011668803,-0.25013641388119057,S_LF
0.044170134270078557,0.14106050942474652,1.3584001226636138,-0.8751890006183699,-0.17887062406298876,1.5518811837453281,1.010794151677619,-0.39568379521551206,1.185183729640558,1.0292545129472102,-0.3904939508903961,1.1868524415805208,-0.8784710380969472,0.769702913212411,-0.40558713879915786,-0.7734263712570223,0.7539342810781977,-0.015056789521927549,0.7789386423393613,1.6323991204487303,-0.24106602180950196,0.9036197497432339,1.6651483583546083,-0.25342654343125615,S_LF
0.08035052930705747,0.1613931016567875,1.3544421691572743,-1.1265497973147252,0.1724325220925083,1.5518811837453281,1.0105489413589974,-0.39586023805541715,1.1857169308088147,1.0382001821462747,-0.4131452802413089,1.193887023484475,-0.9044029795756264,0.7363842109459858,-0.4078688032343993,-0.7734263712570223,0.46337953744245797,-0.015056789521927549,0.7796414599556324,1.6332966527923514,-0.2410924536911266,0.8397552887791485,1.6498628488003562,-0.24241726378295947,S_LF
0.09777055688197846,0.15630995359877736,1.3318255566578547,-1.1036989246506614,-0.156914136081552,1.4039919291933975,1.0096734369115241,-0.39638519917810555,1.1860667219417076,1.0089062168684435,-0.4166925523519366,1.185728223871918,-0.8992167329032295,0.7261322756385296,-0.4084393945862539,-0.8157325532140439,0.06905536873646181,-1.4174568741853633,0.7798622297544034,1.633583430270645,-0.24139906351797139,0.8159964136563302,1.6350923243058584,-0.24193481690181973,S_LF
0.05891003094045803,0.15529307413964225,1.3278676031515155,-0.6695302485980557,-0.420391402218638,1.137790961023729,1.0092538164366995,-0.39646031840697604,1.1862208198709627,1.0103612664906723,-0.3841055401664032,1.1799304486587867,-0.8853865057379395,0.738092925152434,-0.4215597244754169,-1.0484180780654118,-0.22149937489927807,-1.2587959772805386,0.7805596462746801,1.6330903623893336,-0.24208629244020946,0.8478112263846984,1.6064723321469696,-0.26266948750379654,S_LF
0.12189063728338705,0.13496048190760127,1.334087078950974,-0.48672221956784845,-0.3545219814187293,0.7532784729714436,1.0085363172297463,-0.397615931660415,1.1863760344518792,0.9878661476418686,-0.44093705170966724,1.1839320951827894,-0.8663693237835578,0.711608729780569,-0.4038758320583786,-1.0484180780654118,0.1728249297448036,-0.5448242794675011,0.7796266069416479,1.632871221108751,-0.24217880402589542,0.7694483721005225,1.605621867263695,-0.24096465049603114,S_LF
0.057570239923053455,0.1725758608193882,1.342568540232961,-0.48672221956784845,-0.003219050985240245,0.6941226161625745,1.008859235043706,-0.39737834526212673,1.1866398434068544,1.040565822325457,-0.38715554747512215,1.1896103142737118,-0.8680985447521531,0.6706009885507437,-0.41813711099385864,-0.7311200507465689,0.2558404154257744,-0.5712675602132347,0.7774438890229116,1.6313406139545577,-0.2423849727025666,0.6930370818601771,1.5380183128465688,-0.24671974088689128,S_LF
0.05622990003591652,0.14817658357591704,1.335217955894886,-0.6695302485980557,0.12851957489256918,0.1912986857217203,1.0084776048999358,-0.39703506785577664,1.1866133229298992,1.0114536305646717,-0.387045432598074,1.1808267015469538,-0.8490813627977717,0.7286951719825856,-0.4363915947627514,-0.22344309619367508,0.29734829420434533,0.06337422608086365,0.7783195417110034,1.629871555740281,-0.24323079291455232,0.8271895646919523,1.5372196153909716,-0.2855712145882685,S_LF
0.04550992528748283,0.12072750078015035,1.3403067863451372,-0.48672221956784845,-0.2447399010482255,0.01383140027947626,1.0078533546873876,-0.39700973695301767,1.186439962759487,0.9932607721145709,-0.38639785224971845,1.1752131375151278,-0.875013304276451,0.7244235614320814,-0.41129165037334975,0.36884636082669364,0.33885617298291626,-0.3861637289713688,0.7791675137821239,1.6298729084642352,-0.24345017753203582,0.8064120208089832,1.6083399933688955,-0.250386864447902,S_LF
0.05891003094045803,0.1339440188610213,1.3578347999890101,-0.25821244520951364,-0.2447399010482255,-0.10448011398482224,1.007988047679307,-0.3973058464714728,1.1864720664947486,1.0199590804878582,-0.4030881214708972,1.1864709209947308,-0.8923012652622371,0.7312580683266416,-0.413002957114129,0.41115268133714694,0.29734829420434533,0.010487560666788872,0.7804887568897537,1.630188093145567,-0.243571764187509,0.8284710377622271,1.6244457141149218,-0.24986750906219451,S_LF
0.05220997811397043,0.14411031497704155,1.3374797097827098,0.4044661548753836,0.545691854218631,-0.015746483759615536,1.0084767414833207,-0.39655640114157803,1.186397809159274,1.0105990365887987,-0.3857861029327833,1.1803261822101538,-0.8473528499458708,0.7073371192300649,-0.40045298491942816,-0.03306450910829899,-0.15923759751284733,0.4864688657464934,0.779908814207355,1.6295516365251093,-0.24340260014511156,0.7506777270648398,1.593860576617052,-0.2404294771797947,S_LF
0.033450159521644866,0.14106050942474652,1.3256058492636915,0.5187211168915293,0.1724325220925083,-0.015746483759615536,1.008800522713895,-0.39576502880022096,1.186178945433665,0.9993626764806125,-0.36559837547392765,1.1730301932138174,-0.850810583766367,0.709900015574121,-0.4169961619475418,-0.03306450910829899,-0.40828455752667614,0.46002558500075985,0.7797481316015218,1.6281292472872533,-0.24360612563362094,0.7710429591805956,1.5634206568383813,-0.2590102729080503,S_LF
0.11385079343949488,0.13902716691903144,1.3397414636705338,-0.02970250620982642,0.06265025476293086,0.2504544650365409,1.008659785805672,-0.3964926371449785,1.1862864231560624,0.9983711062525573,-0.43655343089002985,1.1862920048398167,-0.8801995509488477,0.7167345224686812,-0.4090097522807161,0.030395228673996886,-0.6365774829945596,0.4864688657464934,0.7800053587982548,1.627509699716223,-0.24351625723609713,0.7895031894651848,1.610227823718488,-0.2448004986493529,S_LF
0.06427029274954106,0.16952605526709316,1.3306946797139427,0.08455227619757115,0.0406937955444285,0.546233361610644,1.0091571137758346,-0.3962367076791754,1.1864279587541284,1.025239988826674,-0.38704892830845633,1.1849799530371141,-0.88711501858984,0.6996480802666647,-0.4067280878454747,-0.011911036415083733,-0.32526893590761985,0.010487560666788872,0.7794929298157866,1.6270146027489807,-0.2433708818871622,0.7528189140327082,1.6044567639888216,-0.23661471960051178,S_LF
0.07901018941992054,0.1735927402785233,1.352745969538759,-0.32676536254961835,0.08460671398143323,0.2504544650365409,1.0097494175736317,-0.39638432569870014,1.1867249880960262,1.0478901751307776,-0.40898276310336407,1.1960083782682835,-0.8577253432906645,0.7235693792944735,-0.4107210590214953,-0.09652392683216751,-0.4290384969159616,-0.3861637289713688,0.7798399502334264,1.6262658700403234,-0.24365634620870735,0.7982838780330703,1.5951325762685578,-0.2535873590583027,S_LF
0.053550318001107364,0.14614365748275665,1.3278676031515155,-0.23536142287149311,-0.003219050985240245,0.014230713355838028,1.0095059340882397,-0.3960611383186758,1.1865890357562665,1.0028973529755818,-0.3816262075776252,1.1772018379535485,-0.9009452457551302,0.7192977687439693,-0.3998826272249659,0.11500816065711021,-0.1799915369021328,-0.2010595513208105,0.7802652865429853,1.6267920796585125,-0.24342903202673624,0.7949604157523421,1.6486943840042054,-0.23026118417129832,S_LF
0.048190056192024336,0.14614365748275665,1.3431338629075646,-0.6466792262600352,0.37004049686289037,-0.31152520597210964,1.0092330944379428,-0.3954802745140371,1.1864949578538047,1.0185539970456705,-0.38506598659399116,1.1825840929377442,-0.875013304276451,0.7192977687439693,-0.40958034363257073,0.32653976320937683,-0.22149937489927807,0.27492175375889405,0.7807939188134372,1.6264511932220505,-0.24344224796754857,0.7938159300613542,1.6073046448153436,-0.2472496415596182,S_LF
0.03747008144359095,0.1400436299656114,1.3617925219006444,-0.6009771815839942,0.6554740784038068,-0.31152520597210964,1.009322026349274,-0.39473781701938615,1.1865002619491956,1.032635844958605,-0.3871345732128274,1.1872222573711295,-0.8577253432906645,0.7218606650880254,-0.4152848552067626,0.5169186904434279,0.15207099035551813,-0.14817288590673572,0.781525767320678,1.6258965764008229,-0.24376736011153038,0.7981813062022743,1.5836301227603025,-0.258338010860561,S_LF
0.06427029274954106,0.1380102874598963,1.3369143871081064,-0.4410203245657642,0.0406937955444285,-0.42983672585472665,1.0089343522891991,-0.3947028778431674,1.186335276666243,1.0025751572629036,-0.3961727324067446,1.179902580098831,-0.8438951161253747,0.7244235614320814,-0.413002957114129,0.5169186904434279,-0.013960239288785956,0.08981799179876666,0.7824635326127054,1.625191807220677,-0.24404753805675083,0.7973479100770561,1.5799458954398722,-0.25962980852044243,S_LF
0.06159016184499955,0.13597736136673638,1.3278676031515155,-0.3039144898855547,0.2822146024630121,-0.7551935508332643,1.0082764288286723,-0.3941752962822626,1.185925744669472,0.9923510430434797,-0.38993551115679403,1.175618903748079,-0.8905727524103362,0.7039196908171688,-0.40102357627128277,0.41115268133714694,-0.0762220397846912,-0.6770408564005149,0.782323104116851,1.6253074651187627,-0.24392066502495294,0.758717469118159,1.6234560822507476,-0.23036400071973792,S_LF
0.048190056192024336,0.14207697247132647,1.3374797097827098,-0.6009771815839942,0.08460671398143323,-0.5185705110680303,1.0078827108522932,-0.39384599454639957,1.185737588864548,1.0094024327254025,-0.3830078871063026,1.1794293719507876,-0.8715555704559549,0.6945222875785525,-0.4061574964936202,0.2207737541030959,-0.2007454626976097,-0.5448242794675011,0.7815912556096102,1.6246270449697926,-0.24392330821311511,0.735822356780992,1.588560129866272,-0.23828878391484784,S_LF
-0.049631154170479024,0.12987733384959113,1.3357835101641946,-0.09825543851732682,0.32612754966295127,-0.7847712855025777,1.0079923647623816,-0.3918055466552182,1.1852219749599566,1.0128302849733875,-0.3079174063077194,1.1656985324607383,-0.9061322005442217,0.7073371192300649,-0.4169961619475418,0.11500816065711021,-0.15923759751284733,-0.2010595513208105,0.7817580144484372,1.6243172711842777,-0.2439946742935015,0.7841235668658011,1.6045744172335437,-0.24562303103686967,S_LF
0.057570239923053455,0.13902716691903144,1.3420029859636526,-0.18965952786940893,0.37004049686289037,-0.07490222432741195,1.007968189097165,-0.3914963349456812,1.1851831713147276,1.0095058110289354,-0.3932337139026694,1.1814297771843896,-0.8577253432906645,0.7244235614320814,-0.3918962175581402,0.1784675721460743,0.11056311157694723,0.14270465721284142,0.7819929621241934,1.6248637716617804,-0.24372242591276866,0.7851155444399475,1.6372154611448944,-0.23224897077446308,S_LF
0.033450159521644866,0.10751139911183458,1.3312600023885468,-0.18965952786940893,0.545691854218631,-0.37068106278097873,1.0072308313080705,-0.3906481864429681,1.184799322306166,0.9745217316274699,-0.3749677532265852,1.1673475151533022,-0.8888435314417409,0.711608729780569,-0.4061574964936202,-0.03306450910829899,0.048301456534793466,0.22203467265438823,0.781949078219239,1.6249740186640487,-0.24356119143485885,0.778976080515061,1.6183586713851452,-0.23838369149802296,S_LF
0.048190056192024336,0.12072750078015035,1.329563802770031,-0.7380831659381605,0.545691854218631,-0.34110313437654416,1.006199911869921,-0.3899799746977825,1.1845087137113204,0.9823758982383974,-0.3831494633767935,1.1712998343261838,-0.8421666032734738,0.7073371192300649,-0.415855212901225,-0.011911036415083733,-0.1799915369021328,0.1955913919086547,0.7815723517736298,1.6236781091159116,-0.24382815343926698,0.7615624877933975,1.5565967686445188,-0.2591236347435093,S_LF
0.07231013659343292,0.14512677802362198,1.328432925826119,-0.4638713469037847,0.238301799077745,-0.04532433467000163,1.0057941060609343,-0.3898908797984244,1.1844436687520512,0.9994832845014014,-0.3969435365460827,1.1791172440792865,-0.8974882200513286,0.7321126003954818,-0.41471426385490817,0.19962066312458512,0.048301456534793466,0.43358230425502636,0.7827916491943652,1.6239567702504798,-0.24386515807354145,0.8333634441653295,1.6255261070535953,-0.2507796763893765,S_LF
0.05622990003591652,0.13089421330872578,1.336348832838798,-0.16680835585743156,0.37004049686289037,-0.19321368608949263,1.0055670274912245,-0.38954934935088487,1.184309112226868,0.9968729823371901,-0.3909125622086988,1.1771720185943961,-0.8335219146638861,0.7312580683266416,-0.42041877542910006,0.8342167177622707,-0.013960239288785956,-0.09528622049266094,0.7840318758620789,1.6228969110323528,-0.2444466594692812,0.8149558494254912,1.5617056086824654,-0.27211279202970623,S_LF
0.06963055455862409,0.12072750078015035,1.3205172504081455,-0.37246740722565946,0.5896048014185701,-0.4002589911854132,1.004655259545927,-0.38914929578317914,1.18399421645839,0.9700049612489359,-0.3955653527277877,1.1699398486003578,-0.8542676094701684,0.741510003634098,-0.42098936678095455,1.0245953678894584,0.4011178552126871,0.1955913919086547,0.7860228548730138,1.6226581552544337,-0.24491450377403579,0.844845415882404,1.5862245448824812,-0.2702278219749811,S_LF
0.00530960832855782,0.1339440188610213,1.3397414636705338,-0.21251040053347262,0.15047604849253873,-0.4002589911854132,1.004699293793285,-0.38824175068089406,1.1837599987724385,1.0111908773765257,-0.3520524977417948,1.1739467901507523,-0.869827057604054,0.7141716261246251,-0.4141439061604458,0.6649910200601621,-0.0762220397846912,0.5129123196965731,0.7864758717995441,1.6221224765685651,-0.24495150840831026,0.7844967393817894,1.5885802989939388,-0.2523957416251056,S_LF
0.02272963590347881,0.15630995359877736,1.3126013433954664,0.1988072531811126,-0.17887062406298876,-0.31152520597210964,1.0049065137808528,-0.38754646107413865,1.1834827899975284,1.0023744310568767,-0.34748185641669466,1.1703974503548265,-0.8196916874985963,0.7192977687439693,-0.401593933965745,0.45345900184760024,-0.5120539825969325,0.14270465721284142,0.7864799226215398,1.621118755394538,-0.24503873361767115,0.7684152308311224,1.5806323180847919,-0.2510986713217143,S_LF
0.07633060738511138,0.11869457468699043,1.3318255566578547,0.4730190722154884,-0.11300127517041608,0.01383140027947626,1.0048650697833397,-0.3880024173237949,1.1833591208260428,0.9781804620866792,-0.4068407665664956,1.174565472181763,-0.8456236289772756,0.7039196908171688,-0.41186200806781215,0.19962066312458512,-0.8233626656219577,0.27492175375889405,0.7859728947350656,1.619587471878368,-0.2451312452033571,0.7519848430928137,1.5647161871388315,-0.25297836873292995,S_LF
0.09509042597743694,0.12581106525071567,1.3465262621445955,0.15310522347246724,-0.9473459057298758,0.427921841728027,1.004909967447312,-0.38960612551224055,1.183511543777806,0.9959770370399035,-0.42748905386824404,1.183862145097301,-0.8680985447521531,0.7244235614320814,-0.40958034363257073,-0.011911036415083733,-1.404472016955352,0.8037897935344118,0.7863401692626847,1.6185046163530195,-0.24504401999399586,0.8027410289699658,1.606621583691702,-0.25006523319380924,S_LF
0.06695042365408257,0.09836198245494898,1.328432925826119,0.38161513253736307,-1.2327796310854642,0.13214292578041179,1.0043876003953192,-0.390916344620448,1.1832703470189718,0.9580354766715279,-0.40166274556243853,1.1674765465858958,-0.8594545642592603,0.7073371192300649,-0.4141439061604458,-0.37151542581040936,-0.07454092474708618,0.40713885030494656,0.7857251194563226,1.6177606181782014,-0.24511802926254478,0.766061477240223,1.574026928773984,-0.2531708202210348,S_LF
0.03880987246099553,0.07802897381035329,1.3561383687757897,0.907187897942051,-1.035171656315082,-0.015746483759615536,1.0045404251361503,-0.39187367804884493,1.18306655809079,0.9714005683466331,-0.3970877345993601,1.1706532837352173,-0.8629115899630616,0.712462911918177,-0.41357354846598343,-0.37151542581040936,-0.07454092474708618,1.068223986626517,0.7853436670517183,1.6172073540809282,-0.2450308040531839,0.7779665577593312,1.5827588164451059,-0.2529546418371362,S_LF
0.01736992296412845,0.13699382441331634,1.3504842156509351,1.1356976723003858,-0.5960429033890506,-0.25236954289836167,1.0059521113014547,-0.3918640697753848,1.18300514224942,1.0222876767749411,-0.3663394660750145,1.1800764799129533,-0.8992167329032295,0.7218606650880254,-0.41756651964200403,-0.41382202342772617,-1.362964138176781,1.1475545216811025,0.7856744841813752,1.6163598725236126,-0.2449092173977107,0.8137614274484577,1.6113088889614173,-0.2512199421224382,S_LF
0.029429688729966413,0.16240956470336793,1.3465262621445955,1.1356976723003858,-0.2227834274482559,0.1617208154378221,1.007621959034604,-0.39156184590109155,1.183144723707079,1.0395957892439713,-0.3689262917580539,1.185781452821433,-0.8525390966182679,0.7184432366751292,-0.40729844553993705,-0.011911036415083733,-1.2384407737172394,0.43358230425502636,0.7856427527424081,1.6152032935427596,-0.24490128783322346,0.7824891657198267,1.5936864498148633,-0.2496961481481289,S_LF
0.06293050173213648,0.14614365748275665,1.343699185582168,0.5415721392295499,-0.420391402218638,0.28003239344097547,1.0083567265738544,-0.39201343475372036,1.1832795593951773,1.0167431537621157,-0.39695052796684743,1.1843253205637607,-0.8819287719174433,0.7064825871612248,-0.42098936678095455,0.45345900184760024,-0.3667766787481052,0.40713885030494656,0.7858419181572016,1.614357841071376,-0.24501758811237156,0.7773396549250577,1.576352429193942,-0.2554406932519696,S_LF
0.11117066253495336,0.14411031497704155,1.3499188929763313,0.4501680498774678,-0.5301736264038139,0.04340929555520508,1.008931762039355,-0.3933830504614998,1.1834987022837014,1.0133256393444843,-0.4384384927137854,1.1911692815176196,-0.875013304276451,0.7150261581934653,-0.3993120358731113,0.6649910200601621,0.006793604943839655,0.14270465721284142,0.7861335773408992,1.6147900363747472,-0.24477441480142556,0.776262650701699,1.6255893036536173,-0.234571570240495,S_LF
0.057570239923053455,0.13902716691903144,1.3584001226636138,0.13025430590621653,-0.3764784550186989,-0.13405800364223255,1.0094593095910376,-0.3938267779994793,1.1836095299610825,1.025302015808794,-0.40136735803511847,1.1877514813246837,-0.8957589990827333,0.7184432366751292,-0.41813711099385864,0.45345900184760024,0.06905536873646181,-0.33327664786686306,0.7868890556431155,1.6148333235412822,-0.24498586985442217,0.8056332846725448,1.6042557450164112,-0.25186847727413364,S_LF
0.08303066021159898,0.1380102874598963,1.3380450324573134,-0.1211066105293042,0.391996826648188,-0.25236954289836167,1.0092728116022265,-0.39379970013790977,1.1835807761808048,1.0006721349920318,-0.41153812739296103,1.1822616536990598,-0.9631823301739774,0.7321126003954818,-0.4038758320583786,0.41115268133714694,0.06905536873646181,-0.6770408564005149,0.7883986619735498,1.6167900387410528,-0.2446898327802272,0.8466707895817683,1.699720260087907,-0.22347529197428767,S_LF
0.07097034557602835,0.08514546437407851,1.3289984800954273,-0.37246740722565946,0.4798225772333943,-0.28194747130279624,1.0078075936068,-0.39364684124195215,1.1832047437338722,0.9460634076365315,-0.40763516675091555,1.1649784088714894,-0.8888435314417409,0.7346754967395378,-0.3993120358731113,0.2207737541030959,0.08980930812574726,-0.33327664786686306,0.7893148228815997,1.6178309598238207,-0.2445841052537289,0.8242655926995879,1.6550691729553584,-0.23591082169196392,S_LF
0.08705058213354508,0.1664762497147981,1.3431338629075646,-0.21251040053347262,-0.02517551451818277,0.04340929555520508,1.0081831798342666,-0.3940032208393847,1.1834308656952792,1.0308749678550917,-0.4118903202139965,1.1914415573483845,-0.7660992916893369,0.7073371192300649,-0.413002957114129,0.2630803517204127,-0.2837610571290489,-0.4126071829214486,0.7884135149875345,1.6154758674195338,-0.245258118235155,0.7328228055448829,1.5008983779847238,-0.2738817639272178,S_LF
0.06293050173213648,0.16850959222051318,1.329563802770031,0.08455227619757115,-0.44234787581860757,0.1025650554965136,1.0086537418893677,-0.3941988802262104,1.1835188020136043,1.0234291455431197,-0.38561044348606355,1.18415699446163,-0.8594545642592603,0.7158803403310733,-0.4141439061604458,0.2630803517204127,-0.3875306181373907,0.1955913919086547,0.7885546186203881,1.614738632864487,-0.24541406633673976,0.7847335993331671,1.5819560851639758,-0.2552192422245611,S_LF
0.03747008144359095,0.14614365748275665,1.3312600023885468,0.17595633561486188,-0.7058251275742263,-0.16363587392613074,1.008892908291686,-0.39428710164616276,1.18340518270707,1.0088105919376757,-0.37064618126623705,1.1768579399236985,-0.8577253432906645,0.7167345224686812,-0.4141439061604458,-0.2445961871721859,-0.678085225835045,-0.015955784510961447,0.7883689559455805,1.6137761697710638,-0.2456202350134113,0.7860211457355286,1.5813752142871782,-0.2558282325499338,S_LF
0.04550992528748283,0.1319106763553062,1.3193863734642335,0.0388504350781114,0.37004049686289037,-0.04532433467000163,1.0085000537319222,-0.393514945851726,1.1831726399986104,0.9830013369747729,-0.37375823743424524,1.16967593333758,-0.875013304276451,0.7389471072900419,-0.3941781156507739,-0.5618942144910287,-1.0516555910898413,0.1955913919086547,0.7887423067061933,1.6141359943428846,-0.24534270025635335,0.8251158591917133,1.659691264712285,-0.23421830312534359,S_LF
0.07365047648056987,0.15630995359877736,1.3142975430139823,0.24450929785715367,0.08460671398143323,0.1025650554965136,1.0085423611460504,-0.3933131721090619,1.1831101075055794,0.9956246893220277,-0.38877056567183066,1.176383338347657,-0.8853865057379395,0.7133174439870171,-0.42098936678095455,-0.15998367084936782,-1.155425152098183,0.3542517692004408,0.7887598602681751,1.6129158373361834,-0.2454775028526385,0.7933091442394604,1.5853202956587624,-0.2562579529959761,S_LF
0.05220997811397043,0.15935975915107242,1.3380450324573134,0.3587641101993426,-0.2008269538482864,0.0729871852126154,1.0092702213523816,-0.39325901638592287,1.1831983229868197,1.0250116950730388,-0.3831582026527497,1.184160060003225,-0.7851157655270238,0.7184432366751292,-0.4284051850959257,0.41115268133714694,-0.9893937729219849,0.9888939711849701,0.7888408767080912,1.6100412989334785,-0.2461488726459021,0.7771311371900842,1.4936267351566632,-0.2895494241163526,S_LF
0.105810949595603,0.08412900132749855,1.3629233988445564,0.6329760789076752,-0.7497379309594936,-0.19321368608949263,1.0091372551936926,-0.395017330429137,1.183174873301933,0.9728358037940174,-0.45144865282980234,1.1813333519669438,-0.9078607133961226,0.7218606650880254,-0.41813711099385864,0.7284507086559897,-1.155425152098183,0.6451294162426258,0.7899670052229233,1.6095367328985566,-0.24607486337735315,0.81704777492199,1.6167975809037516,-0.2498569637751751,S_LF
0.07365047648056987,0.13902716691903144,1.3465262621445955,0.9985918376201762,-0.8375636815446998,-0.4889925826635957,1.010121550134639,-0.3959956273632654,1.183156448549522,1.0113209617418044,-0.4081333054804199,1.1848289054421557,-0.8525390966182679,0.711608729780569,-0.4375325438090682,0.2207737541030959,-0.7818549227814723,0.6715726969883592,0.7901958766656859,1.6074528616470893,-0.2466457920204435,0.792062761532353,1.5225364904496956,-0.2818645462009347,S_LF
0.07097034557602835,0.1522432685873472,1.3600963222821292,1.1356976723003858,-0.2447399010482255,-0.13405800364223255,1.01165152437618,-0.39645507753054343,1.1833772664155384,1.036784760873734,-0.4102552016825889,1.1929096730868376,-0.9044029795756264,0.7107545476429611,-0.401593933965745,-0.15998367084936782,-0.9478860300814994,0.5393559468509991,0.7898940904269988,1.6076091012638012,-0.2461753045275264,0.7788201983248378,1.6395349108265522,-0.2294571060360658,S_LF
0.08973071303808659,0.1735927402785233,1.3420029859636526,0.8386348309279895,0.018737408233262115,0.1025650554965136,1.0129406053821737,-0.3967206152698067,1.183643587836751,1.0358595250571128,-0.41212103709924053,1.1929868689979142,-0.8715555704559549,0.7210061330191853,-0.40216429166020734,-0.09652392683216751,-0.968639969470785,0.3278084884547073,0.7898772120020164,1.6074014581368292,-0.24597442222717994,0.790501915186094,1.622336695665252,-0.24002875627305575,S_LF
0.05622990003591652,0.15935975915107242,1.3397414636705338,0.4501680498774678,0.15047604849253873,0.427921841728027,1.0136779631712691,-0.39636510915177986,1.1838180646588246,1.0260049882728195,-0.3871835131581822,1.1852360651031049,-0.8767425252450463,0.709900015574121,-0.40729844553993705,-0.011911036415083733,-0.906378287241014,0.3278084884547073,0.7895511208313545,1.6069307102007628,-0.24582111731375775,0.7720248145345976,1.604792916116598,-0.24205345138078865,S_LF
