xa_S1,ya_S1,za_S1,xgb_S1,ybg_S1,zbg_S1,tilt_x_S1,tilt_y_S1,tilt_z_S1,tilt_accx_S1,tilt_accy_S1,tilt_accz_S1,xa_S2,ya_S2,za_S2,xgb_S2,ybg_S2,zbg_S2,tilt_x_S2,tilt_y_S2,tilt_z_S2,tilt_accx_S2,tilt_accy_S2,tilt_accz_S2,Posture
0.6511964571850972,-0.21171088190878823,1.27584934808391,0.7929329359259052,0.8091691059742496,-1.5242183332027146,0.5376478906477645,-0.8991084096826294,1.0940861704624771,0.5425821963761345,-0.9003835108453578,1.118941498624286,-0.9873857588007557,0.5817513491277649,-0.2932079803987055,1.9130303154638861,0.44262559805317253,0.5922426815468125,0.43249951765567296,1.7203674355532552,-0.05409482076195562,0.4476791892638682,1.7834241568170155,-0.055823682617453026,S_LF
0.6913967741440222,-0.24221018666940464,1.2945080070769899,0.7015289962477799,0.6115612750185396,-1.8199972297768177,0.5382211992800354,-0.8994027722422733,1.094296938463542,0.5329413080858095,-0.9429717504351831,1.1214206857179225,-0.9407081225157943,0.5680823353386445,-0.2937783380931678,1.638037777334906,0.712426402299627,0.5657994008010789,0.43302882506312385,1.7213035205295715,-0.0541106798909305,0.39847372751283044,1.730183710515522,-0.06197685759329717,S_LF
0.6150160621481182,-0.22696032608281907,1.2860267773897078,0.06170135863132041,0.7652563025889825,-1.7904194951075043,0.5385052633463261,-0.8982296894007249,1.0944197701462817,0.5461823457966748,-0.8766983251488248,1.116910995345932,-0.9407081225157943,0.5603932963752442,-0.3000534410192143,1.3841995771653226,0.4841334768317434,0.06337422608086365,0.43315237513399585,1.721623439744743,-0.05435913957820121,0.38779343563118857,1.7088037628846828,-0.06788749096769399,S_LF
0.6538765880896388,-0.2249273999896587,1.2407933207961646,0.3359132375352789,0.940907947574067,-1.731263638298635,0.5378965546328461,-0.8972531394254076,1.0942413850433939,0.49035289297362106,-0.8932234220544312,1.1013862566515504,-0.9804702911597634,0.5586845821687961,-0.32058958922334846,0.7919101201449539,-0.0762220397846912,0.30136503450462754,0.4334447094546926,1.7213163714071362,-0.054893063587017094,0.419540766891928,1.698296319674646,-0.08488122099952412,S_LF
0.6605766409161262,-0.23001054804766882,1.262279287946377,0.1988072531811126,0.43590977384812707,-0.9918165905984984,0.5375736368188865,-0.8970356430534453,1.0943982746018022,0.5101679293033291,-0.9063034963780977,1.109421598543505,-0.9545383496810841,0.5723539458891487,-0.31317377090837734,0.3053866722308661,0.048301456534793466,0.5129123196965731,0.43363442295149585,1.7213231350269076,-0.0553450487627968,0.43013670693903344,1.7090679784571154,-0.08388205505443184,S_LF
0.6284161678010932,-0.22797720554195375,1.2735875941960861,0.3587641101993426,0.12851957489256918,-0.6073041025462128,0.5377843104729135,-0.8966163729388189,1.0946807874721036,0.5292937769428162,-0.8836023531542345,1.1124798943130159,-0.9891142716526566,0.5723539458891487,-0.3257237431030781,0.5169186904434279,0.02754753073931656,-0.06884245477475792,0.434483745296615,1.72135762948774,-0.05608778463644639,0.45573175279603684,1.7112072505982847,-0.09241582857491489,S_LF
0.6766568774736428,-0.2137442244145033,1.259452211383949,0.38161513253736307,0.10656318758140279,-0.19321368608949263,0.537793808055677,-0.8968749228428385,1.0950629615031733,0.5185140043419016,-0.9161343079012436,1.1133655571483998,-1.0064022326384428,0.5800426349213168,-0.2675376783148416,0.6438379290816514,0.46337953744245797,0.010487560666788872,0.4349333865381486,1.724389760231111,-0.055358264703609134,0.4320477821022868,1.8444142542722672,-0.020597151329009206,S_LF
0.6431560644714726,-0.21679402996679834,1.2634101648902887,0.17595633561486188,-0.06908835673341135,0.1617208154378221,0.5377592713910825,-0.8967744727112092,1.0954867308086254,0.5250388982665665,-0.8905990174847799,1.112065767512078,-0.9821988040116643,0.585168777540661,-0.30461700354708937,0.19962066312458512,0.3803639158234017,-0.4390504636671821,0.435652407442403,1.7256390008028277,-0.05576267249246458,0.4618887619025067,1.7617941120031104,-0.07132525453603213,S_LF
0.6552163791070432,-0.2137442244145033,1.2871576543336198,-0.1211066105293042,0.06265025476293086,0.014230713355838028,0.5380398817909138,-0.8968976333073807,1.096095585126933,0.553262036616967,-0.9075366082155196,1.1232795186669509,-1.0115884793108398,0.5749168422332046,-0.30518736124155166,0.19962066312458512,0.3803639158234017,-0.2539466324253163,0.4361850905348505,1.7270066047205384,-0.05597412754546083,0.4538442961464537,1.770045302131512,-0.06444709107760128,S_LF
0.6391361425495267,-0.2137442244145033,1.2747184711399981,-0.09825543851732682,0.1724325220925083,-0.04532433467000163,0.538100320953954,-0.8965927889948712,1.096558158077614,0.5411831433349862,-0.8905509514670208,1.11718745146069,-0.9804702911597634,0.5757710243708126,-0.2897851332597549,0.28423358125235526,0.06905536873646181,-0.3068333671211295,0.43628703622174475,1.728288310667156,-0.055942409287511444,0.42925944785985637,1.7773559386063944,-0.05161347677494101,S_LF
0.6793364595084517,-0.20357792829848256,1.2860267773897078,-0.18965952786940893,-0.156914136081552,-0.13405800364223255,0.5383990631026977,-0.8972688620547061,1.0971871121258245,0.5574376585938413,-0.9252450030855973,1.126923890252325,-1.009859966458939,0.5732081280267566,-0.29606023618580146,0.2630803517204127,-0.055468104473548316,-0.22750283206654398,0.43663000581738903,1.7295882783871561,-0.05592655015853657,0.4421490829916717,1.7840285583427573,-0.053419357177020364,S_LF
0.6686164847600182,-0.24017684416368956,1.2769799934331174,-0.5781263089199304,-0.44234787581860757,-0.04532433467000163,0.5375624124028933,-0.8980602343960634,1.0975514197303138,0.5174983125096891,-0.9189072801621505,1.113404294446738,-0.9821988040116643,0.5766255564396527,-0.29663059388026375,0.2419272607419019,0.15207099035551813,-0.4654937444129156,0.4368568518491538,1.730663693930756,-0.05609571420093364,0.437451698030017,1.7666468041196917,-0.0598124374325569,S_LF
0.6793364595084517,-0.2086610763564927,1.2764146707585136,-0.4638713469037847,-0.5082171528038443,0.1617208154378221,0.5373318801667242,-0.8989747673335922,1.0981192371000696,0.5420911494343519,-0.9229404560159435,1.121748141297399,-0.9752840444873664,0.5791884527837089,-0.28236931494478384,0.5592250109538812,0.2765944907531454,-0.8357017533053398,0.4371174547308835,1.7323187516887373,-0.05602963449687234,0.4280009184885757,1.791957714732749,-0.044197503678518796,S_LF
0.6793364595084517,-0.21882737247251344,1.2815035012087652,-0.37246740722565946,-0.33256565163343177,0.4574995763973404,0.5371281138456157,-0.8997748744690041,1.0987289289071234,0.5393188879279394,-0.9259694890623675,1.1212604414981788,-0.9977582521455495,0.5655190890633564,-0.2989124919728974,0.3476932698481828,0.7746880845293979,-1.126578880734486,0.43710597740189533,1.7336234539425772,-0.05627809418414305,0.42316587133295774,1.760189321745106,-0.057373839809311045,S_LF
0.6940769050485638,-0.19544497468817693,1.2786764246463374,-0.8523381279543062,-0.2008269538482864,0.014230713355838028,0.5368673620279264,-0.9005872103160928,1.0993461581128903,0.5540175597186214,-0.933767544998098,1.1269403327026986,-1.0271479274447248,0.5603932963752442,-0.2875034688245135,-0.11767705937670783,0.8369499026972542,-0.8621446876423808,0.4366455339683728,1.7357276160533572,-0.05607721188379659,0.416460237894664,1.7968520897131746,-0.03734570343763706,S_LF
0.6913967741440222,-0.21984425193164855,1.3261714035330001,-0.9894439626345156,-0.003219050985240245,0.6645448814932611,0.5371177528462376,-0.9015331885122184,1.1003430488834893,0.5876258461972342,-0.9495856344788464,1.1396422649591929,-0.9873857588007557,0.583460063334213,-0.2897851332597549,-0.6253540416402881,1.0859966316163376,-1.1530226810932582,0.4364997043765241,1.7378196036485491,-0.05622258723273154,0.44847749502591927,1.7921325138391928,-0.0520194703251895,S_LF
0.6846967213175347,-0.2137442244145033,1.2747184711399981,-1.6978246073954542,0.018737408233262115,1.1082130326192945,0.5358096766747164,-0.9020013734735512,1.1010077357848602,0.535118282861044,-0.9274770141648147,1.1201203387104013,-1.0064022326384428,0.587731673884717,-0.28179895725032156,-0.6465068555119353,0.5879030378400851,-1.2852397776393107,0.4365341363634885,1.7402626231098604,-0.056164437093157486,0.45952353646211014,1.8269531681470466,-0.03975002887806972,S_LF
0.6230559059920101,-0.20662773385077762,1.2831997008272806,-2.5890132811866,0.2602581288630426,0.3391880565147234,0.5341527801907904,-0.9012781325258208,1.1015361911835564,0.5590813736200179,-0.8792737897731214,1.1213521290604322,-1.0340633950857172,0.6150700513941899,-0.28065800820400466,-0.49843452589520115,0.42187165866388704,-1.2323530429434975,0.43787833412909427,1.7438757487915661,-0.05622787360905662,0.5285698993254263,1.883914818503025,-0.03898285924740536,S_LF
0.6619164319335307,-0.1669790124332756,1.2939426844023865,-1.949185553765766,0.545691854218631,-0.42983672585472665,0.5329854409274926,-0.9006247699305281,1.1021788242146173,0.5999407866056155,-0.9084944328603206,1.1382151160038743,-1.032334174117122,0.646680039454167,-0.2800874168521501,-0.20229000521516433,-0.2630071177397635,-1.2852397776393107,0.4409171257629427,1.747518634400265,-0.05627280780781834,0.5951120249250305,1.9235390867168045,-0.044877674691272865,S_LF
0.6632567718206678,-0.10394789323143708,1.3159937426324977,-2.7032683928767027,1.5337323033292294,-2.2932436967775276,0.5336899888852223,-0.8993643391484325,1.1029632720066598,0.6788994118724757,-0.9079115231540411,1.1631254283200516,-1.0012159859660457,0.6389910004907666,-0.2606922176943328,0.6649910200601621,1.2105199960758795,-1.734777801973282,0.44359201855416835,1.752255197325946,-0.05599262986259787,0.5506127207264392,1.9310554482938864,-0.02485744728486335,S_LF
0.5841959289202223,-0.12936363352148866,1.302423914089669,-3.9600716279886936,1.8850341551526788,-3.62424853762587,0.5330044360930195,-0.8966320955681174,1.1031539402778217,0.6521020326249694,-0.8429533588990933,1.1457872824293693,-0.956266862532985,0.6321564935962065,-0.2937783380931678,1.1515146065276818,1.6463523154366175,-2.184316519124638,0.446420167444235,1.755073597684551,-0.05680937500479639,0.5418711714097786,1.8214543916408785,-0.07310740804231769,S_LF
0.49039464047966475,-0.20967795581562784,1.2340085223221025,-4.691303744109523,1.8630779691820534,-5.280610203452751,0.5288263630936867,-0.8921109661653965,1.101845224530813,0.5194280408423069,-0.7555177768847613,1.0912125601542146,-0.8957589990827333,0.585168777540661,-0.3063283102878685,3.1399154114616454,2.061429743841472,-1.866994032497603,0.448278144466308,1.755546374706549,-0.05786929345794091,0.4250135139166398,1.6926335009301237,-0.08954751050562676,S_LF
0.6431560644714726,-0.3530229808990508,1.2300505688157632,-3.411648289267856,3.9269838989150965,-7.0848595739505935,0.5228679250345012,-0.8887314743456268,1.0996487707130946,0.37229831628226573,-0.9002524217060147,1.0646624617702587,-0.8629115899630616,0.5433068541732277,-0.32058958922334846,5.614838555882243,2.0199224088152428,-0.22750283206654398,0.45007265861044693,1.7539014623782248,-0.05881026844377441,0.33511402792661005,1.5893359689771804,-0.10300593306418906,S_LF
0.6619164319335307,-0.3987713134211434,1.2187422625660533,-0.6695302485980557,3.685462976944775,-7.853885324995649,0.5182814559763369,-0.8860044716417447,1.0970385974548755,0.3188138279776879,-0.9187158900187093,1.0499525997689745,-0.8905727524103362,0.5236575156271551,-0.3160260266954733,7.032102994774348,0.13131705096623267,3.7918950669673843,0.4518705484395821,1.7510296294234278,-0.05858031107364112,0.30316762633636524,1.5958593371688103,-0.08765463148563712,S_LF
0.6967570359531053,-0.3499731753467558,1.2419241977400766,3.4436479349613216,2.675466917122239,-6.493302943213114,0.5183384414729183,-0.8849510554787459,1.095333470368116,0.3814283434559641,-0.9465592232152092,1.073551138968049,-0.968368576846374,0.5048623592186905,-0.3257237431030781,5.762911993926431,-1.2384407737172394,5.193395355052071,0.4531904412732133,1.7476295577645107,-0.05784814795264095,0.3096741894451535,1.6160587185268989,-0.08081601285352938,S_LF
0.6726364066819642,-0.3225240925509891,1.262279287946377,5.385980343474361,1.0067772245593039,-4.21580516836335,0.5212317505493318,-0.8849030141114449,1.094327925547142,0.4312609931882352,-0.9293533367126139,1.0872797489733017,-1.0202324598037327,0.4749607354339294,-0.31887828248256933,3.245681559121358,-2.338398066030428,4.981848762677511,0.45185299487760044,1.743797967164199,-0.056701004290135915,0.26831412312066305,1.6312225410108954,-0.057168206712431856,S_LF
0.7423170658513807,-0.3103244539292533,1.283765023501884,5.751596401534776,-0.5082171528038443,-1.13970603888555,0.5248995443292792,-0.887420381758014,1.0943125715867998,0.4573192175654803,-0.9899339976410939,1.1031759755718893,-0.9873857588007557,0.5031536450122424,-0.31488507764915646,0.9399824497616881,-1.6327652142994062,3.7918950669673843,0.4495858848339518,1.7409606286702348,-0.056048136814009754,0.3053621236636604,1.6474022152250325,-0.06441281889478809,S_LF
0.7865378536019842,-0.2899918616972123,1.2905500535706507,4.7461541127930955,-0.06908835673341135,1.9363936717976136,0.5277626338241725,-0.8901884379939534,1.0951291231141036,0.4766268387220132,-1.0247530209058444,1.1135082441753716,-1.0046737197865419,0.5185313730078108,-0.3120328218620605,-0.3503621962784668,0.006793604943839655,2.23173440159091,0.44720940259641656,1.7400380709334606,-0.05564108583699177,0.34150722216978135,1.6839251439079461,-0.06151286496444171,S_LF
0.7972578283504178,-0.24017684416368956,1.2798070699955448,3.283689880551437,-0.04713189751490898,4.3322029665299935,0.5301525710141193,-0.8928700197687512,1.0966402319747173,0.5045105516424802,-1.024038148132626,1.1223236270604793,-1.0046737197865419,0.5347636330722194,-0.2977715429265806,-1.4714808675096496,2.144445773274785,1.3855449144144352,0.44449197617423497,1.7416133179781432,-0.05516531196774994,0.3622422527281443,1.7294320743578142,-0.04813353205852559,S_LF
0.7021167488924557,-0.21984425193164855,1.2769799934331174,2.0497373684295517,0.45786624744809673,5.426583605202375,0.5319657459053364,-0.8934299200676585,1.0983188385845217,0.5302879316284599,-0.9431710059269849,1.1206019074264315,-0.9873857588007557,0.5424523221043875,-0.2738125475834959,-2.4233761964470637,2.8085712899795765,0.5129123196965731,0.4409029478859572,1.7444567437299014,-0.05440407377696292,0.35002068412585613,1.7698846214144344,-0.023737010539047594,S_LF
0.6686164847600182,-0.22391052053052357,1.2995968375272415,0.24450929785715367,-0.2227834274482559,6.195609356247432,0.5327488647750193,-0.8941977084650681,1.1002467376777048,0.5570792804749266,-0.9236841683998175,1.1266070247256317,-0.9424366353676947,0.582605881196605,-0.284080621685563,-2.6349071062321716,2.850078625005806,-1.391013073826591,0.4386682444182751,1.7472413259896509,-0.05467367896953322,0.42166305904886,1.7682919326330298,-0.05296590983518469,S_LF
0.6498561172979602,-0.19951124328705241,1.284895900445796,-1.2636557816688914,-0.8814766287446391,6.136452337027836,0.5323646443814043,-0.8950729348293506,1.1021031710645663,0.563470644090861,-0.9004473075598383,1.1255820190904702,-0.9545383496810841,0.5868774917471091,-0.28579216208373437,-3.1425848921056563,2.5595245610604933,-2.210757894622563,0.4365820710904386,1.7498561413931468,-0.05510451864001334,0.4376446950274358,1.7795429443497084,-0.05380953279673991,S_LF
0.6793364595084517,-0.21577756692021838,1.2487092278088432,-2.0177377227360864,-1.2327796310854642,6.313919519984201,0.5302725859235856,-0.8964678814398888,1.1035308102135002,0.5039023426233601,-0.915212314287863,1.1085966891688235,-0.9234201615300078,0.6065268302931818,-0.2692489850556207,-3.3541158018907637,2.2897228052474405,-2.5809665963323716,0.43452155296857575,1.7530336899615964,-0.05542963078399515,0.45181377878549706,1.8135575058551536,-0.04314824762008438,S_LF
0.6217161149746057,-0.2086610763564927,1.249840104752755,-2.4519074465063904,-1.5840820581676012,5.929407613137279,0.5280432442240038,-0.8972671150958953,1.1049076417118464,0.5192169768059272,-0.867514220046439,1.1071023769840125,-0.88711501858984,0.6039639339491256,-0.26012162634247826,-3.6079540020603473,0.899211584927025,-2.7131838660827707,0.4317163587364851,1.7548666309195564,-0.05566751771861606,0.42163741609116095,1.800413285354838,-0.0376752436569943,S_LF
0.6029557475125478,-0.17714572496185102,1.2430550746839883,-2.040589942465762,-2.0232115301669924,4.982914679135858,0.5266436458913072,-0.897994723440653,1.106132887747175,0.5409660488975669,-0.845112833987874,1.1109248286675018,-0.8732847914245501,0.6304477793897584,-0.27609444567612956,-4.031018592699198,-1.6950262168387495,-1.549673970731416,0.4301601679530993,1.7546772495659664,-0.0561935121629447,0.48685960418394175,1.7921056216689704,-0.06653242158569574,S_LF
0.5346154282302682,-0.1507131052126648,1.2656716871834075,-1.8577811650657705,-2.6819043000193594,4.42093558933257,0.5267066753041921,-0.8981004144487151,1.1073754418832535,0.5994083883424198,-0.7931884258940245,1.122049121744918,-0.9113184472166188,0.6184874798070862,-0.28293967263924613,-4.009865640274119,-3.500617040573388,-1.0736923192430188,0.4283946846999303,1.7530959152634902,-0.05660056313996269,0.4836056478148713,1.792303279120103,-0.06522480599528506,S_LF
0.5748157451891932,-0.15681271631725488,1.2831997008272806,-1.1951027146548296,-3.4723356238422,3.7110668575071113,0.5273991354293143,-0.8998596019713349,1.1086743869282258,0.6082308650631075,-0.832864738735239,1.1305119673465889,-1.016775434099931,0.6201958440823021,-0.284080621685563,-3.1214305541462593,-4.8081130470890034,-1.3116827119763517,0.4283210947670065,1.7521726811647387,-0.05669571791381083,0.5346317595625396,1.8709736338878866,-0.047358453462596393,S_LF
0.6686164847600182,-0.19544497468817693,1.2792417473209414,-1.1494009693267024,-3.977335091900188,2.3209069347903837,0.5271098908633346,-0.9036426412764323,1.1095529126227301,0.5579907325177439,-0.9132599600392446,1.1255343638529463,-1.0738255637296867,0.6014010376050696,-0.278376110111371,-1.979158653383134,-4.227003559817524,-0.015056789521927549,0.428772086282539,1.7524723095205972,-0.05607721188379659,0.5152112679935896,1.8996453934744526,-0.026428695050760204,S_LF
0.6846967213175347,-0.19646143773475735,1.2741529168706895,-0.8751890006183699,-3.516249433930171,0.9307456559278086,0.526933753873902,-0.9069618630172244,1.110081088858511,0.5491665328253301,-0.924860474943524,1.1242462790118055,-1.0634530703848928,0.5791884527837089,-0.278376110111371,-0.7311200507465689,-2.8157378563554802,-1.6025607054272293,0.42899758204030497,1.7528801557927929,-0.05577588843327692,0.4643626325057857,1.8640724307046352,-0.023845099730997084,S_LF
0.6913967741440222,-0.21272776136792287,1.2933771301330779,-0.18965952786940893,-2.6819043000193594,-0.10448011398482224,0.5274379891769833,-0.9099517830221535,1.1104744294061935,0.5565218991217107,-0.9385627857152729,1.1283529900068403,-1.0928420375673737,0.5672278032698044,-0.26810803600930394,-0.20229000521516433,-1.9440743051386882,-0.7828150186095265,0.42920889992108596,1.7544175265667574,-0.0548983499633418,0.4449569868597143,1.8889604619409497,-0.004041050708486176,S_LF
0.7007769578750512,-0.2503431402797103,1.3041201137081844,0.8157839582639257,-1.2108231574854946,-0.7847712855025777,0.5283713425376525,-0.9118874133846787,1.1106251773804647,0.5359039579678959,-0.9545311907424683,1.1238310374684692,-1.0859272780430758,0.5561216858247401,-0.29434892944502233,0.32653976320937683,-0.8233626656219577,0.4864688657464934,0.4296794704095978,1.755382695108089,-0.05436706914268846,0.43918327248937705,1.8212829540557127,-0.03455647502099475,S_LF
0.7047968797969972,-0.25440940887858526,1.296769760964814,1.0671447549602808,0.5676484716332725,-0.8439271423114468,0.5292520274848148,-0.9122280703528126,1.1106860348960041,0.5235898790453772,-0.9560998907766088,1.1201108634000168,-1.1654516153310146,0.5740626600955967,-0.29035572461160947,0.707297617677479,0.11056311157694723,1.1739978024268358,0.4317305366134706,1.7587185123791813,-0.05341287821604225,0.506765287505144,1.9065613873513259,-0.019861617559403102,S_LF
0.6391361425495267,-0.2757588805697614,1.302423914089669,0.05267518085996921,2.3022074411814444,-1.6425300468204527,0.5291967688214637,-0.9101954837762802,1.1104576796312742,0.5207107932919802,-0.9082602202646941,1.1130316918001335,-1.0392496417581143,0.6005465055362295,-0.2846512130374175,1.5957318724847482,1.0859966316163376,1.7557532697155518,0.434339941115764,1.7618033993567663,-0.052736222046453965,0.5031725741685761,1.8615297760101344,-0.040011024731800564,S_LF
0.6860365123349391,-0.28185849167435195,1.291115607839959,1.9811837027196628,2.938944025063186,-1.6425300468204527,0.5302950347555725,-0.9081925954995338,1.1101475296323566,0.4965960810211581,-0.9431072092125045,1.109869446301989,-0.9787417783078625,0.5586845821687961,-0.28864441787083034,2.018795077589281,-0.07454092474708618,2.57549826371587,0.4349738947581065,1.7618703591925002,-0.05202520443075376,0.3919219518207308,1.7567632592588078,-0.046839098076888894,S_LF
0.6672766937426137,-0.23814350165797446,1.2786764246463374,2.6667143728602785,3.400028244886483,-1.494640598533401,0.5324483957930465,-0.9053179747761269,1.1099680278778075,0.5213414009435322,-0.9180674357427583,1.114517086045759,-0.968368576846374,0.5484326468613397,-0.32458279405676127,1.066901965506775,2.12369210576167,2.919262125840829,0.4349556660591256,1.7616830069248417,-0.05214943427438911,0.396643630110732,1.669609097090202,-0.08949214774877472,S_LF
0.6069756694344937,-0.2249273999896587,1.2566251348215216,2.1411417571295472,3.1804649470335074,-1.1988615082241767,0.5338756234574183,-0.901732341816666,1.1096782567717078,0.515326506649631,-0.8602475120888465,1.1048737282443752,-0.9649108430258778,0.5629561927193003,-0.30518736124155166,0.6226846995497087,1.438812921543763,2.787046588133893,0.43490773133217525,1.7621321112776405,-0.05187454270549373,0.40842994324681303,1.7206497638675258,-0.0702759984775977,S_LF
0.7047968797969972,-0.19442809522904228,1.269629640689747,1.432760513672782,3.2024211330041323,-0.31152520597210964,0.5353468853691489,-0.8995923172732606,1.1099526739174648,0.5430585980582496,-0.9395372149843909,1.1241986237742816,-0.9458943691881909,0.5655190890633564,-0.3091805660749645,0.07270150761842069,1.0652428281651376,1.9937429696314999,0.43447159283062753,1.7619204099788062,-0.05195648153852991,0.4086566809780465,1.70182726162481,-0.07913140325217351,S_LF
0.6136757222609811,-0.18527867857215669,1.2701951949590553,1.227101611978511,2.0606865192111234,0.8420120644496261,0.5370279575182914,-0.8970094386712811,1.1103973804415659,0.5637127216183013,-0.864233495852476,1.1207746924981554,-0.9337926548748019,0.5655190890633564,-0.315455669001011,-0.4772814349166903,0.7539342810781977,1.3591016336687018,0.43365130137647845,1.761060753905903,-0.05237939164452278,0.40868434837977435,1.680722286434492,-0.08890952064095073,S_LF
0.6444964043586097,-0.21577756692021838,1.2328776453781904,0.7015289962477799,1.2702544763149226,1.5223034490760148,0.5367551178679939,-0.8955306380378177,1.1105562241403815,0.49015905865449677,-0.8816106721638132,1.0997718309733313,-0.9389789015471985,0.5774797385772608,-0.2994828496673598,-1.1118772124475125,0.02754753073931656,0.8037897935344118,0.4327155614954489,1.7606671112352268,-0.052574987568544146,0.4222852381803993,1.7296552793706574,-0.07135689039709037,S_LF
0.6042960873996848,-0.2106944188622078,1.262279287946377,-0.0754045359184718,0.940907947574067,1.9363936717976136,0.5367214446200145,-0.8939583751079688,1.1109886474962083,0.5342869490034653,-0.8578022626762976,1.110558635789687,-0.9493521030086871,0.5680823353386445,-0.2835102639911007,-0.03400563952835668,0.1728249297448036,0.5129123196965731,0.4319479307272451,1.7609254815104816,-0.052350316574735566,0.3937318047825406,1.7561783545564769,-0.0478303550567167,S_LF
0.6217161149746057,-0.19951124328705241,1.2515363043712704,-0.4181693022277436,0.34808387944824887,1.9068159371283002,0.5362836923962775,-0.8930656791555768,1.1114241416441037,0.528981057574629,-0.866697097744533,1.1100921160960329,-0.9528098368291832,0.5954207128481174,-0.3011941564081389,-0.03400563952835668,0.4841334768317434,0.8037897935344118,0.4326770786864888,1.761434105717266,-0.05261992176730624,0.46775222662479055,1.7588857237935887,-0.07486583465280947,S_LF
0.6136757222609811,-0.21577756692021838,1.2786764246463374,-0.7837852106142014,-0.3106091780334622,1.2856802155756595,0.5359625014155476,-0.892860411495291,1.1118319986633827,0.5474470070432297,-0.8715692440901226,1.116616424667203,-0.9372503886952981,0.5723539458891487,-0.2977715429265806,-0.6676602235973097,0.5463951590615143,-0.14817288590673572,0.4317676691484319,1.7613285932488374,-0.05295296347577529,0.40927278677749923,1.7252738725372192,-0.06843848221446011,S_LF
0.6083160093216308,-0.19951124328705241,1.2566251348215216,-1.0122948352985792,-0.7497379309594936,1.1673688894281635,0.5351914703784729,-0.8927861657458259,1.1121178614886678,0.5367361533113371,-0.857485026959087,1.111292414973314,-0.9528098368291832,0.5791884527837089,-0.2937783380931678,-0.6253540416402881,0.44262559805317253,-0.2010595513208105,0.4312950732489222,1.7616863887347272,-0.05316706171693408,0.4272883141904133,1.7532094589639546,-0.062237853447028396,S_LF
0.6190359840700641,-0.2137442244145033,1.284895900445796,-0.6695302485980557,-1.2766925782854033,0.9603235843322431,0.5351439824646556,-0.8935129006111784,1.11251538948008,0.5555225755208911,-0.8776281841105661,1.120000503902593,-0.9994867649974504,0.5544129716182921,-0.29663059388026375,-1.0907243985758652,-0.7611008474541013,-0.8357017533053398,0.4299076667153611,1.7611574736686293,-0.05331508025403157,0.3991370703396236,1.752015446606093,-0.0519219264202598,S_LF
0.5587355086316766,-0.24119330721026952,1.2865921000643115,-0.8066359336043083,-1.1229974069002884,1.3448360723845285,0.5346820545757027,-0.8932875429245667,1.1127970648616354,0.542622686211685,-0.8339029647188374,1.109886167437962,-1.0202324598037327,0.5732081280267566,-0.2983419006210429,-1.5560940627442832,-0.8856243478517287,-0.624154294909048,0.4292034988250915,1.7612589279651953,-0.05346045560296651,0.44856387130448444,1.7873288999332666,-0.05432097921718256,S_LF
0.6994366179879141,-0.2594925569365959,1.2871576543336198,-0.6238280542480579,-1.1010409333003188,1.7885042235105622,0.5337098474673644,-0.8953594360743452,1.1132621502785545,0.5089790788126981,-0.9495873823340377,1.1146360847967687,-1.0029444988179466,0.5638107247881404,-0.29720118523211825,-1.7887793104887877,-1.2176868343279539,-0.2539466324253163,0.42778571112656194,1.7606691403211583,-0.05351331936621585,0.4205388177981607,1.7651442041085308,-0.05402043853712862,S_LF
0.6645965628380722,-0.21882737247251344,1.325040526589088,0.1988072531811126,-0.8814766287446391,0.014230713355838028,0.5350904506345341,-0.8967561296436943,1.1138054013117622,0.5905583440741231,-0.9276832610773813,1.13775500607901,-1.018503946951832,0.5791884527837089,-0.27894670146322553,-1.5349411103192043,-0.8026087262326722,0.5922426815468125,0.42713487905923686,1.7617438795027813,-0.052950320287612755,0.44477073800905836,1.830442427233366,-0.03234987371217644,S_LF
0.6565561701244477,-0.23001054804766882,1.3126013433954664,0.49587009455350883,-0.2008269538482864,0.014230713355838028,0.5362215264000071,-0.8973326260513057,1.11417277970832,0.5682062318785398,-0.9189230108588717,1.1295192892409758,-0.9925720054731528,0.6014010376050696,-0.2880738265189758,-1.0061112033412314,-0.5535618613755033,0.43358230425502636,0.4276533842746991,1.7627692442600758,-0.05283402000846502,0.48724289892007433,1.8217488609048111,-0.0527892762776088,S_LF
0.6525362482025017,-0.21171088190878823,1.2786764246463374,0.7700819135878847,0.1724325220925083,1.5518811837453281,0.5371358845951495,-0.8972426576725421,1.1146713646750774,0.5456447786183029,-0.902373443980588,1.1201780266295092,-0.9614538173220765,0.6116526229812937,-0.28693287747265894,-0.7945791851286695,-0.5120539825969325,0.8566768746389176,0.4284946049758267,1.7636633947938112,-0.05277058349256589,0.49446476558573005,1.8136758314041312,-0.059290445725094454,S_LF
0.6471765352631513,-0.21882737247251344,1.2792417473209414,1.1585486946384063,0.853082053174189,0.8420120644496261,0.5382047943643526,-0.8965377597923265,1.1149600191295157,0.5409772482137829,-0.8992447831882632,1.1182810137533419,-0.996029739293649,0.5911491022976133,-0.29434892944502233,-0.6676602235973097,-0.32526893590761985,0.8037897935344118,0.4289266926553785,1.7643654585260482,-0.052672785530555204,0.4721479694261435,1.7992965879863647,-0.0576506535935712,S_LF
0.6404764824366638,-0.19646143773475735,1.2707605176336587,1.1813997169764268,0.7872127761889521,0.6645448814932611,0.5395387730343196,-0.8956241003342033,1.1152509068872765,0.5511557036824799,-0.8878295409342556,1.1199893564786108,-0.9597245963534812,0.5766255564396527,-0.29035572461160947,-0.6465068555119353,0.006793604943839655,0.5393559468509991,0.4283946846999303,1.7645372544682336,-0.05261463539098115,0.42215904783593305,1.7617813382222551,-0.056234948811211403,S_LF
0.6150160621481182,-0.18527867857215669,1.2769799934331174,0.4044661548753836,0.6554740784038068,0.6645448814932611,0.5405696924724689,-0.8944824627512518,1.1155998605314235,0.5712688141207081,-0.867578890688515,1.1236275969807945,-0.8784710380969472,0.6116526229812937,-0.3017647477599934,-0.09652392683216751,0.2765944907531454,-0.17461623593420772,0.4291967474550985,1.764077328323801,-0.05345781241480397,0.4700796624433146,1.7205300937100376,-0.09341235819825221,S_LF
0.6257360368965518,-0.2106944188622078,1.2549289352030062,0.08455227619757115,-0.33256565163343177,0.1912986857217203,0.5403581554018266,-0.8943095138289684,1.1155568694424647,0.5228188491981929,-0.8727726423892933,1.1089609312474413,-0.9130469600685193,0.5902945702287732,-0.2835102639911007,0.05154837507388038,-0.44979230036716156,-0.4126071829214486,0.4291683917011278,1.7638236925823856,-0.05365340833882571,0.42407484670192047,1.7567316609587968,-0.05935108112545639,S_LF
0.6578965100115848,-0.23306035359996433,1.268498763745835,0.49587009455350883,-0.4862606792038748,-0.10448011398482224,0.5403460675692184,-0.8949515211919901,1.1154937786236028,0.5151490405618991,-0.9065473221772762,1.1110376963353212,-0.9821988040116643,0.5766255564396527,-0.3011941564081389,0.09385465401830416,-1.155425152098183,-0.14817288590673572,0.4295133867077701,1.7630830762174532,-0.053907154402421505,0.4412158142943625,1.7579297071421922,-0.06533289518723455,S_LF
0.6377963515321222,-0.18629514161873664,1.2831997008272806,0.3130622151972584,0.06265025476293086,-0.42983672585472665,0.5413657625913746,-0.8947252900259729,1.1156914259676476,0.5744028996894869,-0.8882306737006458,1.1274182785059346,-0.9804702911597634,0.5697906996138604,-0.3297169479364909,-0.15998367084936782,-0.07454092474708618,-0.04239912206772053,0.4298475795224233,1.7618642719347062,-0.05478733606051878,0.4500983998783678,1.6941495470263952,-0.0981551010352457,S_LF
0.6056358784170892,-0.20561127080419767,1.2645410418342007,-0.34961638488763885,0.743299685174341,-0.7551935508332643,0.5411352303552054,-0.893308506430298,1.115523928218457,0.5410168765634703,-0.8588745718361251,1.1128416282212374,-1.0236901936242286,0.5655190890633564,-0.30347605450077253,-0.03400563952835668,-1.0931633339303266,-0.09528622049266094,0.4300305416492336,1.7614665710921673,-0.05486398851722988,0.4383505511788353,1.7707444985572869,-0.05822800805788568,S_LF
0.6458361953760142,-0.2483097977739952,1.2775455477024253,-0.9208910452944109,-0.5301736264038139,-0.13405800364223255,0.5398901835965696,-0.8939164480965062,1.1154376668776238,0.5143495816812435,-0.9018796748890618,1.1101673612079128,-0.9908427845045571,0.5492871789301799,-0.3017647477599934,0.3053866722308661,-0.2837610571290489,-0.49193719836299543,0.42946477684382045,1.7608429653492748,-0.05503050937146441,0.38898785760822197,1.729743351228135,-0.05850218552039127,S_LF
0.6605766409161262,-0.2767753436163418,1.2605830883278608,-0.5324242642438894,-0.9693023793298453,0.30961012811028893,0.5380873697047311,-0.8951183557584351,1.1151855827650923,0.46888983418842306,-0.9125459611936217,1.0971006295016017,-1.0029444988179466,0.5749168422332046,-0.3000534410192143,0.8976761292512347,0.7746880845293979,-0.7299279375050207,0.4304734315207743,1.7618859155179738,-0.055276325870572955,0.4458835074102604,1.7734330432752432,-0.059838800650105634,S_LF
0.6672766937426137,-0.26050943639573054,1.2769799934331174,-0.4410203245657642,-0.156914136081552,-0.5185705110680303,0.5370348648512107,-0.8957341587392926,1.1149865396064707,0.5005994058254776,-0.9207171842126826,1.108263102506157,-1.0029444988179466,0.5706452316827005,-0.31488507764915646,0.3053866722308661,0.691672598848427,-0.04239912206772053,0.4310871310531378,1.7621381985354345,-0.055699235976565446,0.44917997710393714,1.7400706168976838,-0.07666116976786941,S_LF
0.6284161678010932,-0.2462764552682801,1.2526671813151824,-0.25821244520951364,0.7872127761889521,-0.22279161449392715,0.535956457499244,-0.8947191756701346,1.1146791812367063,0.48970074817549963,-0.8795350941242122,1.0993468354340108,-0.9943005183250533,0.5937119986416693,-0.31260341321391505,-0.32920910529995606,0.2558404154257744,0.9360068900804643,0.4319850632622066,1.7627476006768081,-0.055860470454475265,0.4915306713732212,1.7656249016512513,-0.08054183539102379,S_LF
0.6176961930526598,-0.22696032608281907,1.2854614547151044,-0.48672221956784845,0.5676484716332725,0.1912986857217203,0.5355566956065609,-0.8935705502519395,1.1148327208401307,0.5451761303089527,-0.8786690318769513,1.1168580450820167,-0.9804702911597634,0.5808971669901569,-0.31488507764915646,-0.09652392683216751,-0.03471417867807141,0.30136503450462754,0.43252787340964344,1.762397921534644,-0.05632302838290476,0.46069636436950234,1.7355715568195234,-0.08303579577112168,S_LF
0.6042960873996848,-0.12733070742832828,1.2933771301330779,0.1988072531811126,0.08460671398143323,0.014230713355838028,0.5379129595485282,-0.892704932161117,1.1154717247532928,0.6410577838641827,-0.8558385473689363,1.1440959395256731,-1.008131453607038,0.5894403880911652,-0.30746925933418534,0.11500816065711021,-0.15923759751284733,-0.17461623593420772,0.4336850582264433,1.7628727276425729,-0.056640210962399316,0.4843857335806625,1.7807093922330928,-0.07091662466402869,S_LF
0.6592363010289891,-0.22289405748394361,1.2888538539521353,-0.09825543851732682,-0.33256565163343177,0.9011679212584951,0.5380821892050421,-0.8933635356328427,1.1158416156160884,0.5469275310679755,-0.9126167493288673,1.1219362540770985,-1.077283297550183,0.5783342706461009,-0.284080621685563,0.28423358125235526,0.44262559805317253,-0.015955784510961447,0.43471261673937756,1.7654144959525413,-0.056056066378497006,0.47302387887596786,1.8620494671996763,-0.028192394304761885,S_LF
0.6619164319335307,-0.19544497468817693,1.2995968375272415,0.06170135863132041,0.43590977384812707,0.7828562076407569,0.5390880695613598,-0.8933565477975989,1.1164069205196063,0.5820494482074856,-0.9143069252987991,1.1333077412813195,-0.8767425252450463,0.5988377913297814,-0.3006237987136766,0.11500816065711021,0.7539342810781977,0.3278084884547073,0.43495094010013047,1.7649877115449868,-0.05663756777423678,0.44065976700109977,1.705713180221906,-0.08935769533927687,S_LF
0.6404764824366638,-0.21272776136792287,1.2899847308960473,-0.23536142287149311,0.08460671398143323,0.6941226161625745,0.5393660897113464,-0.8933058859920816,1.1167500117425317,0.5592932991422607,-0.896405392430089,1.1237187271718487,-0.9476228820400918,0.5996923233986214,-0.27096029179639985,-0.054217647887743727,-0.055468104473548316,0.40713885030494656,0.43524259928382797,1.766269417491605,-0.05618558259845707,0.449614557755468,1.8196257240657745,-0.03940730704993774,S_LF
0.6552163791070432,-0.17511238245613595,1.224396415690908,-0.32676536254961835,0.3041710760629817,0.7237005445670089,0.5386425465880896,-0.8927617083224727,1.1167614574220597,0.513519109309527,-0.8814961876487869,1.1071843105502814,-1.018503946951832,0.586022959678269,-0.2989124919728974,0.3053866722308661,0.23508661197457445,-0.09528622049266094,0.4362755588927566,1.7673428039492738,-0.05622787360905662,0.4748937903439674,1.8007164945740928,-0.05801973863925192,S_LF
0.6592363010289891,-0.20662773385077762,1.2769799934331174,-0.4638713469037847,0.34808387944824887,0.014230713355838028,0.5385208048453937,-0.8927119199963609,1.1169027138572103,0.547123088358826,-0.9065272218425768,1.1211966224958807,-0.9631823301739774,0.5920032844352212,-0.2949192871394846,1.1938210655915666,0.42187165866388704,0.08981799179876666,0.43764068590534067,1.7680239004602205,-0.05635738982901668,0.45991088008630054,1.7747440365735716,-0.06453936233902145,S_LF
0.6632567718206678,-0.21984425193164855,1.310905143776951,0.10740338833996577,0.2822146024630121,-0.19321368608949263,0.5393954458762519,-0.893015890829465,1.1172100722269749,0.5739962783622568,-0.9223470591785167,1.1318045111573225,-0.8819287719174433,0.5586845821687961,-0.29149667365792636,2.1668685156334693,1.0652428281651376,1.226884537122649,0.43746582542252216,1.7672021206580355,-0.056296596501280466,0.34948083238482397,1.6773607651567273,-0.06774249327117672,S_LF
0.6404764824366638,-0.22696032608281907,1.2945080070769899,0.7472308912498641,0.2602581288630426,-0.28194747130279624,0.5403624724849011,-0.8928848689186442,1.1172957752419774,0.5524065811552302,-0.8998923635366187,1.1219961714810027,-0.9528098368291832,0.5672278032698044,-0.2994828496673598,1.638037777334906,-0.07454092474708618,0.8037897935344118,0.43806737248889827,1.766572427657349,-0.05630716925393026,0.407038475384303,1.7275113010996992,-0.06653242158569574,S_LF
0.5908959817467098,-0.22289405748394361,1.321082573082749,0.8843368756040305,0.699387025603746,-1.1988615082241767,0.5422248621231652,-0.8917318761034218,1.1173535619654482,0.5922580556813802,-0.8682640499234823,1.1303709524332144,-0.9458943691881909,0.5697906996138604,-0.32857599889017414,0.9399824497616881,0.899211584927025,1.068223986626517,0.4386547416782889,1.7654652231008245,-0.05701025730514322,0.43423755572684763,1.6701496297116663,-0.10327483788318476,S_LF
0.5868755109550312,-0.20764461330991274,1.2543633809336978,0.3359132375352789,0.391996826648188,-0.6960376940243953,0.5423267452837198,-0.8903474112457492,1.1170559742977197,0.5302388269342814,-0.8405509319387298,1.106886953015557,-0.9666400639944736,0.583460063334213,-0.30518736124155166,0.2419272607419019,0.5256412196722288,0.1955913919086547,0.4391313883997947,1.7657005970688575,-0.057301008003013104,0.4519548150528416,1.7469509786490127,-0.0745046585723936,S_LF
0.6297559588184977,-0.21984425193164855,1.265106364508804,0.24450929785715367,0.6774304081891044,-0.13405800364223255,0.5422835744529763,-0.8895141118929294,1.1169582672773586,0.5262432555027269,-0.880731501002618,1.1111246462423823,-1.0012159859660457,0.5697906996138604,-0.2983419006210429,-0.18113677568322178,-0.242253178350478,0.8302335938931841,0.4389247964780089,1.7658230185867143,-0.0571080552671539,0.43308429744506804,1.7690953362184154,-0.05698630051134645,S_LF
0.6109961402261722,-0.2137442244145033,1.2831997008272806,0.4730190722154884,0.9189513301594255,0.5166554332062095,0.5429820784944025,-0.8883357881749482,1.1171469814081132,0.5546860727481353,-0.8705948148210046,1.1187806970333432,-0.9718263106668702,0.5962748949857254,-0.29206703135238865,-0.15998367084936782,0.08980930812574726,1.0153372519307036,0.43947773368043536,1.7666400638550595,-0.05693096166026958,0.4704454119978638,1.7920968817136482,-0.06038451925336148,S_LF
0.6324360897230392,-0.19951124328705241,1.268498763745835,0.4044661548753836,0.5237355244333334,0.9307456559278086,0.5434794064645645,-0.8876859194972774,1.1174063237564433,0.547054169489804,-0.8810111578332168,1.1177701830493585,-0.9908427845045571,0.5928574665728292,-0.29720118523211825,0.11500816065711021,0.13131705096623267,0.27492175375889405,0.4403162538335658,1.7674604909332903,-0.05696796629454367,0.4757670005350867,1.7920182221157483,-0.06242503229162333,S_LF
0.6310962987056348,-0.18832848412445172,1.2741529168706895,0.3359132375352789,0.6115612750185396,1.078635297949981,0.5442167642536597,-0.8869906298905219,1.117777052107985,0.5632509651958533,-0.8801337345272129,1.1227907041253324,-1.0340633950857172,0.5962748949857254,-0.30233510545445574,0.8553699472942132,0.5671492343888852,-0.015056789521927549,0.4422741511315352,1.769114872329294,-0.05704726193941731,0.5056957062432244,1.8179758894226479,-0.06146277485109957,S_LF
0.7007769578750512,-0.16291274383440013,1.209695478609463,-0.8294871056162857,0.5237355244333334,0.9899015127366774,0.5427049217610306,-0.8869993646845766,1.1178225556631818,0.5002711797117598,-0.9126569499982659,1.1071071146392049,-1.0392496417581143,0.5749168422332046,-0.2949192871394846,1.1726676975061925,-0.07454092474708618,-1.549673970731416,0.44346036683930484,1.770103037177848,-0.05718206453570246,0.45771773238835817,1.809829578758113,-0.047189728870285344,S_LF
0.6900569831266179,-0.18222887301986115,1.2492747820781516,-2.3605030578063944,0.32612754966295127,-0.5185705110680303,0.5405567412232455,-0.8873181846675738,1.1177661647542876,0.53178691702969,-0.9193285132632399,1.118002606839387,-0.9424366353676947,0.5757710243708126,-0.30518736124155166,-0.20229000521516433,1.0444890247139376,-1.100135946397445,0.44299317203578936,1.7700130810348924,-0.057800570565717066,0.4251066383419679,1.7192648171010867,-0.07726225112797766,S_LF
0.6525362482025017,-0.23509369610567943,1.2266579379840274,-1.6521231614152405,0.3041710760629817,-0.6664599593550817,0.5378162568876633,-0.8870657491193926,1.1171852267275117,0.46528451585270564,-0.8890827531063767,1.09285429702119,-0.951080615860588,0.5928574665728292,-0.2937783380931678,-0.8580388737244972,1.1897663285627649,-0.2539466324253163,0.44266370518013104,1.771085114768607,-0.05799880967790098,0.4553916461991866,1.7689091079396275,-0.06556225517990714,S_LF
0.6485163262805558,-0.19951124328705241,1.2532325039897858,-1.1494009693267024,0.6335177486185092,-0.34110313437654416,0.5367015860378724,-0.8865049753410799,1.1170699324434856,0.5272322412731935,-0.8891133405722235,1.1125640573640811,-0.9700977978149696,0.583460063334213,-0.29035572461160947,-1.2387967281925993,0.048301456534793466,0.11626132450580404,0.4418420634519834,1.7714801101632376,-0.05791687084486479,0.44120906614759964,1.7781331223258139,-0.05584213686973728,S_LF
0.6203763239572012,-0.1669790124332756,1.2617137336770683,-0.966593089970452,0.9628642773593646,0.1025650554965136,0.5366540981240551,-0.885220087135631,1.117246084243051,0.5687644747176189,-0.8641120199166845,1.1223595775028217,-0.9700977978149696,0.582605881196605,-0.3017647477599934,-0.9849583894695841,0.06905536873646181,0.3278084884547073,0.44131343118153155,1.7714246484811151,-0.05805960300563757,0.44884391939514473,1.7551026677475918,-0.0695404647079916,S_LF
0.6659363538554766,-0.17511238245613595,1.2357047219406179,-1.2179538866668072,0.19438885187780588,0.9603235843322431,0.5354669002786152,-0.8851868949182231,1.1174063237564433,0.5253119892850662,-0.8940623925462279,1.1126147781432,-0.9804702911597634,0.5920032844352212,-0.30461700354708937,-1.0484180780654118,-0.3667766787481052,-0.5977108409589682,0.441283050016563,1.7713279287183887,-0.05848251311163006,0.47547143170687184,1.768816329952361,-0.07312849861635652,S_LF
0.6042960873996848,-0.1812119935607265,1.2724567172521741,-1.0579968799746202,0.08460671398143323,0.7532784729714436,0.5353546561186827,-0.8845073279407663,1.1177089363566475,0.5710646419712303,-0.8567710281134643,1.122079777160869,-0.9631823301739774,0.5894403880911652,-0.30290569680631024,-1.1118772124475125,-1.362964138176781,0.30136503450462754,0.44097248699688507,1.7703106803048199,-0.058709827293601184,0.46110530206333394,1.756058012094733,-0.0737005804371611,S_LF
0.6029557475125478,-0.19951124328705241,1.327302280476912,-0.5781263089199304,-0.2008269538482864,0.7828562076407569,0.536614380959771,-0.8844811235586021,1.1183487777585552,0.6172816355374311,-0.8765383963988261,1.1394209885931466,-0.9787417783078625,0.5791884527837089,-0.2977715429265806,-0.7734263712570223,-0.8856243478517287,0.883120155384651,0.4404803121243957,1.7697810888767447,-0.05856973832099133,0.4422131903859192,1.7650480645999866,-0.062377578500036134,S_LF
0.5882158508421682,-0.23306035359996433,1.3216481273520573,-0.4181693022277436,-0.4862606792038748,1.137790961023729,0.5372964800855144,-0.8845448875552014,1.1188308921133086,0.5847071320941493,-0.8677886333114642,1.1279143388731416,-0.9891142716526566,0.5697906996138604,-0.29606023618580146,-0.4561282053847478,-0.6988391652243304,0.1955913919086547,0.43991724786697967,1.769416529771084,-0.05847194035898027,0.42582261671351157,1.7644261831636001,-0.056398400760012554,S_LF
0.6029557475125478,-0.2371270386113945,1.3844093659947687,-0.37246740722565946,-0.6399558505889896,0.8124341360451914,0.5392978797987724,-0.8853546029640736,1.1197127677627967,0.6480857855327079,-0.9000688969109342,1.1523389021892956,-1.0046737197865419,0.5894403880911652,-0.26582613791667026,-0.7734263712570223,-0.6988391652243304,0.6980164973471316,0.43959723292931147,1.770924816980033,-0.057541538125796564,0.4497326503238186,1.858672482924034,-0.0206999678774488,S_LF
0.6190359840700641,-0.2554262883377204,1.3561383687757897,0.8614858532660099,-0.5960429033890506,0.4870775048017749,0.5413200015107864,-0.8862691359016024,1.120231731622372,0.6001492661844072,-0.906291261391759,1.1379893806682353,-0.9649108430258778,0.5817513491277649,-0.278376110111371,-0.03400563952835668,-0.6158235436052742,1.3855449144144352,0.43932582785559293,1.7711852163412192,-0.056899243402319825,0.42540085754083024,1.7951155278210809,-0.041679816402627495,S_LF
0.6109961402261722,-0.2432266497159846,1.3470918164139039,1.8897808107592355,-0.003219050985240245,0.3983439133235925,0.5441986325047473,-0.8864185008799381,1.1207007253201056,0.6013803294823136,-0.8954327110161623,1.1369345556739214,-0.9873857588007557,0.5954207128481174,-0.29663059388026375,-0.18113677568322178,-0.22149937489927807,1.0153372519307036,0.440037422252855,1.7717073677875457,-0.056790872687659345,0.4791910102025822,1.7937198241865533,-0.06291275181627257,S_LF
0.6176961930526598,-0.2503431402797103,1.3431338629075646,3.0780318769009067,0.37004049686289037,0.1025650554965136,0.5476333037986814,-0.8863564838421495,1.121038791610555,0.5902301179604055,-0.9004560468357945,1.1340707824528997,-0.9268771872338095,0.586022959678269,-0.2892147755652926,0.3053866722308661,0.3803639158234017,0.9624501708261979,0.4400158178688773,1.771789883948753,-0.05668250197299849,0.42614382849942545,1.750848326418453,-0.06291011549451762,S_LF
0.6042960873996848,-0.24424311276256502,1.3052509906520964,2.552459261170176,0.2602581288630426,-0.34110313437654416,0.5500146068224797,-0.8858979071542771,1.1209891006116286,0.5548445861468861,-0.8768739845955448,1.1196836383758995,-0.9234201615300078,0.5800426349213168,-0.28636251977819666,0.45345900184760024,0.7331803416889124,1.3855449144144352,0.43974238738416094,1.7719954979897934,-0.05641818315675328,0.4094387911878665,1.7461684164955489,-0.05868672804323163,S_LF
0.5975960345731972,-0.2483097977739952,1.257190457496125,2.3925012067602913,-0.2447399010482255,-0.8439271423114468,0.5509332821006966,-0.8854777635602452,1.1204257498485177,0.49756611410264373,-0.8563961131749428,1.0987027930134405,-0.9994867649974504,0.5911491022976133,-0.28864441787083034,0.9399824497616881,0.15207099035551813,0.6980164973471316,0.44104000069681515,1.773154106056578,-0.05611950289439577,0.46909645745996015,1.8129208337251455,-0.050073864870102784,S_LF
0.6337764296101763,-0.22797720554195375,1.2741529168706895,1.8212271450493465,-0.3106091780334622,-0.9622388559291849,0.5521144360298323,-0.8857721261198891,1.1201239747370595,0.5292127972717152,-0.8881135674028325,1.1130595603600892,-0.9856565378321605,0.5749168422332046,-0.29434892944502233,1.341893395208301,0.33885617298291626,-0.015955784510961447,0.441888647904935,1.7735923886177432,-0.05610893014174598,0.433549244757032,1.7714605025894505,-0.056050406288371046,S_LF
0.6176961930526598,-0.21781090942593348,1.2894191766267387,0.6101250565696547,-0.420391402218638,-0.5777261741417782,0.5528112132380283,-0.8859677855067148,1.120063675547351,0.5574006147017424,-0.8786192180040009,1.1207303814878262,-1.0236901936242286,0.585168777540661,-0.2795170591576878,0.47461250848640635,0.15207099035551813,0.08981799179876666,0.44260496826119206,1.7752677372350376,-0.05561729714352964,0.46005596524170295,1.8407508683837595,-0.0333674939095526,S_LF
0.6310962987056348,-0.26355924194802605,1.259452211383949,1.0442937326222606,-0.420391402218638,-0.16363587392613074,0.5523078413515622,-0.8862935933249556,1.119639906241899,0.4826813613656018,-0.8864609703195123,1.0980428655136956,-1.008131453607038,0.5723539458891487,-0.278376110111371,0.2207737541030959,-0.6158235436052742,0.22203467265438823,0.4424550878473474,1.77584467400151,-0.055080729946551214,0.42535834421622387,1.8151959113259364,-0.03204933303212249,S_LF
0.7195373253371093,-0.24221018666940464,1.2600175340585529,1.0899957772983015,-0.727781457359524,-0.22279161449392715,0.552043635867413,-0.8882859998488363,1.119431650707072,0.4894000896093909,-0.9552582985020253,1.1091158804407937,-0.9908427845045571,0.5749168422332046,-0.30347605450077253,-0.18113677568322178,-0.6365774829945596,0.9624501708261979,0.4423801476404251,1.7752433882038618,-0.05507280038206396,0.4433536271888493,1.7579297071421922,-0.06614488228773151,S_LF
0.6820165904129931,-0.2045948077576177,1.2888538539521353,0.8157839582639257,-0.44234787581860757,0.04340929555520508,0.5529571306459408,-0.889446853978708,1.1196616809492936,0.5594587044279136,-0.9284427041579763,1.1279806660458356,-0.9908427845045571,0.5774797385772608,-0.25783996190723685,0.2207737541030959,-0.15923759751284733,0.46002558500075985,0.4419507605088706,1.776819311610521,-0.054071032068493494,0.41175273071286506,1.8480231835160754,-0.010700399461263459,S_LF
0.6431560644714726,-0.2086610763564927,1.2679334410712315,0.6101250565696547,-0.13495766248158245,-0.25236954289836167,0.5531988872981031,-0.8895534184661755,1.1195874236138192,0.5371600043558227,-0.8908708089670183,1.1159528742546638,-0.9839280249802596,0.5467242825861238,-0.284080621685563,0.28423358125235526,0.4011178552126871,0.43358230425502636,0.44066664993620236,1.7768781551025294,-0.05363226283352612,0.36576141126499645,1.7539799196408183,-0.037791241814208267,S_LF
0.5520354558051892,-0.20357792829848256,1.262279287946377,0.5415721392295499,-0.09104481595191372,-0.22279161449392715,0.553621961439387,-0.888096454817849,1.1193730264948554,0.547770064241771,-0.814420496829648,1.1087650152709545,-0.9839280249802596,0.5723539458891487,-0.29720118523211825,0.11500816065711021,0.5256412196722288,0.08981799179876666,0.44056807993430447,1.7771784598203653,-0.053711558478399764,0.42978175441930494,1.7615682177732446,-0.05926408250754573,S_LF
0.6431560644714726,-0.21781090942593348,1.258321334440037,0.38161513253736307,-0.44234787581860757,0.13214292578041179,0.5533102680414205,-0.8884755448798237,1.1192574530479138,0.5182908795034429,-0.8891019795134804,1.1097214642486255,-0.9251486743819087,0.585168777540661,-0.3006237987136766,-0.11767705937670783,0.11056311157694723,0.06337422608086365,0.44037499075250486,1.7764615161246313,-0.05415032771336713,0.43326987148104795,1.7263650223439813,-0.07704607274407906,S_LF
0.6257360368965518,-0.2432266497159846,1.262279287946377,0.15310522347246724,-0.6619121803742873,0.0729871852126154,0.552520241838819,-0.8888607492976366,1.1190145813115875,0.5037800116308456,-0.8800262414329515,1.1038908041347466,-1.0046737197865419,0.5723539458891487,-0.2875034688245135,-0.32920910529995606,-1.3214563953362957,1.0946672673722504,0.4399915129369025,1.776099662466879,-0.05367984022045038,0.4311428556213819,1.7953683142211687,-0.04379414645002526,S_LF
0.6485163262805558,-0.21882737247251344,1.2713258403082623,0.6101250565696547,-1.2766925782854033,0.014230713355838028,0.5526937885784067,-0.8901430170648689,1.1189897358121244,0.5317111062737656,-0.8977914415967446,1.1151441286447565,-0.9839280249802596,0.5817513491277649,-0.2880738265189758,-0.20229000521516433,-1.3214563953362957,0.11626132450580404,0.4399226489629741,1.7756519108380344,-0.05356882631762736,0.44195001266216605,1.7907079011216758,-0.0501872267055618,S_LF
0.6672766937426137,-0.21781090942593348,1.3256058492636915,0.3587641101993426,-0.8595201551446695,0.4574995763973404,0.5538524936755556,-0.8916681121068223,1.1195251702837032,0.5917092891867917,-0.9298602147180743,1.138402950097974,-1.035791907937618,0.5706452316827005,-0.28293967263924613,-0.22344309619367508,-0.8026087262326722,0.30136503450462754,0.4397680425901343,1.7763100110417593,-0.0530692637549234,0.4378910023842817,1.8246384245951777,-0.03243950865184167,S_LF
0.6444964043586097,-0.1923951691358819,1.2905500535706507,-0.05255361835222105,-0.6619121803742873,0.04340929555520508,0.5543446411460292,-0.8922900294435181,1.1197794876995575,0.5766668845368619,-0.8969148922183363,1.1292985702461287,-0.9407081225157943,0.582605881196605,-0.2795170591576878,0.09385465401830416,-0.15923759751284733,0.3278084884547073,0.4394176464874978,1.776407407166463,-0.052871024642739115,0.41704732666303634,1.775767283650523,-0.047632630925101976,S_LF
0.5681156923627058,-0.18629514161873664,1.3137322203393782,0.01599932892267505,-0.2886527044334926,-0.13405800364223255,0.555707975980901,-0.8915126327726485,1.1201047124959025,0.6180759255029104,-0.8423118960439071,1.1349503142050936,-1.016775434099931,0.585168777540661,-0.28293967263924613,0.009242096129456579,-0.22149937489927807,-0.4126071829214486,0.4398666125920322,1.7775308444104378,-0.05266485596606795,0.4596713208762178,1.8291247108924824,-0.03877195350701628,S_LF
0.6699568246471553,-0.18731202107787176,1.2894191766267387,-0.4410203245657642,-0.4862606792038748,0.28003239344097547,0.5558219469740632,-0.8924088226426622,1.120447803718828,0.5763757023152436,-0.9164323172113504,1.1317863965933515,-1.032334174117122,0.5902945702287732,-0.2778057524169087,-0.07537078043228404,-0.40828455752667614,-0.5448242794675011,0.4405194700703551,1.7790526588589288,-0.05233445744576106,0.47331472400144886,1.8568552445212747,-0.03079708019856384,S_LF
0.6632567718206678,-0.21476110387363798,1.284895900445796,-0.4638713469037847,-0.2886527044334926,-0.10448011398482224,0.5553600190851103,-0.8930508300056839,1.1205189902622337,0.5487581885263745,-0.9134574676758551,1.1226279517351927,-0.9752840444873664,0.587731673884717,-0.29263738904685094,0.4957655994649171,-0.0762220397846912,-0.7828150186095265,0.4411892059736603,1.77930020734255,-0.05261992176730624,0.4543962945516589,1.7829394254487616,-0.058610274712340385,S_LF
0.6485163262805558,-0.23611015915225939,1.303554791033581,-0.6009771815839942,-0.11300127517041608,-1.0509724474073676,0.554894637529698,-0.893463985764472,1.1204134666802437,0.553903843584735,-0.9105053402578458,1.1238742337364003,-0.9994867649974504,0.5988377913297814,-0.3017647477599934,1.1515146065276818,0.5671492343888852,-0.7034846567592872,0.443143052449634,1.7802924303629661,-0.05306397737859831,0.49577795494579024,1.7968386436280634,-0.06763967672273713,S_LF
0.7007769578750512,-0.23102701109424925,1.2945080070769899,-0.8066359336043083,0.238301799077745,-1.258017558768167,0.5540079086662316,-0.894325236458267,1.1202844934133669,0.5411564372732403,-0.9489931115690151,1.12480030598372,-1.008131453607038,0.5749168422332046,-0.2994828496673598,-0.03400563952835668,0.9614732671567959,-0.8621446876423808,0.44324702354752604,1.7811818463628621,-0.053346798511980945,0.44770415740689096,1.7783529658173798,-0.058220099092621214,S_LF
0.6243962458791472,-0.20764461330991274,1.2769799934331174,-0.21251040053347262,0.4139533002481576,-1.672107781489766,0.5538386790097183,-0.8936019955105364,1.119947543774579,0.5509455011319626,-0.8784715242403409,1.1186622556535324,-0.9752840444873664,0.5800426349213168,-0.28864441787083034,-0.03400563952835668,0.6501647200698562,-0.015056789521927549,0.4430944425856843,1.7818440047384496,-0.05330979387770686,0.43494476150759964,1.7810206691034136,-0.05207219676028696,S_LF
0.6498561172979602,-0.21679402996679834,1.2656716871834075,-0.1211066105293042,0.5237355244333334,-1.2284396303637326,0.553275731376826,-0.8931949541075866,1.1196239939557258,0.5267377483879605,-0.8967663245270806,1.1134277040371006,-0.9770125573392673,0.5843142454718209,-0.28636251977819666,-0.03400563952835668,0.712426402299627,-0.09528622049266094,0.44310186909267657,1.7827956460402394,-0.053246357361807724,0.4428394184055164,1.792067300326404,-0.04988668602550748,S_LF
0.6364560116449851,-0.20052812274618753,1.2826343781526772,-0.09825543851732682,0.9189513301594255,-1.317173415577036,0.5534363268671909,-0.8922542167878937,1.1194732459814545,0.5618148682626061,-0.8890259478126614,1.1235320078201474,-0.9700977978149696,0.5697906996138604,-0.2880738265189758,1.088055056485286,0.7539342810781977,-0.06884245477475792,0.4432152921085589,1.7831804960052131,-0.05318292084590896,0.4106392864969865,1.7653364831256186,-0.050089682800631724,S_LF
0.6632567718206678,-0.2137442244145033,1.2803726242648532,-0.18965952786940893,1.0506898841298988,-0.9326609275247504,0.5531824823824204,-0.8917371169798546,1.119370234865702,0.5444412828680049,-0.9118800283657583,1.121049476499316,-0.9804702911597634,0.5732081280267566,-0.2846512130374175,0.9611359564004941,0.9199655243163105,0.08981799179876666,0.4434698187572949,1.7840935846743076,-0.05297939535739997,0.4196764046418622,1.783898803621436,-0.04479067607336258,S_LF
0.6860365123349391,-0.23306035359996433,1.2865921000643115,-0.1211066105293042,0.43590977384812707,-0.31152520597210964,0.5527326423260758,-0.8921747301619959,1.119370234865702,0.5322633187118051,-0.9349569604557387,1.1201780266295092,-0.9908427845045571,0.5894403880911652,-0.2892147755652926,1.0245953678894584,1.0652428281651376,-0.17461623593420772,0.44461417597110814,1.78548418489924,-0.05298203854556251,0.4621283211125897,1.8032820076132825,-0.05197201653360231,S_LF
0.6337764296101763,-0.18832848412445172,1.2820688238833686,0.17595633561486188,0.1724325220925083,-0.4002589911854132,0.553339624206326,-0.8918393140702947,1.1194715710039624,0.571919235947104,-0.8849001356337325,1.126183143928709,-0.9821988040116643,0.5680823353386445,-0.28065800820400466,1.0245953678894584,0.5671492343888852,-0.14817288590673572,0.4446216024781004,1.7861395796550568,-0.05270979016482967,0.4064655577241329,1.7862337163009712,-0.038495139722756117,S_LF
0.6632567718206678,-0.22594386303623865,1.2611484110024649,0.3587641101993426,0.21634532547777544,-0.4002589911854132,0.5528871939001366,-0.8919231680932201,1.119249636486285,0.511935698293745,-0.9075304907223501,1.1101453450455478,-0.9631823301739774,0.5800426349213168,-0.30461700354708937,0.9399824497616881,0.7539342810781977,-0.09528622049266094,0.4456214803740634,1.7862971719957228,-0.053145916211634496,0.44279218137817594,1.7412821091661903,-0.07369794411540653,S_LF
0.6552163791070432,-0.23407681664654428,1.2939426844023865,0.24450929785715367,0.5237355244333334,-0.25236954289836167,0.5530616040563395,-0.8916017276720064,1.1192535447670993,0.5438270434478454,-0.912568683311108,1.1209444120282839,-0.9597245963534812,0.5680823353386445,-0.28293967263924613,0.28423358125235526,0.11056311157694723,1.2004410831725696,0.44490988597680153,1.7861767795637975,-0.05270450378850458,0.39803509797324205,1.7650884028553198,-0.045275759276256884,S_LF
0.6471765352631513,-0.2015445857927675,1.2871576543336198,0.5415721392295499,-0.2886527044334926,0.04340929555520508,0.55382659117711,-0.8919773238163593,1.1194436547124307,0.564674139841159,-0.8992989666991916,1.1258110986533039,-0.9891142716526566,0.5492871789301799,-0.2892147755652926,0.05154837507388038,-0.1799915369021328,1.1211107213223304,0.44363927814411924,1.7855754937661497,-0.052257804989049965,0.3777144036261213,1.7516322331804275,-0.04367814829281167,S_LF
0.6418162734540681,-0.2045948077576177,1.2815035012087652,0.8157839582639257,-0.2227834274482559,0.014230713355838028,0.5546416564615426,-0.8921712362443739,1.1195558782043882,0.5563513249208814,-0.8935834802238273,1.1224083474827438,-0.9977582521455495,0.5894403880911652,-0.29206703135238865,-0.2869027847895027,0.06905536873646181,0.30136503450462754,0.4439599682187867,1.7861930122512484,-0.052218157166612954,0.46748365038362694,1.8028792973642065,-0.05419707209470413,S_LF
0.6619164319335307,-0.2208607149782285,1.2792417473209414,0.3359132375352789,-0.17887062406298876,0.5166554332062095,0.5546364759618536,-0.8926717399437092,1.1196912722183174,0.5372935346645531,-0.9114526777714994,1.118722451743036,-0.9821988040116643,0.5766255564396527,-0.3000534410192143,-0.32920910529995606,0.7746880845293979,0.8566768746389176,0.4436878880080689,1.7864601752322053,-0.05224458904823763,0.44027377300626186,1.760109317538695,-0.06395409890944251,S_LF
0.6042960873996848,-0.21882737247251344,1.2831997008272806,0.22165827551913314,-0.02517551451818277,0.014230713355838028,0.5548298812835835,-0.8921231948770729,1.1196915513812327,0.5513004333074263,-0.8659507635778723,1.1170731903648727,-0.9700977978149696,0.5740626600955967,-0.2977715429265806,-0.3926687938957837,0.5879030378400851,0.5657994008010789,0.44312212320265576,1.7864277098573045,-0.05231595512862364,0.4276405674514368,1.752241340835959,-0.06282838952011724,S_LF
0.6391361425495267,-0.19951124328705241,1.2724567172521741,0.26736017052121736,-0.2447399010482255,0.4870775048017749,0.5550474622705293,-0.8922184041322695,1.1198473242879798,0.5506844709155413,-0.8877404003195021,1.1198277188308692,-0.9977582521455495,0.5791884527837089,-0.2909260823060718,-0.7099665441077628,0.5048874162210288,1.1475545216811025,0.4427224420990701,1.7871121881781369,-0.052027847618916295,0.4450784535014465,1.7923012622073362,-0.05063540140388795,S_LF
0.6150160621481182,-0.20764461330991274,1.2707605176336587,-0.18965952786940893,-0.5082171528038443,0.5758110962799575,0.5547737592036172,-0.8921397909857771,1.1199240940896922,0.5451166877844207,-0.8688399682089967,1.1155055838673789,-0.9441651482195956,0.5766255564396527,-0.29035572461160947,-1.0272645714266058,-0.3045149965183344,0.9624501708261979,0.4414707381023684,1.7863688663652963,-0.05193533603323033,0.4150957626192057,1.7500160137500782,-0.05905844941066691,S_LF
0.6699568246471553,-0.22594386303623865,1.265106364508804,0.26736017052121736,-0.5301736264038139,0.8124341360451914,0.5542885190660629,-0.8930185112676814,1.1199910931893684,0.5156228577864257,-0.9142265239600019,1.1121964710582688,-1.0219616807723282,0.5843142454718209,-0.29263738904685094,-0.6676602235973097,0.06905536873646181,-0.015955784510961447,0.44158821194024644,1.7871784716518933,-0.05187454270549373,0.46785344882623403,1.8132166475975886,-0.04946223822297511,S_LF
0.6404764824366638,-0.2320434741408292,1.2634101648902887,0.08455227619757115,-0.5082171528038443,0.9307456559278086,0.553593468691096,-0.8933600417152208,1.1199866265827232,0.5124922181610986,-0.8906654359820473,1.1080869732072385,-1.016775434099931,0.5800426349213168,-0.2989124919728974,0.2630803517204127,0.6709185235210561,0.3806955695592131,0.44221608934959544,1.7879941641962844,-0.05187982908181881,0.46168766712897225,1.7921056216689704,-0.05706802648574721,S_LF
0.6310962987056348,-0.20764461330991274,1.292246253189166,0.4044661548753836,-0.8375636815446998,0.6645448814932611,0.5542867922328333,-0.8939810855725111,1.1202830975987905,0.5674153878565121,-0.8888459187279634,1.1252849402413452,-1.0720970508777858,0.5817513491277649,-0.28065800820400466,0.28423358125235526,0.7746880845293979,0.30136503450462754,0.4431167221066613,1.7904195982461903,-0.05126925261629183,0.4752230999059969,1.8691637908319378,-0.0256298895590376,S_LF
0.6069756694344937,-0.23915996470455442,1.268498763745835,0.7472308912498641,-0.9693023793298453,-0.015746483759615536,0.5542453482353195,-0.8942571050646401,1.1200477632611778,0.5169736676192586,-0.8663047042540989,1.1062247960310154,-0.9891142716526566,0.5672278032698044,-0.3006237987136766,0.1573143426141318,0.3596099764341162,0.3806955695592131,0.4428804241569062,1.79012740987208,-0.05137762333095231,0.4242678436993393,1.752634638825457,-0.06135204933739513,S_LF
0.6284161678010932,-0.20561127080419767,1.2809379469394566,0.3587641101993426,-0.9693023793298453,-0.34110313437654416,0.5546537442941509,-0.8947995357754379,1.1200502757274156,0.5566433686283621,-0.8827153166446787,1.121043345416126,-0.9908427845045571,0.587731673884717,-0.2932079803987055,-0.03306450910829899,-0.3875306181373907,1.279771618227155,0.44327132847950085,1.7901368789397598,-0.051176741030605856,0.46176054711401165,1.7934246826183655,-0.05647485409090379,S_LF
0.6136757222609811,-0.21577756692021838,1.2554942578776096,0.4730190722154884,-0.7716944045594633,-0.19321368608949263,0.5544499779730424,-0.8948353484310623,1.119800145755291,0.5208374317138081,-0.8639232515560303,1.1071271800023728,-1.0876557908949767,0.5714994138203086,-0.29606023618580146,-0.2445961871721859,-1.1346712127088976,0.9360068900804643,0.4437304216390248,1.7905535179176577,-0.05073004223115123,0.47261089229407843,1.83828956250418,-0.03939148911940842,S_LF
0.6753165375865057,-0.21679402996679834,1.2747184711399981,0.6101250565696547,-0.5082171528038443,-0.22279161449392715,0.5545941685477253,-0.895733285259887,1.119785070957864,0.5337648885706233,-0.9202976989667843,1.1187578448141795,-1.009859966458939,0.5680823353386445,-0.2795170591576878,0.009242096129456579,-0.8856243478517287,0.9095636093347309,0.4432625516985101,1.7905007616834434,-0.05014061127092384,0.4181580716202096,1.808863477542883,-0.03225232980724674,S_LF
0.6672766937426137,-0.2208607149782285,1.2905500535706507,0.3587641101993426,-0.3106091780334622,-0.13405800364223255,0.5548704618644821,-0.8964460444547518,1.1198838946298864,0.5495292183735588,-0.9193459918151525,1.1236434820599692,-1.0046737197865419,0.5800426349213168,-0.2835102639911007,0.19962066312458512,0.006793604943839655,-0.280390086375396,0.44345699115430826,1.7911778000225274,-0.049995235921988526,0.44398322928182776,1.8126613242825018,-0.04054356172628243,S_LF
0.6766568774736428,-0.22289405748394361,1.291115607839959,-0.4181693022277436,-0.2886527044334926,-0.6368820309506472,0.5544352998905899,-0.8972854581634101,1.1198802655119873,0.5472368044927124,-0.9273730167809356,1.1239589541586648,-1.0288764402966257,0.5783342706461009,-0.3006237987136766,0.5380719199753704,0.8577038420865395,-0.2539466324253163,0.44430631349942734,1.792120648618615,-0.05016968634071068,0.4647877657518486,1.795610343753168,-0.05659612489162727,S_LF
0.6485163262805558,-0.18731202107787176,1.2735875941960861,-0.02970250620982642,0.6115612750185396,-0.7551935508332643,0.5546174807963267,-0.8966364629651448,1.1198517908946248,0.5611222336289341,-0.8939470341036059,1.1239709376394458,-0.9718263106668702,0.5569758679623481,-0.28864441787083034,0.41115268133714694,1.2105199960758795,0.5393559468509991,0.4434340364963322,1.7923107063341819,-0.049992592733826356,0.3852102450503507,1.7494304367434916,-0.047690630003708954,S_LF
0.6364560116449851,-0.20662773385077762,1.2933771301330779,-0.16680835585743156,1.204385199329686,-0.9326609275247504,0.5548462861992656,-0.8955332584760342,1.119847603450895,0.5688463158745829,-0.8933824768768344,1.1263461750044486,-0.9441651482195956,0.5979836091921734,-0.2835102639911007,0.19962066312458512,1.0444890247139376,0.724459778092865,0.44383979383291133,1.7932582894641087,-0.04992122665343997,0.4546918633798738,1.7902023283215,-0.055304327231745526,S_LF
0.6123359312435767,-0.2106944188622078,1.2718913945775707,-0.006851588643575686,1.401993030285396,-0.42983672585472665,0.5547003687913536,-0.8936849760540563,1.1197096969707283,0.5441905904819371,-0.8674993632773134,1.1150290314921407,-1.0029444988179466,0.587731673884717,-0.30290569680631024,-0.18113677568322178,0.8161959633079687,1.0946672673722504,0.4443758526103552,1.7938446952982607,-0.05000052229831361,0.4748991888613777,1.7836372772660254,-0.06601570252174319,S_LF
0.6136757222609811,-0.2025614652519026,1.2882885312775318,-0.05255361835222105,1.1604722521297468,-0.5481484394724647,0.5550327841880768,-0.8922655720201649,1.119733146655615,0.5695803018296677,-0.8727822555928453,1.1238014967949166,-0.9597245963534812,0.5740626600955967,-0.2937783380931678,0.05154837507388038,0.2558404154257744,0.5393559468509991,0.44395524225979155,1.7934179108907062,-0.0500613156260502,0.41964198909337147,1.7520463726018483,-0.059851982258879624,S_LF
0.6230559059920101,-0.1903618266301668,1.2735875941960861,-0.14395748319336785,0.743299685174341,-0.6073041025462128,0.5551225795160224,-0.8911946862690567,1.1196901555666559,0.5619621823451404,-0.873724349540925,1.1215140453937733,-0.9994867649974504,0.5766255564396527,-0.29035572461160947,-0.18113677568322178,-0.3460227393588198,0.7773465127886783,0.4437837574619694,1.7933516274169499,-0.049852503761216124,0.44003421379617885,1.7914682772347064,-0.04908788053378487,S_LF
0.6096558003390352,-0.2015445857927675,1.3041201137081844,-0.16680835585743156,0.4798225772333943,-0.5185705110680303,0.5557295613962727,-0.8903980730512667,1.1198395077263508,0.5888362338344342,-0.8746000249917378,1.1301513481807655,-0.9821988040116643,0.583460063334213,-0.3000534410192143,-0.6042005350014821,-1.0516555910898413,0.1955913919086547,0.4436311765001277,1.7923566989486253,-0.05010889301297408,0.45456297377670246,1.7685050530820399,-0.06543834805742871,S_LF
0.6578965100115848,-0.2106944188622078,1.2939426844023865,-0.18965952786940893,0.3041710760629817,-0.9030828053851947,0.5558055420583811,-0.8905308419208984,1.1198534658721169,0.5632190902189308,-0.9114194685228658,1.1269525948690793,-1.0876557908949767,0.5868774917471091,-0.2932079803987055,-0.2445961871721859,-0.49130017914573254,0.40713885030494656,0.44467223775304787,1.7936586957545564,-0.04978642405715482,0.5020591299526976,1.862654541029674,-0.03905403993478634,S_LF
0.6793364595084517,-0.20764461330991274,1.2809379469394566,-0.18965952786940893,0.4798225772333943,-0.9030828053851947,0.5555784634886712,-0.890769301798592,1.119804612361936,0.548152563964843,-0.9242181381607422,1.1238405127788542,-1.0133177002794351,0.5971290771233333,-0.29206703135238865,0.09385465401830416,-0.6988391652243304,0.27492175375889405,0.4456930448959891,1.7939819967796133,-0.04977585130450503,0.49047121233144575,1.8238901499587472,-0.05299754569624294,S_LF
0.6297559588184977,-0.20561127080419767,1.2679334410712315,-0.25821244520951364,0.6115612750185396,-0.6960376940243953,0.555151935680928,-0.8899630803073417,1.1196276230736248,0.5415785653460004,-0.879551698748529,1.1158352689316517,-0.9631823301739774,0.5843142454718209,-0.2977715429265806,0.3053866722308661,-0.6365774829945596,0.3806955695592131,0.4459556731887169,1.7930533517850455,-0.05000580867463869,0.446052211079333,1.759704590376852,-0.06633733377583634,S_LF
0.6552163791070432,-0.19341163218246185,1.296769760964814,0.0388504350781114,0.45786624744809673,-0.9326609275247504,0.5557848200596245,-0.8898731119285781,1.1197325883297844,0.5814472695894052,-0.9077148894450263,1.1322481786318133,-0.9700977978149696,0.5757710243708126,-0.29149667365792636,0.41115268133714694,-0.49130017914573254,0.6980164973471316,0.4458881594887868,1.792383077065732,-0.0499450153469021,0.4260000929733758,1.7663308211195818,-0.05556795940723169,S_LF
0.6511964571850972,-0.21577756692021838,1.2815035012087652,0.01599932892267505,0.6774304081891044,-0.9326609275247504,0.5556682588166175,-0.8894896544695762,1.1195944026867022,0.5456129036413798,-0.9027780724573606,1.1202215015830397,-0.9856565378321605,0.587731673884717,-0.2743829052779582,0.36884636082669364,-0.32526893590761985,0.5129123196965731,0.44613796017852786,1.7930587626808623,-0.04950888930009689,0.4442592284844305,1.825940005633928,-0.03430866077603789,S_LF
0.6230559059920101,-0.21171088190878823,1.262279287946377,-0.4638713469037847,-0.029907099200566903,-1.2875952934374806,0.5548782326140159,-0.8891542383778751,1.1192286992676361,0.5308125765188904,-0.873165909807323,1.1115529860088975,-0.9631823301739774,0.5783342706461009,-0.2977715429265806,0.8976761292512347,0.2765944907531454,-0.22750283206654398,0.4465653218990845,1.7926678254580943,-0.04985779013754121,0.4334905358801946,1.752319328129603,-0.06502444554191576,S_LF
0.6833569303001302,-0.22594386303623865,1.2843305777711924,-0.6238280542480579,1.3800367005000984,-1.6425300468204527,0.5540450355806709,-0.8887236130309776,1.1189634944980844,0.5360219815310964,-0.9310994440486655,1.1208758553707936,-0.9614538173220765,0.586022959678269,-0.29206703135238865,1.23612738610202,0.11056311157694723,0.46002558500075985,0.4473788619832406,1.7925406694063981,-0.04995030172322681,0.4441499085068716,1.7715431960128836,-0.06006552432102328,S_LF
0.6243962458791472,-0.18222887301986115,1.2905500535706507,-0.4181693022277436,1.0726465015445406,-1.731263638298635,0.5544706999717997,-0.8876055593919739,1.1189026369825452,0.5880048999768555,-0.8792064973482585,1.130513082088987,-0.9804702911597634,0.5937119986416693,-0.2897851332597549,0.5380719199753704,-0.4290384969159616,0.5393559468509991,0.4481937523413956,1.7925995128984065,-0.04992386984160251,0.4669984586313746,1.799806194612074,-0.05545987021528258,S_LF
0.6270763767836889,-0.17714572496185102,1.2820688238833686,0.0388504350781114,1.248298002714953,-1.2284396303637326,0.5551355307652458,-0.8862595276281423,1.1188850497188803,0.5823733668918893,-0.8778405485163022,1.128543332271336,-0.9994867649974504,0.5868774917471091,-0.28636251977819666,-0.15998367084936782,-0.906378287241014,0.9888939711849701,0.4483186526862661,1.792552843921986,-0.04961726001475775,0.4582859263457944,1.8119775908546043,-0.046388287056807795,S_LF
0.6471765352631513,-0.21679402996679834,1.3001621602018452,0.17595633561486188,0.940907947574067,-1.1101279167459943,0.555586234238205,-0.8857703791610781,1.1188669041293846,0.5665159966157739,-0.905628824274278,1.1272349033814277,-1.0046737197865419,0.5843142454718209,-0.26525578022220797,0.09385465401830416,-0.678085225835045,1.3062148989728886,0.44821940754736894,1.7935308633408829,-0.048713289663198336,0.4384531230096313,1.8530748776923005,-0.018944177588711586,S_LF
0.6565561701244477,-0.23915996470455442,1.2865921000643115,-0.02970250620982642,1.3800367005000984,-1.6425300468204527,0.5551450283480093,-0.8851109022099471,1.1185506125463298,0.5309840122055827,-0.9120548138848826,1.1167961768789156,-1.0115884793108398,0.582605881196605,-0.28293967263924613,0.030395228673996886,-0.4290384969159616,0.883120155384651,0.44835375981022957,1.7940178439644003,-0.048308881874342895,0.45198990541600875,1.822080979207054,-0.03915685648322593,S_LF
0.6511964571850972,-0.20967795581562784,1.2945080070769899,-0.4638713469037847,1.0506898841298988,-1.4650628638640877,0.5550345110213064,-0.8845553693080672,1.118459326273021,0.5656010986295056,-0.9060553009409412,1.127000807477802,-1.016775434099931,0.5971290771233333,-0.2880738265189758,0.3476932698481828,-0.1799915369021328,0.5393559468509991,0.4494501822970924,1.7949214635658153,-0.04815557696092032,0.48883748600014765,1.8342160710197848,-0.047511360124378496,S_LF
0.6552163791070432,-0.19849478024047246,1.295073329751594,-0.5781263089199304,1.2922108061002202,-1.3467509565112283,0.555021559772083,-0.8838321283603368,1.1184607220875977,0.5752032200560057,-0.9078922967469376,1.1302906909805428,-0.9839280249802596,0.588585856022325,-0.28864441787083034,-0.011911036415083733,0.08980930812574726,0.22203467265438823,0.44962571791691036,1.795279259051705,-0.04817407927805737,0.4567918866524883,1.7981812352264022,-0.0523437379010376,S_LF
0.6525362482025017,-0.20561127080419767,1.3001621602018452,-0.4410203245657642,1.6874270432703284,-1.7608415667030697,0.5551268965990969,-0.8827795856767435,1.1183761357242563,0.5752790308119301,-0.9083589740829994,1.130376247459606,-0.9787417783078625,0.5843142454718209,-0.29434892944502233,0.07270150761842069,0.3596099764341162,0.5393559468509991,0.4497256381928068,1.7954206187049202,-0.04826130448741863,0.4501463117203845,1.77797042469597,-0.05932999055141755,S_LF
0.6592363010289891,-0.21679402996679834,1.2781108703770294,-1.0122948352985792,1.8630779691820534,0.014230713355838028,0.5540338111646778,-0.8815907802058967,1.1184434139868478,0.5397944281241914,-0.9083449912414695,1.119108431298419,-0.9977582521455495,0.5732081280267566,-0.28579216208373437,0.07270150761842069,0.46337953744245797,0.7509030588385985,0.4493887448301563,1.7959691482683542,-0.04797584016587346,0.4284280761786671,1.7945776844166388,-0.04311661175902613,S_LF
0.6351162206275807,-0.23001054804766882,1.2775455477024253,-1.2179538866668072,2.016772709123152,-1.5242183332027146,0.5526160810830687,-0.879933789773717,1.1180816188485962,0.5312045525864536,-0.89058503464325,1.114022976477749,-0.9389789015471985,0.5621020105816923,-0.3120328218620605,0.47461250848640635,0.899211584927025,0.14270465721284142,0.44877166961279613,1.7946143952282088,-0.0486339940183247,0.40092128034373414,1.6870372403069007,-0.08305688634516052,S_LF
0.6042960873996848,-0.25135960332629026,1.257190457496125,-1.3550595716730598,1.4239499353293814,0.014230713355838028,0.5504454517132974,-0.8783597798850572,1.1177399234402476,0.49405297475424326,-0.8622680326899232,1.0983895503995411,-0.9735548235187711,0.5868774917471091,-0.2937783380931678,0.3053866722308661,0.6501647200698562,0.08981799179876666,0.4491072127014481,1.7949897761255031,-0.04882958994234607,0.45276324303503707,1.7783764964663238,-0.060131432364895106,S_LF
0.6190359840700641,-0.24221018666940464,1.2645410418342007,-0.6695302485980557,0.7652563025889825,-1.317173415577036,0.5491037022937967,-0.8775771423377546,1.1172480383834582,0.5081753125027283,-0.8751969175395472,1.104636288113555,-0.9614538173220765,0.5706452316827005,-0.2932079803987055,-0.11767705937670783,-0.3460227393588198,0.3542517692004408,0.4483375565222465,1.7940753347324545,-0.04892474471619458,0.41278992087032285,1.750174677554389,-0.058093555648387835,S_LF
0.6552163791070432,-0.2025614652519026,1.2803726242648532,-0.25821244520951364,-0.3984349286186684,-0.6664599593550817,0.5490933412944188,-0.878398212978898,1.1172882378432638,0.5549996536021861,-0.9037717281335824,1.123333862358864,-0.9873857588007557,0.6005465055362295,-0.28293967263924613,-0.8580388737244972,-0.9478860300814994,0.06337422608086365,0.448374689057208,1.7942694506198837,-0.04886395138845799,0.47904525023250355,1.8269135021959686,-0.04724772794889233,S_LF
0.6257360368965518,-0.1812119935607265,1.2826343781526772,-0.6009771815839942,-1.035171656315082,-0.42983672585472665,0.5492703417004658,-0.8792690719461531,1.1174546189407932,0.5797199904345397,-0.8775364217130259,1.1276610136631466,-1.0064022326384428,0.585168777540661,-0.29206703135238865,-0.8368860598528499,-0.6365774829945596,-0.22750283206654398,0.4480918066545013,1.794224810729395,-0.048956462974143966,0.4623381884769159,1.8039482611305353,-0.05173738389741944,S_LF
0.6793364595084517,-0.21171088190878823,1.2741529168706895,-0.5552751369079532,-0.8375636815446998,0.13214292578041179,0.5486245060725465,-0.8808483227112458,1.117584429696416,0.5368963896818135,-0.9226607991853447,1.1200606999920968,-0.9545383496810841,0.5911491022976133,-0.31089187281574365,-0.540741123512518,-0.11772981389093629,-0.9679188498513923,0.44815594466943476,1.7931974168861695,-0.04987364926651571,0.4675760999942788,1.736071751185655,-0.08535048627188911,S_LF
0.6605766409161262,-0.17511238245613595,1.2871576543336198,-0.4638713469037847,-0.44234787581860757,0.1617208154378221,0.5490708924624319,-0.8816929772963369,1.1179816785249126,0.5854488714219991,-0.9063760323685344,1.1333403474964674,-0.9735548235187711,0.5971290771233333,-0.3017647477599934,-0.49843452589520115,-0.242253178350478,-0.3068333671211295,0.4484914877580868,1.7928896721865857,-0.05037321182921967,0.48092663355000004,1.7754613852142462,-0.07207133359265765,S_LF
0.6297559588184977,-0.21476110387363798,1.2831997008272806,-0.37246740722565946,-0.33256565163343177,-0.13405800364223255,0.548872306641013,-0.8820371281820927,1.1180386277596375,0.5512823421043078,-0.8858666995544897,1.1197658506277681,-0.9649108430258778,0.582605881196605,-0.30233510545445574,-0.41382202342772617,-0.22149937489927807,-0.015056789521927549,0.44820320425938587,1.7920929177775533,-0.05077761961807512,0.44702529384254325,1.750105430216067,-0.07118552948302438,S_LF
0.6337764296101763,-0.24119330721026952,1.259452211383949,-0.8523381279543062,-0.6179993769890202,-0.6073041025462128,0.5472646249041341,-0.8826179919867312,1.1176734826664023,0.5011119899138291,-0.885314377314057,1.1037525760773677,-0.9821988040116643,0.5843142454718209,-0.28065800820400466,-0.09652392683216751,-0.1799915369021328,-0.9679188498513923,0.4480175415845783,1.7924858840862523,-0.05080405149969979,0.4405369507300148,1.806911778289013,-0.04194608489986824,S_LF
0.6565561701244477,-0.21882737247251344,1.2781108703770294,-1.2179538866668072,-0.8156073517594024,-0.8735048769807602,0.5461275052223563,-0.8837867074312521,1.1175531634499003,0.5384289730316916,-0.9064677947660745,1.1184270450075084,-0.9977582521455495,0.5732081280267566,-0.3057579525934062,0.009242096129456579,-0.678085225835045,-0.5183804791087289,0.4479952620636015,1.7914950137897907,-0.05123489117017991,0.44471877727898385,1.7566456060140858,-0.06726268271179232,S_LF
0.6444964043586097,-0.2015445857927675,1.2803726242648532,0.08455227619757115,-0.7058251275742263,-1.0213943252678117,0.5464953207002891,-0.8846034106753682,1.1174934225860225,0.5572929289688956,-0.8949450594178054,1.122889080141975,-0.9839280249802596,0.5971290771233333,-0.278376110111371,-0.8368860598528499,-0.07454092474708618,0.8566768746389176,0.44780487342979897,1.7924202769744733,-0.05083312656948663,0.46659896834301096,1.828945877960505,-0.04152427341909044,S_LF
0.6364560116449851,-0.19951124328705241,1.2865921000643115,-0.05255361835222105,-0.11300127517041608,-1.0509724474073676,0.546938253423715,-0.884778980035868,1.1174786269515105,0.5671845096452878,-0.8901629276145648,1.1253883325987797,-0.9735548235187711,0.6014010376050696,-0.29035572461160947,-0.7099665441077628,-0.07454092474708618,0.43358230425502636,0.4479918863786049,1.7928078323873557,-0.05088599033273597,0.480695846930709,1.8031307391557834,-0.059071631019441274,S_LF
0.6485163262805558,-0.22289405748394361,1.2470130281903278,-0.4638713469037847,0.34808387944824887,-1.080550182076681,0.5456785285826262,-0.884547507993418,1.1170319662870023,0.500093713624028,-0.8905561950325945,1.104130195064764,-0.9994867649974504,0.5732081280267566,-0.284080621685563,-0.18113677568322178,-1.1969328949386684,-0.015056789521927549,0.44750308719111187,1.7923404662611748,-0.05066924890341464,0.42782209259935866,1.7991029643607657,-0.04072019528385832,S_LF
0.6230559059920101,-0.22696032608281907,1.3018583598203606,-1.080847752638684,-0.33256565163343177,-1.7608415667030697,0.5452468202751939,-0.884864581017604,1.116869772633203,0.5630364552160219,-0.8882734961528312,1.123818775302089,-0.9925720054731528,0.5723539458891487,-0.28579216208373437,0.8553699472942132,-0.055468104473548316,-0.4126071829214486,0.4476887498659193,1.7924723568467102,-0.05061109876384059,0.42430495850653527,1.7896564172659912,-0.04385214552863224,S_LF
0.6672766937426137,-0.23001054804766882,1.284895900445796,-0.8751890006183699,-0.8156073517594024,-1.8791530865856867,0.5443782231606392,-0.8862368171635999,1.1165652058925915,0.5353379617560519,-0.9188635837823694,1.1190708087424792,-0.9649108430258778,0.5655190890633564,-0.27666480337059185,1.8284171202292523,0.29734829420434533,-1.0472485188842466,0.44778867014181567,1.7925974838124754,-0.0505238735544797,0.3898307011389081,1.7775388053639047,-0.0360776326735491,S_LF
0.6659363538554766,-0.2432266497159846,1.2741529168706895,-0.4410203245657642,-0.3764784550186989,-1.908731014990121,0.5434560942159631,-0.8871164109249099,1.1161327825367646,0.5120278772810625,-0.9162924887960511,1.1113230703892651,-0.9804702911597634,0.5492871789301799,-0.27666480337059185,1.405352529590402,-0.013960239288785956,-0.7299279375050207,0.4476914504139166,1.792349258966877,-0.050344136759432834,0.36326932066545764,1.7683134463692072,-0.029879640227872328,S_LF
0.6793364595084517,-0.24932626082057516,1.2809379469394566,-0.3039144898855547,-0.2227834274482559,0.014230713355838028,0.5424985651900779,-0.8882300971668863,1.1161308283963574,0.5129496671542326,-0.9300813183997666,1.1134059665603353,-0.9891142716526566,0.5484326468613397,-0.29434892944502233,1.2572806156339627,-0.15923759751284733,-0.7563713914551005,0.44727894170734445,1.7914273775920802,-0.05048422573204269,0.38024158458882734,1.7410911747576134,-0.049699507180912546,S_LF
0.6887166432394808,-0.27474241752318146,1.2611484110024649,-0.6009771815839942,-0.727781457359524,-1.5242183332027146,0.5405567412232455,-0.8897813965910036,1.1155258823588643,0.4674606291420778,-0.9351632073683054,1.099571177341652,-1.0202324598037327,0.550995893136628,-0.27038993410193757,0.6438379290816514,-0.968639969470785,-0.06884245477475792,0.44643502045821953,1.7913489196027355,-0.04978906724531736,0.38019299793213435,1.8114720180544286,-0.015762137230595157,S_LF
0.7329374309900843,-0.2574596308434355,1.2707605176336587,-0.16680835585743156,-0.6619121803742873,-1.0213943252678117,0.5394222117913126,-0.8919685890223046,1.11525844428599,0.48738852011980915,-0.9714609161248474,1.1104995544425815,-1.0012159859660457,0.5697906996138604,-0.3000534410192143,0.030395228673996886,-1.0101478482493558,0.010487560666788872,0.4462520583314095,1.7903688710979075,-0.04995558809955189,0.4344831882690172,1.765856846619417,-0.05904790412364749,S_LF
0.7222169073719181,-0.2574596308434355,1.265106364508804,0.3587641101993426,-0.4862606792038748,-0.22279161449392715,0.5386339124219407,-0.8937207887096805,1.1151093712892106,0.4821653313337993,-0.9610812780716512,1.1075410281177112,-1.0634530703848928,0.5603932963752442,-0.28179895725032156,-0.26574969381099195,-0.6573314223838451,0.1955913919086547,0.4457382790749422,1.7909884186689378,-0.04938201626829938,0.4282242821464276,1.8337999146855974,-0.024216821098432373,S_LF
0.7838577226974428,-0.2452599922216997,1.2543633809336978,0.38161513253736307,0.018737408233262115,-0.45941465425916117,0.5376927883117376,-0.8959228302908745,1.1149563900116164,0.4719610312892188,-1.0065036648540768,1.1098510530524184,-0.9545383496810841,0.5347636330722194,-0.3165963843899356,0.07270150761842069,-0.09697588809545937,0.06337422608086365,0.44402478137071943,1.7884581485125801,-0.04995558809955189,0.3556405407499991,1.6575264450094043,-0.07941348967994356,S_LF
0.6793364595084517,-0.2655925844537411,1.2668025641273195,0.587274034231634,-0.09104481595191372,-0.13405800364223255,0.5371661041766701,-0.8966093851035751,1.1147498094542816,0.4829535908982391,-0.9280179753465043,1.1035898236872277,-0.9994867649974504,0.5638107247881404,-0.28293967263924613,-0.41382202342772617,-0.22149937489927807,0.2484784730131605,0.4430309797077501,1.78853998831181,-0.04963047595557008,0.40732864569510774,1.7893478296126923,-0.03734306711588211,S_LF
0.7168571944325678,-0.2452599922216997,1.2894191766267387,0.5644231615675704,-0.7936508781594327,0.3391880565147234,0.5373992266626835,-0.8985956772716176,1.1149798396965032,0.5212991881362563,-0.9623624559268322,1.120168830004724,-1.0012159859660457,0.5646649069257483,-0.284080621685563,-0.03400563952835668,-0.07454092474708618,1.1211107213223304,0.44239905147640546,1.7887327514752853,-0.04914148614551592,0.41081743757152706,1.7895696900170246,-0.038611137879969705,S_LF
0.7945776974458761,-0.2432266497159846,1.2747184711399981,0.5415721392295499,-0.09104481595191372,1.3152581439800939,0.537106528430244,-0.9010833466184006,1.1153952341144957,0.4963135136581673,-1.0208081117392092,1.1193266421228703,-0.9891142716526566,0.5586845821687961,-0.28636251977819666,-1.408022425894708,-1.1346712127088976,0.7773465127886783,0.440474235891402,1.78772632485335,-0.048813730813371564,0.3947683201253221,1.7687618733076609,-0.042238716614657716,S_LF
0.7637575642179802,-0.2371270386113945,1.265106364508804,0.13025430590621653,0.37004049686289037,1.4039919291933975,0.5364252927211156,-0.9025368163491053,1.1157372086857598,0.4940004241166144,-0.9921161948473607,1.1151452433871547,-1.0133177002794351,0.582605881196605,-0.29035572461160947,-0.8580388737244972,0.23508661197457445,1.2004410831725696,0.44030072568258183,1.78853998831181,-0.04853090967998893,0.4586644973791931,1.8091330715493599,-0.047880445170058836,S_LF
0.7664376951225218,-0.2564427513843004,1.2769799934331174,-0.18965952786940893,0.2602581288630426,1.137790961023729,0.5354453148632435,-0.9042392277103695,1.1160024134553115,0.49128674364887026,-1.0003083921287164,1.1152728813917507,-1.0288764402966257,0.5621020105816923,-0.27609444567612956,-0.37151542581040936,0.4841334768317434,-0.015056789521927549,0.4394986629274138,1.7897838179877097,-0.04801548798831009,0.41166500480494733,1.8215565818877226,-0.023549831694452662,S_LF
0.6686164847600182,-0.23407681664654428,1.2752837938146016,0.907187897942051,-0.17887062406298876,0.5166554332062095,0.5359909941638386,-0.9046279260458043,1.1161263617897124,0.5206858102019598,-0.9175081220815606,1.114235613590209,-0.9873857588007557,0.6031094018802855,-0.2875034688245135,-0.30805601432144525,0.940719463705596,-0.015056789521927549,0.44030072568258183,1.791280607043048,-0.04811328595032115,0.48813028021939586,1.8211679900280133,-0.05339563028122658,S_LF
0.6739767465691013,-0.20764461330991274,1.2792417473209414,1.0671447549602808,-0.2008269538482864,0.014230713355838028,0.5371298406788453,-0.90505505747508,1.1163128426171445,0.5469068554072691,-0.9193390003943875,1.1228096547461022,-1.0133177002794351,0.5663736211321965,-0.27723516106505414,-0.2445961871721859,1.0237349493865666,1.7028656689980075,0.43964381738226327,1.792702996280904,-0.047322972689747306,0.41434671832852366,1.8135090999487542,-0.028506116593590192,S_LF
0.6619164319335307,-0.22594386303623865,1.262279287946377,1.2956546789925725,-0.06908835673341135,0.014230713355838028,0.5378248910538123,-0.905114454074652,1.1162494726353673,0.5134277918080732,-0.906801635107602,1.1105240787753425,-0.996029739293649,0.5621020105816923,-0.2875034688245135,0.32653976320937683,1.2935358895711067,0.9888939711849701,0.439240085456682,1.79354100877054,-0.04700050373392766,0.405939877091303,1.7760765436080772,-0.04314297497657486,S_LF
0.6632567718206678,-0.19137828967674675,1.2741529168706895,0.22165827551913314,0.5896048014185701,0.605389024684392,0.5384560485992784,-0.9045833785961253,1.1165855847854096,0.556330649260175,-0.9066985116513185,1.1241431653399703,-0.9649108430258778,0.5766255564396527,-0.32857599889017414,0.05154837507388038,1.5840899535164192,0.5129123196965731,0.4396573201222493,1.7928132432831723,-0.04796791060138621,0.4566009140990983,1.6925676151130795,-0.10126068806247127,S_LF
0.6686164847600182,-0.20561127080419767,1.2656716871834075,0.1988072531811126,0.4798225772333943,0.7828562076407569,0.5385933318410421,-0.9042654320925336,1.116807519303087,0.5337149223905823,-0.9103926035980106,1.1174460716970767,-1.009859966458939,0.5749168422332046,-0.29149667365792636,-0.2445961871721859,1.2105199960758795,1.226884537122649,0.4395668517643429,1.793965764092163,-0.047682446279841036,0.4420161445004426,1.7948203862528935,-0.04826534814626849,S_LF
0.6686164847600182,-0.21679402996679834,1.2707605176336587,0.6786779739097594,0.8969950003741279,1.4631475922671455,0.5390708012290626,-0.9036146899354572,1.1171651269976088,0.530090651365884,-0.9136139007154713,1.116716472797443,-0.9649108430258778,0.587731673884717,-0.29206703135238865,-1.0061112033412314,0.9822272065460813,1.570648572451955,0.4390780525768499,1.7945541990122458,-0.047558216436205676,0.4493034681896981,1.7762728564506989,-0.05980452846729244,S_LF
0.6257360368965518,-0.2015445857927675,1.2860267773897078,-0.02970250620982642,0.6335177486185092,1.4631475922671455,0.5396631050268604,-0.902573502484135,1.1176606411722976,0.5662506589700391,-0.8816176635845782,1.1239427903938906,-1.0046737197865419,0.5672278032698044,-0.2835102639911007,-0.9638048828307781,0.7746880845293979,1.3591016336687018,0.43803226536493456,1.7953441898015072,-0.0470639402498268,0.4172484214365708,1.796441984117287,-0.037851877214570194,S_LF
0.6699568246471553,-0.20764461330991274,1.2809379469394566,0.0388504350781114,0.4798225772333943,1.4927255206715802,0.5399635740088332,-0.9024197701087722,1.1181173517017569,0.5493819042910245,-0.9166167159340266,1.1232399453118143,-0.8905727524103362,0.5612474785128522,-0.2954896448339469,-1.2176432215537933,0.691672598848427,1.2533278178683829,0.43568548915536864,1.7937520337073969,-0.04725953617384816,0.36249463341707655,1.6798099695597064,-0.07166797636416374,S_LF
0.6619164319335307,-0.2137442244145033,1.2752837938146016,0.01599932892267505,-0.5521299561891114,1.6997706320323798,0.5400266034217187,-0.9030111156662763,1.1185425168217857,0.5387770133202533,-0.909179592095288,1.1188949581291605,-1.0115884793108398,0.5527042574118439,-0.2749534966298127,-1.2176432215537933,0.8577038420865395,0.46002558500075985,0.43380455747531943,1.7947104386289576,-0.04665953246097098,0.3833949935711305,1.7989335436883664,-0.02316756503999796,S_LF
0.6726364066819642,-0.21476110387363798,1.2735875941960861,-0.1211066105293042,-1.0571281299150517,2.084282732614423,0.5398858665134958,-0.9042077824517725,1.1190355185302363,0.5345402258471216,-0.917479282470905,1.1186366165783734,-0.9700977978149696,0.5800426349213168,-0.2880738265189758,-2.0637718486177676,0.8369499026972542,0.3278084884547073,0.4323293831318494,1.7952183864737654,-0.046683321154433105,0.43213820726890956,1.77823195105138,-0.052309465718224396,S_LF
0.6726364066819642,-0.19544497468817693,1.2730222715214827,-0.18965952786940893,-1.0571281299150517,2.6758413007031137,0.5400058814229615,-0.9053214686937487,1.1197367757735142,0.5503183394238617,-0.9145472553875951,1.123266420443772,-1.0115884793108398,0.5714994138203086,-0.26411483117589113,-3.1214305541462593,0.5671492343888852,-0.12172955319969832,0.4299076667153611,1.7968003971382187,-0.04603309686646949,0.4137994436260526,1.8435389141315375,-0.013716351548823419,S_LF
0.6672766937426137,-0.2137442244145033,1.2877229770082232,-0.966593089970452,-1.3864746586559071,3.1195082894184205,0.5395638121161507,-0.9066849700456898,1.1204947030886012,0.5523230170265414,-0.917453938570632,1.1242839015677453,-0.9407081225157943,0.5723539458891487,-0.29263738904685094,-3.184890796955814,0.6501647200698562,-0.8357017533053398,0.4271942911151754,1.7963134165147014,-0.046514157112036034,0.40646623253880915,1.737685281398982,-0.06153395553848054,S_LF
0.6444964043586097,-0.19951124328705241,1.308643389889127,-1.080847752638684,-0.029907099200566903,4.302623488244591,0.5397511735215764,-0.9066159651726577,1.1217417238313245,0.5910597288462587,-0.903737644957353,1.1347697259365823,-0.9977582521455495,0.5766255564396527,-0.2977715429265806,-3.3541158018907637,1.0029811459353668,-0.7034846567592872,0.42519048450125346,1.7968660042499984,-0.04689477620742935,0.44529034530980166,1.776043600699555,-0.05838618736317731,S_LF
0.6779966684910472,-0.23814350165797446,1.2854614547151044,-1.080847752638684,-1.9134291621671446,4.835026974464896,0.538665858836691,-0.9087324057721153,1.1227397312535847,0.5277284571301526,-0.9288307280104323,1.1179457549770777,-1.0133177002794351,0.5843142454718209,-0.2977715429265806,-3.2695026066561304,0.9199655243163105,-1.1794656154302994,0.4239002976955918,1.7977202494270843,-0.047333545442397096,0.4681577902452408,1.7970040304749295,-0.05721829682577437,S_LF
0.6404764824366638,-0.21882737247251344,1.2860267773897078,-0.32676536254961835,-2.286688638107939,5.012494157421262,0.5387021223345152,-0.9103483426722377,1.1237374595129297,0.5496257047901897,-0.8960121250120593,1.1205971697712391,-0.88711501858984,0.5928574665728292,-0.29606023618580146,-3.7137201497200603,0.9822272065460813,-0.9414750494926202,0.4213692090852168,1.7970093929891449,-0.04819258159519479,0.4285259243067291,1.7153876384593132,-0.08035202022467391,S_LF
0.6659363538554766,-0.21476110387363798,1.2786764246463374,0.29021119285923785,-1.6719082401968233,5.1603818620922235,0.5390725280622922,-0.9118708172759747,1.124811120085241,0.5412787682657547,-0.9136567231676567,1.1202777960741497,-1.0133177002794351,0.5945661807792773,-0.2897851332597549,-3.5868010496352682,1.148258449784194,-1.391013073826591,0.4200756465945584,1.7986428071638585,-0.04852033692733914,0.4832783626968706,1.8251500481336533,-0.04968632557213819,S_LF
0.6592363010289891,-0.2015445857927675,1.2679334410712315,-0.3039144898855547,-1.4962573142850988,5.189961340377626,0.5389266106543803,-0.9129906178737893,1.1258398354281862,0.5410444441110793,-0.9028986744655565,1.1187865494309337,-0.9908427845045571,0.6184874798070862,-0.29434892944502233,-3.5868010496352682,0.31810209765554526,-0.9150322883599253,0.41986905467277263,1.7996986082101227,-0.04901461311371802,0.5278107328146003,1.8292215227052817,-0.06438118303372983,S_LF
0.6686164847600182,-0.2371270386113945,1.3092089441584356,-0.3039144898855547,-0.8595201551446695,5.042071698355453,0.5391208793927247,-0.913982890478405,1.126913216837582,0.5568501252354283,-0.9285056269448609,1.1271602156407472,-0.9752840444873664,0.5928574665728292,-0.28293967263924613,-3.375268754315843,0.13131705096623267,-0.2539466324253163,0.4182379236824645,1.800192352453411,-0.04903047224269289,0.45732971394949146,1.808193190200097,-0.047814537126187384,S_LF
0.6645965628380722,-0.21272776136792287,1.2713258403082623,0.13025430590621653,-0.5960429033890506,4.687137332442724,0.5392149918037454,-0.914397793196004,1.127771363639268,0.5347280297652064,-0.9099486483794348,1.1177094295886556,-1.0029444988179466,0.5996923233986214,-0.29720118523211825,-3.1425848921056563,-0.15923759751284733,0.16914793795857497,0.417568187779159,1.8004879226374064,-0.04923135454303935,0.4954290757581484,1.8093818241239146,-0.06165786266095897,S_LF
0.6337764296101763,-0.22187717802480847,1.2809379469394566,0.26736017052121736,-0.8595201551446695,4.4505131302667635,0.5395733096989141,-0.914629265238454,1.1285549739425644,0.5421376696709418,-0.8894130977375216,1.1173384990556487,-1.0150462131313358,0.6125071550501339,-0.2743829052779582,-2.8887466919360723,0.5256412196722288,0.1955913919086547,0.41752227846320666,1.802657015497989,-0.04887452414110816,0.5100266668356536,1.8793209635248316,-0.03415575411425578,S_LF
0.6297559588184977,-0.19951124328705241,1.2815035012087652,0.5415721392295499,-0.991258852929815,3.799799480309688,0.5405325655580296,-0.9147899854490608,1.1292428313659069,0.5622912699447211,-0.8830919794383917,1.1228857359147806,-1.049622135102908,0.5954207128481174,-0.2835102639911007,-2.148383658318084,0.6709185235210561,0.11626132450580404,0.41759181757413455,1.8046252288513707,-0.0485679143142634,0.496053954148393,1.8648012085176549,-0.03574545613243653,S_LF
0.6565561701244477,-0.18731202107787176,1.2984659605833297,1.0671447549602808,-0.26669623083352306,2.9420411064620557,0.5424692090251724,-0.9148651046779313,1.1300222542254734,0.5883848152423395,-0.9084769543084082,1.1345492856273347,-1.0133177002794351,0.5971290771233333,-0.28179895725032156,-1.7253204532135507,0.8161959633079687,0.40713885030494656,0.4177700537419497,1.8061977704481444,-0.04830623868618035,0.48239435547093085,1.8439221275572024,-0.040459199430127095,S_LF
0.6471765352631513,-0.19137828967674675,1.2786764246463374,0.9528897929441352,0.19438885187780588,2.5575291996151335,0.5437228899499565,-0.9142728856410216,1.13047617312578,0.5636541405796324,-0.8950988706746349,1.1249282226739155,-1.0064022326384428,0.6107984408436858,-0.3086102083805022,-1.2599494035108147,1.0652428281651376,0.27492175375889405,0.41913788130253105,1.8071385899583006,-0.04880844443704648,0.5293850754543847,1.8029014834046397,-0.07715152561427323,S_LF
0.6230559059920101,-0.2015445857927675,1.302423914089669,0.3359132375352789,0.9848206071446624,1.4927255206715802,0.5449109512120115,-0.9127687541047995,1.130840201567354,0.5851499358276159,-0.8848022557430228,1.1303639852932255,-1.018503946951832,0.5954207128481174,-0.29263738904685094,-1.0061112033412314,1.750122012383045,0.9095636093347309,0.41991023802973004,1.8089066001664584,-0.04867364184076133,0.4895878799201822,1.8244602639674559,-0.05239646433613468,S_LF
0.6753165375865057,-0.19951124328705241,1.295073329751594,0.08455227619757115,1.2922108061002202,0.6349669530888264,0.5455913235045253,-0.9118865399052732,1.1310261240689552,0.5717314320290193,-0.9242662041785014,1.1313354832932725,-1.032334174117122,0.5920032844352212,-0.3120328218620605,-0.2869027847895027,2.1859531083010135,0.883120155384651,0.4214178189491664,1.810408123755636,-0.048937960657006924,0.5036888073959379,1.7927100231947126,-0.0724799634646607,S_LF
0.6806767993955888,-0.1791786510550114,1.2899847308960473,0.4730190722154884,1.2922108061002202,0.01383140027947626,0.5468061506816404,-0.910941435188553,1.1311539806841708,0.5825775390413671,-0.9241630807222179,1.134764430910191,-0.9873857588007557,0.5954207128481174,-0.28236931494478384,0.030395228673996886,2.87083229251892,0.5922426815468125,0.422403518968144,1.8129607138572381,-0.04872121922768559,0.4677171362616233,1.8215464973238895,-0.04546821076436171,S_LF
0.6337764296101763,-0.12936363352148866,1.2786764246463374,0.5187211168915293,1.9069917792700242,-0.07490222432741195,0.5487609258976957,-0.9084878315385833,1.1313594445898445,0.6187702831083078,-0.8751724475668698,1.1397058052758913,-0.9700977978149696,0.5928574665728292,-0.3080396170286476,0.11500816065711021,2.31047783214141,0.010487560666788872,0.42358635899091723,1.813721621081484,-0.04931593656423807,0.47556995464961,1.7554166338349353,-0.07937658117537542,S_LF
0.6485163262805558,-0.23306035359996433,1.2882885312775318,-0.7609341882761809,2.6315531070342684,-0.9918165905984984,0.54799507536031,-0.90603684832683,1.1309418168685295,0.5391216076653635,-0.9052512875529696,1.118486683725813,-0.9718263106668702,0.5868774917471091,-0.2977715429265806,0.36884636082669364,1.5425826184901903,0.22203467265438823,0.42450251989896715,1.8141071474084347,-0.04957496900415857,0.4552796269629224,1.7693582071823366,-0.0653118046131957,S_LF
0.6176961930526598,-0.19951124328705241,1.2809379469394566,-0.28106331787357736,2.3022074411814444,-0.9030828053851947,0.5481539440174453,-0.9034268918632808,1.1306313877066962,0.5632802557151877,-0.8731589183865579,1.1218548778820285,-0.9407081225157943,0.5868774917471091,-0.30290569680631024,1.045748458867969,0.940719463705596,0.8302335938931841,0.4257137156757109,1.8134510762906413,-0.049931799406089765,0.4457674392859386,1.7359177935111332,-0.07730970491956485,S_LF
0.6190359840700641,-0.2015445857927675,1.257190457496125,0.5187211168915293,1.819165597240802,-0.25236954289836167,0.5483862030868442,-0.9010318113334778,1.1302494928385418,0.5341551416664609,-0.8666979716721286,1.1117344103342075,-0.9821988040116643,0.6031094018802855,-0.29663059388026375,1.6803450677193816,0.8577038420865395,0.5922426815468125,0.4283042163420242,1.8140232785232737,-0.05009567707216212,0.49317924362739757,1.7993349093289315,-0.065512165066565,S_LF
0.6485163262805558,-0.18324533606644158,1.269629640689747,0.13025430590621653,1.358080083085457,-0.7551935508332643,0.5488032333118239,-0.8996036725055317,1.1300018753326553,0.5600591600742686,-0.8920689637006153,1.123382632338786,-1.0029444988179466,0.5988377913297814,-0.29263738904685094,2.124561225248994,0.7954420239186832,0.08981799179876666,0.43099463728423365,1.8148572328410468,-0.05017761590519793,0.4899988420580429,1.8172672807372947,-0.055931771809402515,S_LF
0.6324360897230392,-0.17409550299700083,1.262279287946377,0.06170135863132041,1.204385199329686,0.014230713355838028,0.549184863455594,-0.8980777039841729,1.1298868602115446,0.5616408481183252,-0.8752021611051211,1.1216127000960157,-1.0202324598037327,0.6014010376050696,-0.29035572461160947,1.9976421251642025,0.3596099764341162,0.3806955695592131,0.43396321467015486,1.8158284886401723,-0.05007981794318725,0.50112923532877,1.8376051567720273,-0.050548402785977664,S_LF
0.6217161149746057,-0.16189586437526546,1.2990312832579332,0.49587009455350883,1.3141674235148617,0.014230713355838028,0.5510291213449463,-0.896364810870043,1.130119402920004,0.6153105558833999,-0.8768905892198616,1.1388449454588676,-1.009859966458939,0.5808971669901569,-0.30233510545445574,1.1092081474637967,0.46337953744245797,1.0153372519307036,0.43532496599774256,1.8156796890052092,-0.050103606636649374,0.46319722755983284,1.7815047281674115,-0.06261484745797358,S_LF
0.6230559059920101,-0.25237648278542535,1.2843305777711924,0.29021119285923785,1.621557047211732,0.014230713355838028,0.550748510945115,-0.8947776987903012,1.1297785450004012,0.5217859276487249,-0.8863228897594042,1.1104597024018452,-0.9856565378321605,0.5706452316827005,-0.30290569680631024,0.05154837507388038,1.3765519190044198,0.5393559468509991,0.43532631627174107,1.815592438310162,-0.05027541386720899,0.43171374883752317,1.7499272695883452,-0.0654673475967324,S_LF
0.5721356142846517,-0.2015445857927675,1.2781108703770294,-0.6695302485980557,1.9289479652406498,-1.553796261607149,0.5505317933747838,-0.8918393140702947,1.1292459021579753,0.5646336500056085,-0.8357548172939593,1.1171214029735956,-0.9718263106668702,0.5928574665728292,-0.32230112962151986,-0.15998367084936782,2.5802782285736083,-0.09528622049266094,0.4363113411537196,1.8158352522599435,-0.05120052972406799,0.4881140846671648,1.7289123831682716,-0.09615413282330695,S_LF
0.5600752996490812,-0.1923951691358819,1.2532325039897858,0.05267518085996921,1.2263413853003116,-0.6960376940243953,0.5505542422067706,-0.8892677907005865,1.1287403381183354,0.5457955386442881,-0.8160416325195258,1.1083701177763856,-0.9804702911597634,0.5672278032698044,-0.3017647477599934,-0.054217647887743727,2.1859531083010135,0.22203467265438823,0.43601023005203177,1.816218073138986,-0.05139612564808973,0.4213654657766161,1.744023765920335,-0.06428363912880013,S_LF
0.5841959289202223,-0.20561127080419767,1.292246253189166,-0.966593089970452,1.1824285819150444,-0.22279161449392715,0.5503064416383042,-0.887407279566932,1.1286214147164102,0.5754814799896825,-0.850833564028812,1.1226588858367432,-0.9787417783078625,0.5868774917471091,-0.29206703135238865,-1.0907243985758652,0.6294107806805707,0.3542517692004408,0.4356193257294371,1.8162911202325138,-0.051417271153389316,0.45366884433061827,1.7855614120454182,-0.057099662346805455,S_LF
0.5895556418595727,-0.19849478024047246,1.2888538539521353,-0.8066359336043083,0.7213434992037153,0.1912986857217203,0.5502295975595813,-0.886038537338558,1.1286074565706443,0.5769589282443431,-0.8529458470274291,1.123419140152328,-0.9579960835015803,0.5911491022976133,-0.30461700354708937,-1.7676263580637086,-0.49130017914573254,0.8302335938931841,0.43495499092212636,1.8148450583254587,-0.05173181054472133,0.4638504481664818,1.7509047999759195,-0.07711461710970545,S_LF
0.6042960873996848,-0.25339294583200533,1.2724567172521741,-1.1265497973147252,0.7652563025889825,0.9307456559278086,0.5485390278276747,-0.8849501819993403,1.1283648639972332,0.5099224058324378,-0.8675701514125587,1.1041566701967216,-0.9458943691881909,0.5928574665728292,-0.30689890163972305,-2.0849248010428467,-0.13848375328022175,1.068223986626517,0.4341792585099308,1.8134571635484347,-0.05210978645195248,0.4640555918280739,1.7393727650804196,-0.0825269856724336,S_LF
0.5975960345731972,-0.2015445857927675,1.2526671813151824,-1.0579968799746202,0.0406937955444285,1.9068159371283002,0.5474450789766405,-0.8841378461522518,1.128392780288765,0.5319531838012053,-0.8477485996162684,1.1084311499226882,-0.9234201615300078,0.5971290771233333,-0.30347605450077253,-1.8733925057234215,0.23508661197457445,-0.280390086375396,0.4333974498647417,1.8122620319348868,-0.05278908580970331,0.46032386666819025,1.7341382041466848,-0.08356042380033908,S_LF
0.5761555362065977,-0.18222887301986115,1.2464477055157241,0.05267518085996921,-0.420391402218638,0.014230713355838028,0.5475012010566067,-0.8832984324435935,1.1280616930711984,0.5443697795413944,-0.8251776716041526,1.1092128630294387,-0.9407081225157943,0.6014010376050696,-0.33770312394592433,-2.042617510658371,0.5048874162210288,-0.3597201018169428,0.43342107965971705,1.8103012585632534,-0.05424812567537819,0.5058468647307133,1.6850599934913195,-0.12235653474486392,S_LF
0.5868755109550312,-0.18934494717103167,1.2543633809336978,0.05267518085996921,-0.9034331023446085,2.0251276507460387,0.5475849524682489,-0.8831578022593126,1.1282076952759095,0.5458463663101921,-0.837731641515255,1.1114440199394717,-0.9216909405614125,0.5791884527837089,-0.31317377090837734,-2.486835053722301,-0.49130017914573254,-0.280390086375396,0.4316069865425986,1.8077939847141173,-0.05504372531227675,0.4299200914279444,1.692210621553381,-0.09157220561335966,S_LF
0.5774958760937348,-0.2106944188622078,1.265106364508804,-1.2408049090048276,-1.6499520542261978,2.3800620166587687,0.5464797792012215,-0.8836731551085409,1.1283952927550027,0.5413046128416376,-0.8370648347597958,1.1099106917707229,-0.9752840444873664,0.5945661807792773,-0.2880738265189758,-3.311809897040606,-1.3422101987874957,-0.015056789521927549,0.4286897195686244,1.806395944507437,-0.05502257980697716,0.46511370124049656,1.800344710320772,-0.054492340131248554,S_LF
0.6431560644714726,-0.2106944188622078,1.2815035012087652,0.05267518085996921,-2.286688638107939,3.1195082894184205,0.5466878626054038,-0.8869906298905219,1.1293081554880913,0.550993744340278,-0.8955480694587843,1.120970051103443,-0.9994867649974504,0.5868774917471091,-0.3011941564081389,-3.650261292444823,-1.6950262168387495,-0.5448242794675011,0.42711597522325645,1.8049992570247109,-0.05531068731668488,0.4702260972280695,1.7833434803063493,-0.06439963728601372,S_LF
0.6739767465691013,-0.19442809522904228,1.267368118396628,-0.7380831659381605,-1.6719082401968233,3.7702219393754963,0.54613527597189,-0.8888834597621789,1.1299432511204386,0.5444921105339082,-0.9136916802714816,1.1213033590805102,-0.9649108430258778,0.5902945702287732,-0.30233510545445574,-4.052171545124277,-2.0893513371113444,-0.14817288590673572,0.42497241525047974,1.802783495187708,-0.0556807336594284,0.46319250385709904,1.7595109667512525,-0.07287541172788976,S_LF
0.6136757222609811,-0.21476110387363798,1.2690643180151433,-0.7380831659381605,-1.188866683885525,3.888534040463476,0.5454048255157141,-0.8894957688254145,1.1304767314516104,0.5373176562687112,-0.8682561845751217,1.112950872976263,-0.951080615860588,0.6022552197426775,-0.2846512130374175,-4.094477449974435,-1.0724095304791268,0.724459778092865,0.42293485178659296,1.8021423040334106,-0.05551685599335604,0.4678730184518464,1.7985805839542008,-0.05636940122070925,S_LF
0.5895556418595727,-0.20967795581562784,1.2566251348215216,-0.34961638488763885,-1.474301128314473,4.243468406376206,0.544886775546795,-0.8898626301757125,1.1309652665534162,0.530729873876064,-0.8438019425944417,1.1074953236793843,-0.9821988040116643,0.6039639339491256,-0.29206703135238865,-4.32716269771894,-2.027088975191146,0.8566768746389176,0.42144549956613764,1.8011291137917043,-0.05541377165502064,0.4913208040088948,1.8093892194707255,-0.06012088707787569,S_LF
0.5908959817467098,-0.2015445857927675,1.2786764246463374,0.0388504350781114,-1.693864426167449,4.627980313223128,0.545349566852363,-0.8904635840066771,1.131683273571613,0.5626591244081263,-0.851071272334821,1.1186288133815858,-0.9908427845045571,0.5902945702287732,-0.33028730563095327,-4.496389088188207,-3.21006161724722,1.1739978024268358,0.41978128686286387,1.7974693191335775,-0.05605870956665955,0.4973948109101813,1.724634511190188,-0.101458412194086,S_LF
0.6123359312435767,-0.21679402996679834,1.2645410418342007,-0.21251040053347262,-0.9473459057298758,4.509670149486359,0.5449463512932206,-0.8907841509484852,1.132264490761304,0.5305868672228431,-0.8659830988989101,1.1105040134121744,-1.0219616807723282,0.6022552197426775,-0.2932079803987055,-4.32716269771894,-2.5044287655161983,0.9624501708261979,0.41844181505625294,1.796606281250789,-0.05578381799776417,0.505906248422227,1.8343303627432288,-0.053878077162366304,S_LF
0.6605766409161262,-0.2483097977739952,1.27584934808391,-0.71523214360014,-0.26669623083352306,3.444865114396958,0.5437211631167268,-0.8914340196261559,1.132606465332568,0.5104229291187109,-0.9132241290078241,1.1104114897931223,-1.016775434099931,0.5902945702287732,-0.29206703135238865,-3.8194862973797727,-1.6535188818125208,1.1739978024268358,0.41692748276682357,1.7960530171535152,-0.055411128466858105,0.4776308386709998,1.817942946514126,-0.05094648737096131,S_LF
0.5962556946860601,-0.2757588805697614,1.2775455477024253,-0.21251040053347262,-0.2008269538482864,3.444865114396958,0.5426997412613416,-0.8910715256728853,1.1327376719027673,0.4981691542065867,-0.8661176837486358,1.1002233016446095,-0.9770125573392673,0.587731673884717,-0.29606023618580146,-3.0368187444459434,-0.6573314223838451,-0.015056789521927549,0.4157534195250413,1.7954564658897068,-0.055540644686818165,0.4579660641892328,1.7776060357894603,-0.06246457711794642,S_LF
0.5681156923627058,-0.26355924194802605,1.2735875941960861,-0.14395748319336785,-0.3764784550186989,2.6462618224177104,0.5419615200556318,-0.8903386764516946,1.1326502939102727,0.5077859208927537,-0.8404626652515721,1.0997473066405705,-1.0254194145928244,0.5689365174762525,-0.3080396170286476,-3.0368187444459434,-1.0931633339303266,2.23173440159091,0.41429714901755166,1.7943228832160754,-0.05519438703753677,0.44982779919317545,1.7675611379072436,-0.06408855131894035,S_LF
0.6257360368965518,-0.2137442244145033,1.2888538539521353,1.318505701330593,-0.33256565163343177,2.6758413007031137,0.5434958113802473,-0.8904793066359754,1.1330545218116528,0.5591166945403919,-0.8843137302170705,1.1220432693473272,-1.032334174117122,0.6005465055362295,-0.28636251977819666,-3.0156644064865468,-6.572195176416557,2.5490551561744823,0.4139183971609444,1.7909268697290206,-0.054372355519013545,0.5014841878484985,1.8531723618093556,-0.04333279014292474,S_LF
0.6404764824366638,-0.2208607149782285,1.2995968375272415,2.2553953720800815,0.8969950003741279,2.6462618224177104,0.5458788412372753,-0.8898451605876032,1.1335151406219266,0.5633207455507382,-0.9006448151964487,1.1255605602993044,-1.0582661155958013,0.6056726481555738,-0.2949192871394846,-3.0156644064865468,-1.6535188818125208,2.020186077172887,0.4141168874387387,1.7913631232042548,-0.053817286004898074,0.5299350494155611,1.8614712855399012,-0.05008177383536725,S_LF
0.6431560644714726,-0.2045948077576177,1.2781108703770294,1.5698661986790343,1.5776446752704807,3.0011981256816513,0.5474114057286611,-0.8884746714004181,1.1339528680731443,0.5522945879930694,-0.8935712452374885,1.1211188692136052,-1.016775434099931,0.6107984408436858,-0.30518736124155166,-2.317610048787351,-0.9478860300814994,2.3110637242150722,0.4149425799888823,1.7914611956909352,-0.0536639810914755,0.5310687380717283,1.8173210650777394,-0.0710985308651141,S_LF
0.5774958760937348,-0.18934494717103167,1.2786764246463374,1.1585486946384063,1.8630779691820534,2.7349963825714987,0.54895519463604,-0.8858874254014114,1.134279488684066,0.574906868919211,-0.8384159268226267,1.1207476599949986,-1.009859966458939,0.6014010376050696,-0.2738125475834959,-1.2599494035108147,-0.5950696042159888,0.9360068900804643,0.4154523084233535,1.7926799999736822,-0.0530084704271868,0.4836603078036509,1.862435369842364,-0.03212315004125841,S_LF
0.6552163791070432,-0.19442809522904228,1.283765023501884,0.05267518085996921,2.258293631093473,2.4687946394613456,0.5494102151920742,-0.8841902549165801,1.1347018621749414,0.5657975174062191,-0.9036948225051676,1.1267511051806014,-1.0029444988179466,0.6543690784175672,-0.2897851332597549,-1.2599494035108147,-0.8856243478517287,-0.015056789521927549,0.41841345930228246,1.7942491597605708,-0.05321463910385834,0.6067080403223978,1.891610013012084,-0.0639040087961,S_LF
0.6150160621481182,-0.1923951691358819,1.2928118074584745,0.05267518085996921,1.4459061213000075,2.2025948337024035,0.5502036950611351,-0.8826572985599774,1.135089340301402,0.5831564575411526,-0.8738633040286289,1.128251269763003,-0.9994867649974504,0.6159242335317979,-0.28693287747265894,-1.1118772124475125,-0.07454092474708618,1.570648572451955,0.4197428040539038,1.7954875785406539,-0.052868381454576945,0.5202487595520944,1.8472634797073006,-0.053155725001534565,S_LF
0.6471765352631513,-0.22797720554195375,1.2888538539521353,0.05267518085996921,1.665470857299703,1.847660080319431,0.5502019682279055,-0.8816536707230905,1.1352007263046138,0.544229357345762,-0.9036257822251135,1.1198943246891628,-1.032334174117122,0.6270307009080943,-0.2880738265189758,-0.5830477211298347,-0.9478860300814994,1.7028656689980075,0.4221469669084102,1.7967774008309971,-0.0524296122196092,0.558903493839338,1.882758455183474,-0.05078303542216016,S_LF
0.6150160621481182,-0.16189586437526546,1.2871576543336198,1.5470154756889276,1.7532956011822052,1.729348560436814,0.5526411201648997,-0.8797695756454883,1.1355854128019216,0.6028310716752283,-0.867521211467204,1.133617082296825,-1.0219616807723282,0.6176329477382461,-0.30233510545445574,-0.540741123512518,0.048301456534793466,1.0417807058807835,0.4242885014701891,1.7978041183122457,-0.052511551052645385,0.5454719825224619,1.8350557790349704,-0.06811685096036696,S_LF
0.5908959817467098,-0.1252973649226132,1.2792417473209414,0.05267518085996921,2.7632916610047413,1.256102480906346,0.5542842019829884,-0.8766337845798453,1.1359321331427459,0.6287566272296055,-0.8397897410029436,1.137972102161063,-0.9908427845045571,0.616778765600638,-0.2977715429265806,-1.154183394404534,-0.7195931046136159,1.2004410831725696,0.4255510076588796,1.7979562997570946,-0.05254326931059476,0.5268720655998808,1.8202657577170611,-0.06819857693476772,S_LF
0.5922357727641142,-0.2086610763564927,1.27584934808391,0.05267518085996921,2.8072054710927126,1.5814591121497625,0.5543809046438534,-0.8736036845222644,1.1359139875532502,0.5532155163803771,-0.8522755445615875,1.1158015479741055,-0.9528098368291832,0.5902945702287732,-0.30518736124155166,-0.03400563952835668,-0.07454092474708618,1.3591016336687018,0.42625787609714655,1.7970601201374277,-0.05274415161094159,0.4602462629804167,1.7448359094610428,-0.07858568464891728,S_LF
0.5801754581285435,-0.19442809522904228,1.292246253189166,0.05267518085996921,2.016772709123152,1.995550109811846,0.5551225795160224,-0.8712138448688942,1.1361713757611729,0.5855246821779235,-0.8459351998553537,1.1251589743503465,-1.016775434099931,0.6090897266372378,-0.29149667365792636,-1.8945454581485004,-1.2799486524958104,0.7773465127886783,0.42683781877954496,1.7973211958605912,-0.05259613307384411,0.5167619921197041,1.842369104726875,-0.05415489094662647,S_LF
0.5734754053020561,-0.16799589189241074,1.291115607839959,0.05267518085996921,1.4898184932412584,2.2913274565049804,0.5562942358623947,-0.8692380344537175,1.1365677871009239,0.607721726918207,-0.8361909071641743,1.1308188001916983,-1.009859966458939,0.6278848830457023,-0.2880738265189758,-1.640707257978917,-1.7987959137851772,0.7773465127886783,0.4281874176411452,1.7976444968856482,-0.052456044101233876,0.5511714672784073,1.8674722733249665,-0.05510396677837623,S_LF
0.6096558003390352,-0.20967795581562784,1.303554791033581,1.4784625583488231,1.0067772245593039,2.4687946394613456,0.5581229522526794,-0.8684300660036562,1.1369675483956585,0.5813163237382633,-0.875594554595555,1.127903470134759,-1.009859966458939,0.6116526229812937,-0.2989124919728974,-1.5349411103192043,-2.0063353076780315,0.3542517692004408,0.4291346348511629,1.7970635019473133,-0.052617278579143695,0.5250170000547595,1.8257457097040732,-0.06497171910681868,S_LF
