xa_S1,ya_S1,za_S1,xgb_S1,ybg_S1,zbg_S1,tilt_x_S1,tilt_y_S1,tilt_z_S1,tilt_accx_S1,tilt_accy_S1,tilt_accz_S1,xa_S2,ya_S2,za_S2,xgb_S2,ybg_S2,zbg_S2,tilt_x_S2,tilt_y_S2,tilt_z_S2,tilt_accx_S2,tilt_accy_S2,tilt_accz_S2,Posture
-0.04159076145685448,-1.32594010096006,0.0115773280836782,2.209693926099868,-3.099077586048125,1.0194794411411119,-1.7694893727669065,-0.30173235036298784,0.18814779432565862,-1.699854305113265,-0.22274617069364264,0.1884473468966117,0.8468715753613434,0.46385461798886507,-0.7221882321389886,1.066901965506775,0.29734829420434533,-0.4126071829214486,0.2127275713696108,-0.7392918831183344,-0.8286916845219063,0.18043368264209306,-0.7527690214841,-0.8204018089967888,LR
0.105810949595603,-1.310690656786029,0.01949323509635699,2.552459261170176,-4.087116021753316,2.173017292768211,-1.7673662313109526,-0.306120710896077,0.1888406766814765,-1.7700128522918697,-0.3402369966489925,0.19885987695276597,0.8019231600449772,0.4886300991542819,-0.7124905157313839,0.38999959035863613,0.33885617298291626,-1.2323530429434975,0.2131670855561551,-0.7381562713587715,-0.8288740645051157,0.21998996933686027,-0.6902097658963875,-0.8236787569380796,LR
0.1366310828234989,-1.2862913795425575,0.03928277103334883,2.0268866454394447,-3.86755272390034,2.7349963825714987,-1.7654667147582486,-0.3104199765298083,0.18991768720877147,-1.7512186767095512,-0.3613755573318847,0.21471625151061713,0.8330413481960534,0.5074252555627465,-0.7084975445553633,0.32653976320937683,0.42187165866388704,-1.391013073826591,0.21410755139617957,-0.7375096693086571,-0.8294053453257687,0.24676324161866575,-0.717448172810115,-0.8386346102534028,LR
0.12457076818792856,-1.2740917409208221,0.02232031165878432,1.752674976079026,-2.747774296077956,2.498374117746749,-1.7638935696859641,-0.31350597926933926,0.1907627133534377,-1.7596026571260859,-0.3435937525437748,0.2048000605072697,0.7829059780905956,0.49631913811768225,-0.7204769253982094,0.7707570291664431,1.0237349493865666,-1.734777801973282,0.2154449977917924,-0.7355306341636418,-0.8298705464423611,0.25158816655413924,-0.6724461428561676,-0.8319172624220182,LR
0.14199079576284956,-1.275108203967402,0.01440440464610566,0.7700819135878847,-1.8914729761965188,1.7885042235105622,-1.7635991446202948,-0.3160338286687742,0.1913464430093667,-1.7802317975961177,-0.35700067578820344,0.2000860935908056,0.8261265886717558,0.4988820344617383,-0.7102088512961423,-0.03400563952835668,-0.07454092474708618,-1.3116827119763517,0.2158122723194115,-0.7352113913104472,-0.8302300200324548,0.23326897253689463,-0.7130311338511321,-0.8328373387144651,LR
0.08437045122900357,-1.3381393231692407,0.024582065546608193,0.4501680498774678,-0.8595201551446695,0.7237005445670089,-1.763290041472173,-0.3170627874084196,0.19165770965994577,-1.7645630927239495,-0.3330978821203609,0.19883033627921332,0.8313128353441527,0.4783781638468256,-0.7067860041571918,1.5957318724847482,1.7916293474092737,-1.4174568741853633,0.2163800625358227,-0.7337139258931321,-0.8303040293010038,0.1853186660837565,-0.7219976557074417,-0.8167267764705128,LR
0.06963055455862409,-1.2690085928628114,0.002530775721792484,-0.16680835585743156,-0.420391402218638,-0.10448011398482224,-1.7631743436457812,-0.31690206719781305,0.1916431931883494,-1.7489098945973123,-0.2917855768201428,0.19114446612910024,0.8140248743583665,0.4971733202552902,-0.7033633906756335,1.8072641678041734,1.35579689211045,-1.338126512335124,0.21769455427345927,-0.7320974207678462,-0.8304969820368626,0.22001763673858807,-0.6953004537194343,-0.824646287022114,LR
0.06561008376694533,-1.2690085928628114,0.009881128465162802,-0.7837852106142014,0.34808387944824887,-0.25236954289836167,-1.763309900054315,-0.31604431042163983,0.19169372167602167,-1.7376037541342413,-0.2899197414034911,0.19575113908973588,0.8658886865040556,0.49119299549833795,-0.6965179300551249,1.8495700726543316,1.438812921543763,-1.2323530429434975,0.21846826127465677,-0.7315056040378776,-0.8306502869502848,0.18840054471037276,-0.7510775039771288,-0.8230697666127069,LR
0.08839037315094934,-1.3015408237165884,0.003661652665704419,-1.1951027146548296,0.37004049686289037,-0.6073041025462128,-1.7645817127280117,-0.31574994786199584,0.1915332029997143,-1.7746674604084474,-0.3193912017106339,0.18921066675379172,0.8555155558542364,0.46214590378241704,-0.7164837205647966,1.2149741565700776,0.7746880845293979,-0.015056789521927549,0.21832513223080535,-0.7315759456834967,-0.8303886113222021,0.1660911715122254,-0.759270203635297,-0.8161916031542764,LR
0.08303066021159898,-1.3015408237165884,0.018362358152445055,-1.2179538866668072,0.1724325220925083,-0.6960376940243953,-1.7654252707607354,-0.3156075707189041,0.1915418570500891,-1.7535989621484012,-0.3178487195043617,0.19843878301183893,0.8555155558542364,0.46043718957596896,-0.7056452887682672,0.8553699472942132,0.7954420239186832,-1.840550924956216,0.21744205303572112,-0.731546185756504,-0.8303278179944659,0.14394577828041658,-0.7530352539692989,-0.8068432062115415,LR
0.1098308715175491,-1.323906758454345,0.030801541346066576,-1.1722518419907662,0.19438885187780588,-0.19321368608949263,-1.766368121704168,-0.31611331529467196,0.1917880787413992,-1.7647724337886044,-0.3504165052827913,0.20482876512402381,0.798465426224481,0.4647091500577052,-0.6902430607864706,0.38999959035863613,0.23508661197457445,-2.2636458417487995,0.21609245417412085,-0.7303740504501774,-0.8300449968610829,0.13427433433982838,-0.6779422301453129,-0.7896675699786263,LR
0.1125110024220906,-1.3066239717745989,0.012142882352986672,-0.9894439626345156,-0.2447399010482255,-0.25236954289836167,-1.7675320073010066,-0.3168374297218081,0.19181180758920116,-1.781024364589871,-0.34294267648503657,0.1947548380713284,0.8589734312980716,0.47410655329632145,-0.7027927993237791,0.1784675721460743,0.4841334768317434,-2.4223062190405855,0.21523840587000684,-0.7305526100121337,-0.830272311043054,0.16578075676113202,-0.7516160196858267,-0.8147416261891031,LR
0.12055084626598248,-1.310690656786029,0.005923174958823407,-1.1951027146548296,-0.46430420560390523,-0.015746483759615536,-1.7690645717923916,-0.3178559067085879,0.19180259521299553,-1.7953767190637173,-0.3498624351871674,0.1905999144675706,0.8330413481960534,0.47410655329632145,-0.7062156464627296,0.1784675721460743,0.712426402299627,-1.866994032497603,0.21460647763866217,-0.7299919059331119,-0.8303806817577145,0.17551833253999677,-0.7246915788594424,-0.813576371973455,LR
0.10045068778651997,-1.3045906292688838,0.007619374577338932,-1.377910893358994,-0.09104481595191372,-0.31152520597210964,-1.7704520822924814,-0.3181756001709905,0.19175346253989992,-1.7784778123795064,-0.33129409556299816,0.19175506627772387,0.8710750747997914,0.4630004358512571,-0.7016520839348543,-0.011911036415083733,0.691672598848427,-1.4703436088811765,0.2131360292541873,-0.7303165596821233,-0.8302828837957041,0.13979634283590942,-0.7673674360891767,-0.8077685551474975,LR
0.1098308715175491,-1.3228898789952097,0.0115773280836782,-1.1722518419907662,0.5017790508333638,-0.16363587392613074,-1.7718292317931905,-0.3182594541939157,0.1917565333319682,-1.7879868933328258,-0.3463020541626056,0.19274133461454734,0.8814478513912631,0.48264977439732976,-0.722758823490843,0.3053866722308661,0.29734829420434533,-1.4967865432182177,0.21340675919090657,-0.7313155463223106,-0.8308141646163572,0.21400773723154937,-0.7868998916257562,-0.8388112438109784,LR
0.12055084626598248,-1.3452558137329658,0.0002690218339686137,-1.1036989246506614,0.4139533002481576,-0.19321368608949263,-1.7737373825120435,-0.31871016956713905,0.19157144831911263,-1.8187807054977496,-0.3608214872362605,0.18368321657222808,0.8486007963299388,0.4800868780532736,-0.6925247252217118,0.136161251635621,0.7331803416889124,-1.0736923192430188,0.21249937506384747,-0.7308671183314884,-0.8306555733266099,0.16142415321100378,-0.7317964902321259,-0.8096113440541454,LR
0.1098308715175491,-1.3137404623383242,0.007619374577338932,-0.9437419179584745,0.9189513301594255,-0.13405800364223255,-1.774864141194442,-0.3183310795051644,0.19155190691504057,-1.7884374504390574,-0.34232917931291024,0.19111018780035485,0.888363106597247,0.46214590378241704,-0.7056452887682672,-0.15998367084936782,0.23508661197457445,-0.6770408564005149,0.21102757640537403,-0.7319662065442876,-0.830462620590751,0.14264608521388208,-0.7894129649330132,-0.8125692970630987,LR
0.09107050405549086,-1.3178067309371997,0.009881128465162802,-0.9437419179584745,0.6335177486185092,-0.16363587392613074,-1.775673162562571,-0.3179799407841648,0.19153990290968206,-1.7765730671369078,-0.3286120117720359,0.1916709032266586,0.8468715753613434,0.48264977439732976,-0.6948066233143455,0.030395228673996886,0.6501647200698562,-0.9679188498513923,0.21028087488414843,-0.7315421275846413,-0.8303516066879281,0.17087020904971126,-0.7306300423487415,-0.8129172915347398,LR
0.09375063496003237,-1.2974741387051583,0.008184928846647276,-1.0351460073105567,0.8091691059742496,-0.16363587392613074,-1.7764761400143954,-0.3173335660241158,0.1915452070050728,-1.7703669229814702,-0.32329765806306177,0.1926329259163207,0.8658886865040556,0.4715436569522654,-0.6891021117401537,0.07270150761842069,0.42187165866388704,-0.7034846567592872,0.2089123721865678,-0.7315198076393968,-0.8300793583071951,0.13550789556808654,-0.7515084510049382,-0.8034265332172429,LR
0.1192110552485779,-1.309673777326894,0.01610083585932594,-1.1951027146548296,1.0287335543446015,-1.258017558768167,-1.7781874317450581,-0.3165404467239478,0.19126492743809428,-1.7815438405651256,-0.3503666914098409,0.19715181291309655,0.8831766474898417,0.47923234598443354,-0.7204769253982094,0.47461250848640635,0.712426402299627,-0.015955784510961447,0.20917094965729965,-0.7322191659237255,-0.8302062313389927,0.20307573947565147,-0.788280804566662,-0.8349701230141467,LR
0.1192110552485779,-1.3137404623383242,0.01666615853392953,-0.8523381279543062,1.204385199329686,-1.4059070070552184,-1.7790344434442409,-0.31614126663564723,0.19110245462137948,-1.7828085018116804,-0.35189693862977417,0.19711196087236027,0.8762614630955272,0.47068912488342535,-0.7204769253982094,0.7284507086559897,0.7539342810781977,0.010487560666788872,0.20928369753618276,-0.7327602555054112,-0.8301850858336931,0.18698343389016395,-0.7826307596029951,-0.828004960937806,LR
0.05622990003591652,-1.2964576756585782,0.004792298014911471,-0.8294871056162857,-0.029907099200566903,-1.849574964446131,-1.7792209414330522,-0.3156363955392845,0.1906979475570841,-1.751667510844058,-0.2910523515674165,0.18957797437400428,0.8831766474898417,0.48948428129188987,-0.7216178744445262,1.23612738610202,0.6501647200698562,-0.14817288590673572,0.2105293252998907,-0.7334447338262436,-0.8305022684131876,0.22555449115754744,-0.7865186951128579,-0.8430504491927937,LR
0.12189063728338705,-1.3340730545703652,0.012142882352986672,-0.8066359336043083,1.1385157785297773,-1.553796261607149,-1.780347700115452,-0.31548266316392176,0.19041934296759724,-1.7997134388969316,-0.36031198744801324,0.1923244209576138,0.8555155558542364,0.47581526750276953,-0.7307449995002766,1.7861098298447768,0.691672598848427,-0.7299279375050207,0.21197951957438665,-0.7336442606094902,-0.8308035918637078,0.2173082558132837,-0.7646015763818318,-0.8361933763084021,LR
0.1098308715175491,-1.312723582879189,0.017797035477841464,-0.34961638488763885,1.2922108061002202,-1.258017558768167,-1.7805765055183902,-0.31486773366246973,0.1903163318518453,-1.77543762876977,-0.3439581803511488,0.1976868892642411,0.8676174826026342,0.47581526750276953,-0.7290336927594973,2.2091744204836274,0.9199655243163105,-0.7299279375050207,0.21361335111269214,-0.733920892658127,-0.8311102016905522,0.21280859155178214,-0.776934325645695,-0.8366573689372572,LR
0.1996116891664279,-1.314756925384904,-0.02347846760936275,-0.32676536254961835,1.3800367005000984,-0.9918165905984984,-1.782893052296074,-0.3155481741193321,0.18978340984650396,-1.880741353206179,-0.4120843321402246,0.17331276804160645,0.852058530150435,0.47068912488342535,-0.7050746974164128,2.463012620653211,-0.07454092474708618,-0.9679188498513923,0.21429861516698137,-0.734300331727284,-0.8309780422824296,0.1639040971463696,-0.7461609429562701,-0.8130833798052963,LR
0.07901018941992054,-1.3045906292688838,-0.004254254346974373,-0.23536142287149311,1.2702544763149226,-1.0509724474073676,-1.7830519209532094,-0.3143724708395672,0.18947018905551782,-1.7801077436318777,-0.31112734236643724,0.18361856151313152,0.9229390993804888,0.4869213849478339,-0.7147724138240176,2.145714177674073,1.2727819501818212,-0.8357017533053398,0.21565496539857462,-0.7353290782944639,-0.8314062387647471,0.2035211171620028,-0.8277726288420976,-0.8416927434890404,LR
0.09241029507289543,-1.309673777326894,-0.022347590665450813,-0.05255361835222105,1.3800367005000984,-1.4059070070552184,-1.7837150249134266,-0.3132352006536431,0.18883816421523864,-1.8123014703238123,-0.32063392675160746,0.17189676651027017,0.8935494948929829,0.4835039565349377,-0.7296042841113519,1.9341832678889652,1.0859966316163376,-0.2539466324253163,0.21727461905989487,-0.7359993530137771,-0.8317815714838154,0.22564424150949397,-0.8042177769445445,-0.8460769465673734,LR
0.08437045122900357,-1.314756925384904,-0.0031233774030624373,-0.02970250620982642,1.358080083085457,-1.258017558768167,-1.7838350398228917,-0.31211627353523413,0.18848278982403968,-1.786862654281904,-0.3194375198732017,0.1835104315005041,0.8987358831887188,0.46983494274581733,-0.7170543119166513,1.574578920059669,0.5048874162210288,0.14270465721284142,0.21761961406653693,-0.7371146739140266,-0.8316996326507795,0.17638074569629533,-0.805880385368527,-0.8279416892156894,LR
0.08839037315094934,-1.3117071198326091,-0.02347846760936275,-0.16680835585743156,1.1824285819150444,-1.376328884915663,-1.7845758512784469,-0.3111440909569441,0.18785662740498243,-1.8121791393312985,-0.31779803170381576,0.17088235092789184,0.902193475385876,0.46898076060820937,-0.7176246696111135,1.23612738610202,0.7954420239186832,0.1955913919086547,0.21769117858846287,-0.7380839006272211,-0.8316097642532561,0.17520116964214047,-0.8102772551998433,-0.8282264119652141,LR
0.05087018709656585,-1.323906758454345,-0.00821220785331364,-0.02970250620982642,-0.029907099200566903,-1.5242183332027146,-1.7844860559505005,-0.310797319632972,0.18736502151110812,-1.7772682862281683,-0.293973891519579,0.1785464836012399,0.8831766474898417,0.45702011109430496,-0.7233291811853055,-0.03400563952835668,0.8577038420865395,0.4864688657464934,0.2166244621295691,-0.7386865391488235,-0.8313242999317113,0.1638764297446418,-0.7952727688244128,-0.8214985188468104,LR
0.07231013659343292,-1.3330561751112304,-0.001992500459150502,0.3587641101993426,1.1385157785297773,-1.2284396303637326,-1.7842658847137098,-0.3098574557926845,0.18701885949611438,-1.7871090392386577,-0.31617602208634227,0.18218751095941887,0.9073798636816119,0.4664175143329211,-0.7142020561295551,1.23612738610202,0.23508661197457445,1.068223986626517,0.21642124589277986,-0.7401386883136725,-0.8309912582232415,0.16348841130577488,-0.814711101765215,-0.8245619247259579,LR
0.1098308715175491,-1.3005239442574537,0.007054051902735342,0.8157839582639257,0.8969950003741279,-1.1988615082241767,-1.7836183222525617,-0.30963559202369473,0.18690021525710446,-1.7827481978012854,-0.337564526061582,0.19203347319167885,0.886634239686999,0.4732523711587135,-0.7050746974164128,-0.11767705937670783,-0.6573314223838451,0.7509030588385985,0.21532482340591705,-0.74158880839259,-0.8306212118804983,0.1640984437731412,-0.7843854737099882,-0.8197506375233384,LR
0.09911034789938304,-1.3208569529020493,0.005923174958823407,0.6101250565696547,1.248298002714953,-0.34110313437654416,-1.783212516443575,-0.3090093072899717,0.18688904874049178,-1.787605255095616,-0.3355911975506689,0.18906714367002117,0.8762614630955272,0.47068912488342535,-0.7261814369724015,-0.32920910529995606,0.13131705096623267,0.7509030588385985,0.21475095695651236,-0.742466726238875,-0.8305101979776753,0.196673097827012,-0.7860272407020487,-0.8321993488497886,LR
0.04149000336553704,-1.3350895176169455,0.003096098396395946,0.4273171772134041,1.1385157785297773,-0.7256156224288297,-1.7824907001535466,-0.30763183026754304,0.1867036845647208,-1.7636947149742712,-0.29246811427232333,0.18442953660783504,0.8797190552926845,0.461291721644809,-0.7238997725371599,0.009242096129456579,-0.13848375328022175,1.068223986626517,0.21396982344832235,-0.7436158652379801,-0.8301903722100182,0.1737415454973251,-0.7907575734441191,-0.82443274495997,LR
0.057570239923053455,-1.3045906292688838,-0.013866360978168561,-0.14395748319336785,0.6115612750185396,-1.1988615082241767,-1.7825563198162764,-0.3067697060943426,0.18628856930964358,-1.778657862924826,-0.2914333839991076,0.1769211891846379,0.8589734312980716,0.48948428129188987,-0.7119201580369214,0.3053866722308661,-0.5120539825969325,1.068223986626517,0.2141926186580915,-0.7442678781839112,-0.8300212081676208,0.21244216718255662,-0.7534305688715641,-0.8324234361989518,LR
0.04685026517462007,-1.3249232215009248,-0.003688931672370782,0.08455227619757115,0.08460671398143323,-1.1101279167459943,-1.7822644850004525,-0.30636703208842025,0.18596976526035092,-1.7700042374332416,-0.29190006133516916,0.18122353747056008,0.8607022982083197,0.461291721644809,-0.7278927437131805,-0.22344309619367508,-0.9271320906922141,0.7773465127886783,0.2134459171368659,-0.7455861076772928,-0.829767462104025,0.1831194450537272,-0.7721246610014693,-0.8247649215010822,LR
0.07633060738511138,-1.307640434821179,0.014969958915414005,0.6786779739097594,-0.156914136081552,-0.6960376940243953,-1.7812102533137013,-0.30662470851303425,0.18603118110172082,-1.7567683686375533,-0.31378146047433975,0.19550701050452587,0.8624310943068983,0.46898076060820937,-0.7210472830926719,-0.09652392683216751,-1.1346712127088976,1.2533278178683829,0.21287205068746098,-0.7469476243372094,-0.829421204454744,0.18646450140409693,-0.768025621955363,-0.8253053674608285,LR
0.09241029507289543,-1.32594010096006,-0.004819808616282718,0.9300389202800714,-0.4862606792038748,-0.37068106278097873,-1.7808113548376345,-0.30749120008326214,0.18588099145327994,-1.7990707704433,-0.32975773084989574,0.18157300921240144,0.8486007963299388,0.4809410601908817,-0.6908134184809328,-0.4561282053847478,-0.8648704084624431,0.5922426815468125,0.21152515237385808,-0.7473284161303207,-0.8289031395749029,0.1601460542141107,-0.7304606216763422,-0.8088969008585777,LR
0.13529074293636195,-1.314756925384904,0.021189434714872387,0.9300389202800714,-0.5521299561891114,0.01383140027947626,-1.7801801972921676,-0.30913421484495407,0.18619086228928236,-1.7870452892848117,-0.36652299087009493,0.20030569784325453,0.8745326669969486,0.4732523711587135,-0.6970882877495871,-0.20229000521516433,-0.7611008474541013,0.5129123196965731,0.21022821419820312,-0.7483044064632863,-0.8284802294689098,0.1518195159233684,-0.7658487007758825,-0.8120024878858036,LR
0.105810949595603,-1.254775611735361,0.028539787458242705,0.587274034231634,-0.3545219814187293,-0.04532433467000163,-1.7787641940437882,-0.30966354336467,0.18668163069441088,-1.7312933701894078,-0.32226554957263276,0.21022885598659102,0.8399568158370458,0.4723978390898734,-0.7096382599442878,0.07270150761842069,-0.3045149965183344,0.010487560666788872,0.2096496217898033,-0.7483409300100501,-0.8282529152869386,0.17696715964999143,-0.7350585104800689,-0.8159754247703782,LR
0.1098308715175491,-1.2862913795425575,0.0189279124217534,0.6558269515717388,-0.2447399010482255,0.1912986857217203,-1.7778878261797004,-0.31035533905380336,0.1870272343835738,-1.7611765917973774,-0.33488244227061975,0.2010182969213154,0.8313128353441527,0.4869213849478339,-0.7067860041571918,0.09385465401830416,-0.2007454626976097,-0.3068333671211295,0.20960911356984516,-0.7479926035918399,-0.8282370561579641,0.20250889514756776,-0.7197454364513394,-0.8226927726017621,LR
0.09241029507289543,-1.289341185094853,0.02345118860269626,0.26736017052121736,0.12851957489256918,0.0729871852126154,-1.7770710340620375,-0.31044967482959446,0.18738344626351897,-1.7468750649894351,-0.322338959490665,0.20313547142113073,0.852058530150435,0.4715436569522654,-0.6976588791014416,0.32653976320937683,-0.0762220397846912,-0.3068333671211295,0.20873886197774785,-0.747993279953817,-0.8279251599547947,0.15268395352369576,-0.7412571557162669,-0.8080374599664931,LR
0.13261116090155312,-1.32797302705322,0.004226975340307881,-0.006851588643575686,0.32612754966295127,0.01383140027947626,-1.7778247967668148,-0.31123056541808597,0.18741973744251025,-1.812838176016322,-0.36560361903950117,0.18815500570267932,0.8849054435884204,0.49033881336073,-0.7204769253982094,0.38999959035863613,-0.03471417867807141,0.08981799179876666,0.20938091726408184,-0.7488948704693008,-0.8282344129698015,0.22511653643263527,-0.7875648005344982,-0.8430636308015684,LR
0.05220997811397043,-1.2832415739902625,0.04946020033914661,-0.006851588643575686,0.391996826648188,-0.34110313437654416,-1.776071197622024,-0.31046976485592015,0.1880009546322014,-1.6884732153801332,-0.29216136568626005,0.2191559917971197,0.857244635199493,0.4664175143329211,-0.7256110792779392,0.28423358125235526,-0.2630071177397635,-0.5183804791087289,0.2092283363022401,-0.7495049489726514,-0.8283348541199751,0.18984667256166238,-0.765682641624761,-0.8261595357094039,LR
0.13529074293636195,-1.307640434821179,0.01610083585932594,0.08455227619757115,0.3041710760629817,-0.22279161449392715,-1.7763095006077263,-0.3112183367064092,0.1881670565668153,-1.7899614189303081,-0.3630692290121989,0.19776910151610963,0.8762614630955272,0.46898076060820937,-0.7033633906756335,0.030395228673996886,-0.3875306181373907,0.3278084884547073,0.20817984854232768,-0.750336197842516,-0.8279991692233428,0.1540092895479295,-0.772731079439978,-0.8139981834542325,LR
0.10179047880392456,-1.290357648141433,0.01666615853392953,0.13025430590621653,0.34808387944824887,-0.13405800364223255,-1.7759287338805714,-0.3112358062945186,0.18837279963540457,-1.7612386187794973,-0.32915734259170354,0.19895769559820975,0.8589734312980716,0.46043718957596896,-0.695376981008808,-0.07537078043228404,-0.3667766787481052,0.1955913919086547,0.2065041585100655,-0.7506892587945658,-0.8274070950749536,0.12538162653567886,-0.7505362990514086,-0.7994746869067072,LR
0.10447060970846607,-1.3188236103963342,0.01666615853392953,-0.0754045359184718,0.238301799077745,-0.31152520597210964,-1.7760375243740445,-0.31159655328897834,0.18848195233529347,-1.7766428474917928,-0.3414194206858683,0.19623103569216854,0.8416853286889465,0.4630004358512571,-0.726752028324256,-0.26574969381099195,-0.242253178350478,-0.5977108409589682,0.2059626986366272,-0.7509347781922558,-0.8274678884026898,0.18720004940125298,-0.7500737537235883,-0.8224449583568052,LR
0.10715074061300758,-1.294424333152863,0.017797035477841464,-0.4638713469037847,0.238301799077745,-0.37068106278097873,-1.7762412906951524,-0.31182715185202314,0.18864023770827876,-1.7649774674239451,-0.3352931882405618,0.19941947763667117,0.793279179552084,0.4869213849478339,-0.6902430607864706,-0.11767705937670783,-0.3667766787481052,-0.12172955319969832,0.20539153273521937,-0.7495692033604765,-0.8270555510493468,0.17990800200926316,-0.6657412525155381,-0.8042464292830039,LR
0.11519058445689945,-1.305607092315464,0.01666615853392953,-0.28106331787357736,0.4798225772333943,-0.16363587392613074,-1.7765167205952948,-0.31204552170339084,0.18880689796872308,-1.7765239624427298,-0.34570603554239165,0.19780672407204955,0.857244635199493,0.46898076060820937,-0.7113498003424592,-0.37151542581040936,0.08980930812574726,-0.17461623593420772,0.2044638944981816,-0.7497200320813715,-0.8269260348293866,0.17059218540307974,-0.756312064910864,-0.8173542210481702,LR
0.07499026749797444,-1.3208569529020493,0.02175498898418086,-0.34961638488763885,0.37004049686289037,-0.4002589911854132,-1.7763967056858283,-0.3118175435785627,0.1889336379322774,-1.7541701272754218,-0.31871478175162277,0.19848532350696466,0.8779902591941059,0.47068912488342535,-0.7010814925829998,0.38999959035863613,-0.013960239288785956,0.06337422608086365,0.2037523001009197,-0.7502760016265535,-0.8266722887657909,0.15318938971623702,-0.7728581449442775,-0.8137160970264627,LR
0.06293050173213648,-1.314756925384904,0.01440440464610566,-0.6695302485980557,0.4798225772333943,-0.45941465425916117,-1.7765279450112879,-0.311225324541653,0.1889576459429948,-1.7530234895920667,-0.30510860301539217,0.19410215639717177,0.8658886865040556,0.4852126707413858,-0.7039337483700959,0.4323057723156577,0.006793604943839655,0.3806955695592131,0.20380428564986572,-0.7504924374592277,-0.826566561239293,0.18913609270752882,-0.7572862337771602,-0.82443274495997,LR
0.10447060970846607,-1.330006369558935,0.013273527702193725,-0.6466792262600352,0.4139533002481576,-0.8143492139070122,-1.7773015662982072,-0.3114934827191329,0.18888394693335098,-1.7861855263937614,-0.3446686834863891,0.19298992216935004,0.8797190552926845,0.4681262285393693,-0.6970882877495871,0.32653976320937683,-0.13848375328022175,-0.5448242794675011,0.20281183426089497,-0.7511275413557312,-0.826363035750784,0.14076402708170932,-0.7730235317911436,-0.8090972613119477,LR
0.1098308715175491,-1.2883247220482725,0.014969958915414005,-0.5552751369079532,0.45786624744809673,0.01383140027947626,-1.7775994450303358,-0.31152056058070243,0.18909331911983893,-1.7670674321270392,-0.3348125280629702,0.19828773541688077,0.8935494948929829,0.4681262285393693,-0.6987998281477585,0.3053866722308661,0.1728249297448036,-0.14817288590673572,0.20184503807789783,-0.751858012291007,-0.8261410079451379,0.1418160631620454,-0.789702055762901,-0.8123056648876121,LR
0.08705058213354508,-1.292390990647148,0.005923174958823407,-0.21251040053347262,0.018737408233262115,-0.22279161449392715,-1.777590810864187,-0.31155200583929943,0.1891123021980806,-1.7666702871442996,-0.31545153610957216,0.1915062000373219,0.8676174826026342,0.47923234598443354,-0.7176246696111135,0.3053866722308661,0.048301456534793466,-0.12172955319969832,0.202068508424666,-0.7522523313236604,-0.82628374010591,0.20034746373941098,-0.7691913975344918,-0.8306808275189889,LR
0.105810949595603,-1.294424333152863,0.01383908197150207,-0.5095733915798257,0.21634532547777544,0.1912986857217203,-1.777884372513241,-0.3117651348142345,0.18932586182829847,-1.7690712482438553,-0.3333897739372983,0.19685807829116594,0.8364990820165495,0.493755891842394,-0.6976588791014416,0.136161251635621,0.19357873319600355,-0.280390086375396,0.20215762650857355,-0.751498187719186,-0.8262731673532605,0.1999263793814059,-0.717786341850658,-0.8213772480460866,LR
0.15405111039841987,-1.3167902678906191,0.018362358152445055,-0.6238280542480579,0.5676484716332725,-0.22279161449392715,-1.778937740783376,-0.31263861421970623,0.18948610134169083,-1.80245037948297,-0.3823244757265267,0.1987896481816781,0.8814478513912631,0.4723978390898734,-0.7164837205647966,0.2419272607419019,0.2558404154257744,-0.9679188498513923,0.20197939034075843,-0.7520778299335668,-0.8265295566050181,0.18284681992450608,-0.7856131012806279,-0.8269662501663909,LR
0.11117066253495336,-1.2964576756585782,0.002530775721792484,-0.5095733915798257,0.19438885187780588,-0.4002589911854132,-1.7795654446623836,-0.312908519355997,0.1894207772195064,-1.7871219615265985,-0.33636287561760264,0.18957072854841595,0.8952782909915614,0.4775239817092176,-0.7204769253982094,0.5169186904434279,0.02754753073931656,-0.9414750494926202,0.20227982630544675,-0.7531518927532128,-0.8269313212057118,0.19804432124923313,-0.8021995195693746,-0.8354341156430025,LR
0.1098308715175491,-1.292390990647148,0.006488729228131752,-0.5552751369079532,0.3041710760629817,-0.22279161449392715,-1.7800316896344104,-0.31305963129314346,0.18945567258392107,-1.7794986731268954,-0.3345765676121523,0.19246459981418984,0.8382275948684503,0.4783781638468256,-0.7153427715184798,0.3053866722308661,0.2558404154257744,-0.888588488001153,0.20246548898025435,-0.7526845266270318,-0.8271004852481084,0.19890943366423702,-0.7352124681545905,-0.8241559311757094,LR
0.1299310299970116,-1.3035741662223035,0.01723148120853312,-0.7837852106142014,0.699387025603746,-0.5185705110680303,-1.7807966767551808,-0.31329110333559335,0.1895497504863832,-1.7834589236380758,-0.3574009346269981,0.19875230431133784,0.8607022982083197,0.47581526750276953,-0.7062156464627296,0.3053866722308661,0.5879030378400851,-0.49193719836299543,0.20216775356356315,-0.7523876037190818,-0.8270687669901594,0.17489952748183876,-0.7552605810551792,-0.8187751984740399,LR
0.10313081869106148,-1.2995074812108733,0.035890371796317905,-1.2636557816688914,0.6115612750185396,-0.6073041025462128,-1.7811359994848237,-0.3131958940803971,0.18985515471574071,-1.7426899666680697,-0.3373643966421848,0.21031441246565408,0.8624310943068983,0.46385461798886507,-0.6942360319624912,0.38999959035863613,0.1728249297448036,-0.8092579529465675,0.2010112438837625,-0.7523625783259289,-0.8267515844106649,0.12968154565299872,-0.7528288565628443,-0.8014782914404008,LR
0.12189063728338705,-1.3249232215009248,-0.001992500459150502,-0.8980401726303472,0.4798225772333943,-0.5185705110680303,-1.7825079684858445,-0.3135924537304811,0.18965778653461085,-1.8126848315327482,-0.3544409418606282,0.1842149486961781,0.8710750747997914,0.459583007438361,-0.7153427715184798,0.47461250848640635,0.3803639158234017,-1.0208055845472055,0.20050286572328985,-0.7526513848901536,-0.8267833026686139,0.1568603815552547,-0.7765067401391634,-0.8157091562731374,LR
0.1098308715175491,-1.3178067309371997,0.001965221452484011,-1.1494009693267024,0.6774304081891044,-0.5777261741417782,-1.7838108641576762,-0.31353829800734173,0.1895022927907792,-1.7973038629387466,-0.3426665153648204,0.18711439367394286,0.8952782909915614,0.4817955922597218,-0.7193359763518925,0.28423358125235526,0.2765944907531454,-0.17461623593420772,0.20082355579795708,-0.7534927791896748,-0.827066123801997,0.20464603322737832,-0.8005234650602812,-0.8376196263777816,LR
0.1875513745308576,-1.32594010096006,0.029670664402154642,-1.1036989246506614,0.545691854218631,-0.7256156224288297,-1.785339111565987,-0.31505989913167337,0.18969547352817878,-1.8117682105747537,-0.41556518575358475,0.2059223274166758,0.8693462787012128,0.4766694496403775,-0.722758823490843,0.6226846995497087,0.5048874162210288,-0.5977108409589682,0.20133125882143071,-0.7536625460459286,-0.8273330858064046,0.2037039919392774,-0.7748636285385919,-0.8329111557236006,LR
0.06963055455862409,-1.3178067309371997,0.008184928846647276,-1.080847752638684,0.34808387944824887,-0.7551935508332643,-1.785835576119535,-0.3146502372905072,0.1895706877050319,-1.7659595613075092,-0.31050947555633296,0.19003501875727377,0.8797190552926845,0.4749607354339294,-0.7147724138240176,0.601531608571198,0.42187165866388704,-0.624154294909048,0.2014750630022814,-0.754006137930299,-0.8274996066606396,0.18526400609497692,-0.7820324088155529,-0.8272615182029354,LR
0.09107050405549086,-1.33102324901807,0.014969958915414005,-0.966593089970452,0.10656318758140279,-0.7256156224288297,-1.7865047239960559,-0.31491664850917617,0.18951597177362975,-1.7767539791680906,-0.3342575840397505,0.19362058768114163,0.8779902591941059,0.46898076060820937,-0.7210472830926719,0.38999959035863613,0.08980930812574726,-0.015056789521927549,0.20144603211131165,-0.7546507108944822,-0.8275260385422635,0.18432668850961012,-0.7853058582358403,-0.8274671512998145,LR
0.10179047880392456,-1.3117071198326091,0.011012005409074738,-0.6238280542480579,0.19438885187780588,-0.9030828053851947,-1.786906212721968,-0.3151254100870837,0.18941770642743813,-1.77856309947992,-0.3355859539850951,0.1932605258865174,0.8641598904054769,0.46727204640176123,-0.7244701302316223,0.41115268133714694,0.02754753073931656,-0.5448242794675011,0.20151962204423518,-0.7550693789583114,-0.8276608411385487,0.18865225058462898,-0.7724292148292348,-0.8268818878702356,LR
0.09643076586457389,-1.310690656786029,0.004792298014911471,-0.6695302485980557,0.37004049686289037,-0.42983672585472665,-1.7874182187745835,-0.315053784775835,0.18934121578864105,-1.7824957824434926,-0.32955497964771147,0.18925776462011634,0.8710750747997914,0.4749607354339294,-0.7398723582134189,0.5169186904434279,0.3803639158234017,-0.7828150186095265,0.20244253432227807,-0.7555448614282176,-0.8281868355828773,0.22870452606646927,-0.7873987413833766,-0.8443712463919791,LR
0.09509042597743694,-1.309673777326894,0.0008345761032769586,-0.6695302485980557,0.2602581288630426,-0.6960376940243953,-1.787949219992725,-0.31505291129642954,0.18917064724738183,-1.7860183981363824,-0.32730985965455983,0.18679669209045052,0.8503293091818395,0.4723978390898734,-0.7045043397219503,0.32653976320937683,0.2558404154257744,-0.7563713914551005,0.20199356821774367,-0.7551951822860533,-0.8280890376208669,0.16658850992865126,-0.7434192862021252,-0.8136000988692488,LR
0.07901018941992054,-1.3269565640066399,0.0008345761032769586,-0.8294871056162857,0.5896048014185701,-0.5481484394724647,-1.7886209581190897,-0.3145969550467736,0.18898332893120381,-1.7847804429515735,-0.320097335207896,0.1847324678545507,0.8745326669969486,0.4536026826814088,-0.7124905157313839,0.5592250109538812,0.15207099035551813,-0.6505975756547815,0.20118070327058682,-0.755666606584097,-0.8278934416968449,0.13960806954122446,-0.7801311323808493,-0.8098697035861212,LR
0.09509042597743694,-1.309673777326894,0.005923174958823407,-0.71523214360014,0.5017790508333638,-0.8439271423114468,-1.7890837494246585,-0.3143925608658932,0.18884374747354518,-1.7798346526133781,-0.32830089354799463,0.19004198589726246,0.8935494948929829,0.46556333219531315,-0.7330268975929103,0.4957655994649171,0.44262559805317253,-0.04239912206772053,0.2014379304673199,-0.7565492589642218,-0.8280890376208669,0.19581810763215257,-0.8103290226275208,-0.8359508347069551,LR
0.07633060738511138,-1.3025572867631687,-0.003688931672370782,-0.8980401726303472,0.545691854218631,-1.080550182076681,-1.7895784871449762,-0.31378723963790134,0.18855313887869943,-1.7768366818109176,-0.308278338404711,0.1841043105131547,0.8658886865040556,0.4715436569522654,-0.7238997725371599,0.3053866722308661,-0.2630071177397635,-0.2010595513208105,0.20158105951117153,-0.7571532502097783,-0.8281921219592023,0.19591460613086198,-0.772959662886866,-0.8296790252521424,LR
0.09911034789938304,-1.307640434821179,0.015535281590017595,-0.5324242642438894,0.3041710760629817,-0.5777261741417782,-1.7896596483067735,-0.3138649793049882,0.18860701732135574,-1.7694744236276352,-0.3328129817241882,0.19646624633819235,0.8849054435884204,0.459583007438361,-0.7096382599442878,0.32653976320937683,0.006793604943839655,-0.2010595513208105,0.2008559623739237,-0.7578289358249083,-0.8279859532825309,0.14502143287442285,-0.7885356078795166,-0.8133127397979693,LR
0.12055084626598248,-1.2995074812108733,-0.013866360978168561,-0.71523214360014,0.32612754966295127,-0.7256156224288297,-1.791137817551422,-0.3139392250544532,0.18819525202126258,-1.8142234452836656,-0.3421334195314913,0.17900352798450897,0.8987358831887188,0.46556333219531315,-0.7159133628703344,0.6226846995497087,-0.0762220397846912,-0.5712675602132347,0.20060616168418263,-0.7589401985532952,-0.8280546761747547,0.1659123456230086,-0.8062306558856701,-0.8240794778448189,LR
0.13529074293636195,-1.310690656786029,0.007619374577338932,-0.8751890006183699,0.2822146024630121,-0.4889925826635957,-1.7920772148283957,-0.3146458698934797,0.18819413536960136,-1.8019662244280905,-0.36248981501630206,0.1920599483236366,0.8555155558542364,0.4946104239112341,-0.7136314647777007,0.5169186904434279,0.08980930812574726,-0.7034846567592872,0.2015229977292318,-0.7587629917152932,-0.8284115065766858,0.22618611769455493,-0.7493402697807799,-0.8367997303120198,LR
0.10715074061300758,-1.3188236103963342,0.008184928846647276,-0.6238280542480579,0.32612754966295127,-1.0213943252678117,-1.7925693622988692,-0.3148712275800915,0.188049808142382,-1.7886114705833382,-0.3419944650437875,0.1909089767974764,0.8831766474898417,0.47581526750276953,-0.695376981008808,0.6861441110386729,0.11056311157694723,-0.3861637289713688,0.20107335648769814,-0.7590687073289456,-0.8282291265934765,0.1527224179602443,-0.7739425717084845,-0.8137266423134818,LR
0.10045068778651997,-1.3137404623383242,-0.00029630084063497655,-0.9208910452944109,0.5237355244333334,-0.9030828053851947,-1.7933827007500727,-0.3147349647928378,0.18783178190551883,-1.7925381231458708,-0.33299213688129065,0.18582268592000772,0.8693462787012128,0.46898076060820937,-0.7147724138240176,0.32653976320937683,0.3596099764341162,-0.22750283206654398,0.2007979005919837,-0.7591674561776033,-0.8281709764539028,0.17477198750801998,-0.7719128851609701,-0.8216145170040243,LR
0.1098308715175491,-1.3269565640066399,0.003096098396395946,-0.5552751369079532,0.5896048014185701,-0.9622388559291849,-1.793989682630323,-0.31484152928030534,0.18764195112310295,-1.800306141170521,-0.3460923115396563,0.18695665762459487,0.8607022982083197,0.47410655329632145,-0.6942360319624912,0.707297617677479,0.2558404154257744,-0.49193719836299543,0.20033408147346482,-0.7588407733426605,-0.8279119440139819,0.1505434413705039,-0.7481872679825068,-0.8084592714472714,LR
0.13797087384090348,-1.3117071198326091,0.005923174958823407,-0.39531842956367996,0.5237355244333334,-0.8439271423114468,-1.7946001181770326,-0.3153420329796406,0.1875473148948104,-1.8061323700604737,-0.364756783199344,0.19094659935341632,0.8849054435884204,0.48435848860377784,-0.7261814369724015,0.8130633496768964,0.2143328085233745,-0.3861637289713688,0.20139944765835982,-0.7594407064163545,-0.8283269245554875,0.2227344406253316,-0.7923872389595794,-0.842997722757697,LR
0.07901018941992054,-1.3411895451340907,-0.009343084797225575,-0.4181693022277436,0.9628642773593646,-1.435484741724532,-1.795170836559458,-0.31460831027904457,0.1870481716022225,-1.803758976508527,-0.32319715638956537,0.17692536946863135,0.8987358831887188,0.4510397863373527,-0.7221882321389886,-0.03400563952835668,0.6294107806805707,-0.22750283206654398,0.20034285825445586,-0.7601792936953555,-0.8282026947118518,0.148060798176433,-0.8132602691817318,-0.818537929516102,LR
0.08437045122900357,-1.328989906512355,-0.02121671372153888,-0.48672221956784845,0.9189513301594255,-1.435484741724532,-1.795988492093735,-0.31394359245148074,0.18645355459259624,-1.8152916877535077,-0.3210630252010575,0.1706290257178968,0.8831766474898417,0.46983494274581733,-0.7090679022498255,-0.03400563952835668,0.19357873319600355,0.010487560666788872,0.19964004063818477,-0.760593227225345,-0.8280599625510797,0.16468958142957116,-0.7837380447118908,-0.8198639993587966,LR
0.06561008376694533,-1.314756925384904,0.003096098396395946,-0.18965952786940893,0.7213434992037153,-1.376328884915663,-1.7956249936988766,-0.3130919500311459,0.18619058312636735,-1.7682080394093542,-0.305088502680693,0.18698759172614532,0.9039222714844547,0.46043718957596896,-0.7079269532035086,0.4323057723156577,-0.6988391652243304,-0.015955784510961447,0.19881299781404244,-0.7621529179445539,-0.8278300051809461,0.1410967107171204,-0.8086388497290609,-0.8151687103133911,LR
0.15271131938101562,-1.3188236103963342,-0.014431683652772023,-0.02970250620982642,0.8311257233888912,-1.2284396303637326,-1.7966395082213438,-0.31357149022474967,0.18577630536003595,-1.843383018766903,-0.37572457452439334,0.1776078705019403,0.8814478513912631,0.46214590378241704,-0.7113498003424592,0.05154837507388038,-0.2630071177397635,-0.3068333671211295,0.19797920361990734,-0.7628881234136693,-0.8276846298320107,0.15357538371107493,-0.7850557610527746,-0.8159279709787907,LR
0.08705058213354508,-1.3533891837558263,-0.013866360978168561,-0.39531842956367996,0.9628642773593646,-0.9918165905984984,-1.797469251588229,-0.31307535392244196,0.18533020302135855,-1.8197309244043918,-0.3332980115397581,0.17311963892111526,0.8831766474898417,0.44847688999329666,-0.7421542563060526,2.589931720738003,1.2105199960758795,-1.1530226810932582,0.1994915104983387,-0.762993635882098,-0.8280018124115054,0.1790840532895131,-0.8080741141543963,-0.8293178491717266,LR
0.10045068778651997,-1.346272693192101,0.003096098396395946,1.1356976723003858,-0.33256565163343177,-1.0509724474073676,-1.7966688643862487,-0.3139820255453213,0.18511608506530985,-1.8039752094600838,-0.3450663205423968,0.1848762696239205,0.8745326669969486,0.46727204640176123,-0.7050746974164128,4.536025512394354,1.9369063793819299,-3.2156081054995163,0.20186191650288016,-0.7618458496069473,-0.8284643703399353,0.1538297888440362,-0.7722584495483243,-0.8138531857577156,LR
0.07499026749797444,-1.3035741662223035,0.027974464783639245,1.0214428599581968,-0.6838686539742569,-0.5777261741417782,-1.794661420756688,-0.3145593954323382,0.18539217718855888,-1.7381361523974368,-0.31383651791286366,0.20412842821234328,0.8918206987944042,0.46898076060820937,-0.7067860041571918,4.726404855288701,1.35579689211045,-1.91988197962384,0.2044004316202474,-0.7615482503370202,-0.8287260459680179,0.1578057969167369,-0.7922978224935909,-0.8187277446824524,LR
0.10045068778651997,-1.307640434821179,0.01610083585932594,1.0671447549602808,-0.9253894321299062,-0.31152520597210964,-1.7932851346725927,-0.3157438335061575,0.18557363308351535,-1.7695674641008152,-0.3340382282132494,0.1968614225183609,0.8693462787012128,0.46385461798886507,-0.6936656742680287,4.409106412309563,0.6501647200698562,-1.9727681947066147,0.2058458999357482,-0.7611647530960005,-0.8286282480060075,0.12764360533060287,-0.7602887445824598,-0.8020081921131281,LR
0.13395095191895737,-1.292390990647148,0.010446451139766263,1.2956546789925725,-0.6619121803742873,-0.42983672585472665,-1.7922006834043211,-0.3170627874084196,0.18570791044578325,-1.788848379195602,-0.3555324774275594,0.19562545188433653,0.8364990820165495,0.4766694496403775,-0.7113498003424592,3.986043207205029,1.1690123891734796,-2.369420003957811,0.20839724265610213,-0.7597883564725875,-0.8290088671014009,0.18894377052478625,-0.7311799872297838,-0.8197295469492988,LR
0.17281147786047812,-1.2934078701062832,-0.02121671372153888,0.38161513253736307,0.06265025476293086,-0.5185705110680303,-1.793104680600085,-0.3182856585760801,0.18542428092382066,-1.8518040430755376,-0.3825438315530278,0.17614755796027465,0.8831766474898417,0.4732523711587135,-0.7016520839348543,4.345647555034326,1.480321615950847,-2.237202734207412,0.21054890427287037,-0.7591620452817863,-0.8292864018584588,0.1585987041613776,-0.7784160842249337,-0.8166845953224352,LR
0.1969315582618864,-1.289341185094853,0.015535281590017595,-0.9437419179584745,0.32612754966295127,-1.5242183332027146,-1.794430888520518,-0.3197653326889488,0.18542735171588895,-1.8177727670383015,-0.40840072732468014,0.2008123482632446,0.8814478513912631,0.4553113968878569,-0.6759815481935985,4.30334026464985,1.6671059829497321,-3.0569477282077298,0.21078115140062958,-0.7582347530111726,-0.8290405853593499,0.07673221207790389,-0.7653827939267843,-0.7837991177523072,LR
0.12457076818792856,-1.2791748889788324,-0.0014271777845469118,-0.6466792262600352,0.853082053174189,-1.5833741900115834,-1.794915265241458,-0.31944389226773534,0.18520513803529626,-1.7915896272109546,-0.34068881721592875,0.18905738967403643,0.8641598904054769,0.4723978390898734,-0.7096382599442878,3.4149065640563077,1.8331380418163576,-2.5809665963323716,0.21251625348883005,-0.7570538249991436,-0.829452922712693,0.17347634332954334,-0.7621261521128858,-0.8194421878780193,LR
0.12457076818792856,-1.3157738048440393,0.007619374577338932,-1.0351460073105567,1.2263413853003116,0.014230713355838028,-1.795889199183026,-0.31903510390597456,0.18534779028502357,-1.7980981529042257,-0.355316617311441,0.19129133344006533,0.8537870430023358,0.4723978390898734,-0.6816860597677902,2.48416557307829,1.7293683448699304,-2.1314285719984007,0.212595244517748,-0.7553811818297578,-0.8292943314229457,0.1258243049633251,-0.7327686421856555,-0.7965193702195088,LR
0.14199079576284956,-1.3137404623383242,0.02232031165878432,0.05267518085996921,1.3361236094854874,-1.8791530865856867,-1.7957398281086545,-0.3188700162983405,0.18528721193239947,-1.789029291226785,-0.37197717299436844,0.20129921200566636,0.8918206987944042,0.46385461798886507,-0.7124905157313839,2.2091744204836274,1.521828950977076,-1.1794656154302994,0.21311104918521317,-0.7551850368563967,-0.8293868430086316,0.1575210251233425,-0.7969118465994507,-0.8193920977646767,LR
0.12457076818792856,-1.3178067309371997,0.02232031165878432,-1.7206753303855609,1.2263413853003116,-2.67775560362445,-1.796933069870398,-0.3185442084800995,0.18504154856692023,-1.7808822194225131,-0.35887350262562046,0.2004442045862331,0.8814478513912631,0.46214590378241704,-0.6976588791014416,1.6591907297599853,1.1690123891734796,-1.338126512335124,0.2126620830806788,-0.7548468558678432,-0.8292335380952095,0.12954253382968295,-0.7768422199626842,-0.8055434995863956,LR
0.17281147786047812,-1.3117071198326091,0.015535281590017595,-1.4693143840152487,0.9848206071446624,-2.08619897288697,-1.7985623370226493,-0.31917748104906635,0.18487628412105214,-1.8144724146980074,-0.39573664253652924,0.1979691977765899,0.8434145496575419,0.46385461798886507,-0.6942360319624912,1.2784337066124734,1.4595665890568774,-0.7828150186095265,0.2120092256023559,-0.7533886194452003,-0.828823843930029,0.1325434346951446,-0.731378316985172,-0.7987786979634242,LR
0.1567312413029614,-1.3350895176169455,0.004792298014911471,-1.2179538866668072,1.0946028313298382,-2.263666155843335,-1.8002511799213257,-0.3195504567552029,0.1844854560396077,-1.829669886803237,-0.38824883089724455,0.18843201918863647,0.8503293091818395,0.4527485005438007,-0.7181950273055757,1.0034422769109475,1.6463523154366175,-0.3068333671211295,0.21149747175688663,-0.75242074545596,-0.8285410227966467,0.15122837826693822,-0.7569399970855505,-0.8102414249535569,LR
0.15405111039841987,-1.3869378776561834,-0.00877753052791723,-0.9208910452944109,-0.029907099200566903,-2.67775560362445,-1.8023872726265018,-0.32117774888759626,0.18378084884134632,-1.8689691488913474,-0.40112003652555767,0.17485083386554792,0.8555155558542364,0.4330988120664962,-0.6873908049993744,1.2572806156339627,1.7293683448699304,0.27492175375889405,0.2093485106881155,-0.7511667703504036,-0.8274070950749536,0.05734276198406357,-0.7489785700912924,-0.7737178233617215,LR
0.11519058445689945,-1.3381393231692407,0.003096098396395946,-1.0579968799746202,-0.029907099200566903,-3.0031124286029875,-1.8034458213963263,-0.32183809931813295,0.1832074482132838,-1.8088003917774915,-0.3544409418606282,0.18602166743808943,0.87280387089837,0.4279730193783839,-0.7119201580369214,-0.03400563952835668,1.3765519190044198,1.1475545216811025,0.20694367269660957,-0.7509070473511944,-0.8264529041483074,0.08864269111442262,-0.7842597528141998,-0.7914444508414027,LR
0.1674512160513951,-1.314756925384904,-0.016693437540595893,-0.5781263089199304,1.7093832292409543,-2.7664901637782378,-1.8049637078052603,-0.32156994114065307,0.18251261171705846,-1.8530661198645044,-0.3862606456172058,0.17690279593506741,0.8987358831887188,0.4493310721309046,-0.7181950273055757,0.5380719199753704,1.0652428281651376,0.9360068900804643,0.2059525715816376,-0.7514806023077812,-0.8260405667949643,0.13778202102718382,-0.8113926079598057,-0.8143751774651781,LR
0.09107050405549086,-1.2974741387051583,-0.0025580547284588468,-0.6466792262600352,2.6095969210636425,-2.32282123771172,-1.8050414153005983,-0.31931374383632,0.18213490429263415,-1.7818324383291553,-0.3189533639852274,0.18569560528661094,0.9194815071833315,0.45702011109430496,-0.7096382599442878,1.066901965506775,-0.07454092474708618,0.8566768746389176,0.20533684663827625,-0.753153245477167,-0.825673163640383,0.13521435118390046,-0.8278922989995859,-0.8160729686753075,LR
0.105810949595603,-1.330006369558935,0.001965221452484011,-1.0122948352985792,2.587640735093017,-2.7073331445586426,-1.8058469830022668,-0.31745847357909845,0.18165334826371127,-1.8007635901636545,-0.3436059875301133,0.18584358733997422,0.9281254876762247,0.45872882530075304,-0.7244701302316223,1.1092081474637967,-0.07454092474708618,0.618685962292546,0.20532469417228882,-0.7551444551377703,-0.8256335158179463,0.1633116098605869,-0.8453863280333291,-0.8294153930766559,LR
0.06025037082759497,-1.290357648141433,-0.004254254346974373,-1.5378680497251378,2.016772709123152,-2.9143798058004107,-1.8063028669749155,-0.3150861035138375,0.18111037639341848,-1.7619200540969526,-0.2903768055360012,0.18448806058374145,0.9004646792872973,0.45616557902546484,-0.7210472830926719,0.9611359564004941,1.1067507069437086,-0.4126071829214486,0.20506004046856327,-0.7555867958707984,-0.8256705204522204,0.15594803211291064,-0.8133254826945203,-0.8215090641338302,LR
0.10045068778651997,-1.3117071198326091,0.024582065546608193,-2.040589942465762,1.4898184932412584,-2.4411333387997,-1.8071602396734765,-0.3141672031792814,0.18102634835590822,-1.7611076729283555,-0.3371485365260664,0.2018501734359854,0.9142950480759263,0.4544572147502489,-0.6993701858422208,0.9188293587831774,0.8161959633079687,-1.3116827119763517,0.2038576214728103,-0.7563470267330666,-0.8255700793020476,0.11261075878689056,-0.8168349109085067,-0.8057939501531074,LR
0.07633060738511138,-1.2822246945311273,-0.007646885178710178,-1.5835694957053514,0.15047604849253873,-2.1749315956895474,-1.8077326848891322,-0.31373221043535654,0.18066371572891068,-1.7716996416111852,-0.30015780318619645,0.18351126755730304,0.9142950480759263,0.4467681757868486,-0.7330268975929103,0.580378101932392,0.6086568412912851,-1.6025607054272293,0.2033566698193299,-0.7576145290781653,-0.825955984773766,0.15630096018861012,-0.837449103992271,-0.8255241821664824,LR
0.1125110024220906,-1.32594010096006,-0.005385131290886308,-1.8577811650657705,-0.2886527044334926,-1.731263638298635,-1.8094215277878085,-0.31461180419666634,0.1803356993034124,-1.8117294437109288,-0.34634924625276925,0.1817195978377669,0.8900919026958257,0.46043718957596896,-0.6976588791014416,0.6226846995497087,0.691672598848427,-2.4223062190405855,0.20226767383945932,-0.7577822668484879,-0.8261145760635132,0.12488698737795831,-0.7870316632598446,-0.8055145000470919,LR
0.16343129412944898,-1.307640434821179,-0.005950453965489769,-2.063440665455869,-0.2886527044334926,-1.612952312151139,-1.8116974939845942,-0.3161945488793808,0.180092827567086,-1.8339833465181552,-0.3824197338344496,0.18438104531351224,0.8814478513912631,0.45616557902546484,-0.6987998281477585,0.136161251635621,0.7539342810781977,-2.607409703873759,0.20074659018003693,-0.7577396560439302,-0.8262440922834733,0.1196349047523931,-0.7790453610081314,-0.8022032799229876,LR
0.1098308715175491,-1.3035741662223035,0.01383908197150207,-2.337652334816288,-0.3106091780334622,-1.4650628638640877,-1.8129952091567365,-0.3169169163477061,0.18011990636987207,-1.7758830169608244,-0.3399695748047325,0.19606521776043367,0.9246678954790675,0.46043718957596896,-0.6993701858422208,-0.11767705937670783,0.6709185235210561,-2.50163727370821,0.19914786576569515,-0.7587629917152932,-0.8264951951589066,0.12311964774075482,-0.8271292336695334,-0.811401406525695,LR
0.15271131938101562,-1.312723582879189,0.007054051902735342,-2.291950888836074,-0.44234787581860757,-1.2284396303637326,-1.8148567353783853,-0.3184708362100399,0.18013163121231515,-1.8138762664809671,-0.37764546737956955,0.19194401511422196,0.8918206987944042,0.4971733202552902,-0.691383776175395,-0.43497511440623704,0.1728249297448036,-2.4223062190405855,0.19864623897521547,-0.7590639727951058,-0.8270793397428089,0.18791805221682545,-0.7759467106942877,-0.8272114280895929,LR
0.18085132170437,-1.308657314280314,-0.01047396174113751,-2.200546500136078,-0.4862606792038748,-0.7256156224288297,-1.8174702974715826,-0.32043616487235105,0.18002917842239363,-1.8504472028416656,-0.3965668737523699,0.18180905591522414,0.9471423155722589,0.4630004358512571,-0.7090679022498255,-0.18113677568322178,-0.0762220397846912,-2.369420003957811,0.1974276166914792,-0.7611782803355426,-0.8275630431765384,0.14248750376495395,-0.857328468524716,-0.8234362153366327,LR
0.16343129412944898,-1.3361063970760803,-0.030263497678129476,-2.5433103384668176,-0.574086429789081,-0.8735048769807602,-1.8208592076849297,-0.32226435726800307,0.1795825177578858,-1.877286794896448,-0.38779438854752146,0.166097597869141,0.9091086597801906,0.45018560419974474,-0.722758823490843,-0.6465068555119353,-0.3460227393588198,-2.157871679539788,0.195969995909991,-0.7628029018045538,-0.8279145872021444,0.14599586526698563,-0.825272329315696,-0.8197058200535058,LR
0.09375063496003237,-1.3452558137329658,-0.04383355781566306,-2.314801611826181,-0.8595201551446695,-0.6368820309506472,-1.8235452967737753,-0.32316578801444973,0.17897115097334035,-1.8552982297349565,-0.33048571253704817,0.15492146927020783,0.9436847233751018,0.4493310721309046,-0.7107792089906045,-0.9638048828307781,-1.0101478482493558,-2.3165320568315737,0.19377107470327165,-0.7655279642103183,-0.8281921219592023,0.11882377751149255,-0.8574461217694378,-0.8145280841269598,LR
0.05087018709656585,-1.3422060081806708,-0.024609344553274685,-2.314801611826181,-1.2986489080707009,-0.37068106278097873,-1.8251745639260253,-0.32378071751590176,0.17865876767110003,-1.8052484855652666,-0.2974407622914094,0.1664244960774184,0.936769468169118,0.4493310721309046,-0.7181950273055757,-0.8580388737244972,-0.9893937729219849,-2.2636458417487995,0.1919704843261392,-0.7681082851529818,-0.8285436659848084,0.13278096946119855,-0.8537087824128191,-0.8192181005288561,LR
0.14199079576284956,-1.3472891562386808,-0.015562560596683957,-1.8349304420756636,-1.0571281299150517,-0.28194747130279624,-1.8272977053819792,-0.3257460461782129,0.17852197784259427,-1.8517316782630646,-0.37640449019378686,0.17394817120859077,0.9177527110847531,0.4493310721309046,-0.7136314647777007,-1.3234092306600742,-1.2799486524958104,-1.9727681947066147,0.18982422380536512,-0.770313225198351,-0.8286784685810936,0.12725828615044124,-0.8299912328854222,-0.8134155563464085,LR
0.14065100474544498,-1.346272693192101,-0.041006481253235604,-1.377910893358994,-1.2327796310854642,0.2208765366321064,-1.829497690916656,-0.3276362556116532,0.17816716177722572,-1.8811419441323696,-0.37037264192880764,0.15774539045049313,0.8814478513912631,0.4424965652363444,-0.7170543119166513,-1.2387967281925993,-0.6158235436052742,-2.1314285719984007,0.1876691865036003,-0.7713074773046984,-0.8287392619088306,0.1247553985160817,-0.7932168624109318,-0.8064952117399004,LR
0.16075116322490748,-1.3554221098489865,-0.013301038303564971,-1.3550595716730598,-1.3206052378559985,0.0729871852126154,-1.8313704415542982,-0.3301352801907075,0.178138407996948,-1.8639053349899497,-0.3952070424135828,0.17507935605718225,0.9142950480759263,0.45616557902546484,-0.7079269532035086,-0.6465068555119353,-0.470546239756447,-1.6818910672774685,0.1861109703092164,-0.7727406883341883,-0.8288344166826791,0.131199203859975,-0.8213043895994228,-0.8135078276078287,LR
0.1500311884764741,-1.3594887948604166,0.01723148120853312,-0.8066359336043083,-1.1449538805002577,0.30961012811028893,-1.8318962622727513,-0.33238973053622967,0.17853509849961438,-1.8218096897912701,-0.3932878974135981,0.19378974984007144,0.9073798636816119,0.4544572147502489,-0.6930953165735665,-0.9003451942349505,-0.3045149965183344,-1.576116905068457,0.18382428129258802,-0.7737038277895888,-0.8286361775704945,0.10231983497346811,-0.8053882586534623,-0.800067859301551,LR
0.15405111039841987,-1.3696550909764376,-0.02291314493475916,-0.8523381279543062,-0.727781457359524,0.04340929555520508,-1.8335825149215832,-0.3342153024936654,0.17834052194763778,-1.8782232300292852,-0.39276616263901193,0.16748489478372316,0.9955486771441298,0.4681262285393693,-0.7056452887682672,-0.6253540416402881,-0.09697588809545937,-0.9150322883599253,0.18254759722691224,-0.776585806174042,-0.8289057827630647,0.14066280488026583,-0.9092794352640587,-0.8305041939614134,LR
0.1567312413029614,-1.348306035697816,-0.017824314484507827,-1.2865069536808689,-0.26669623083352306,-0.34110313437654416,-1.835311938401159,-0.3355106724519797,0.17817386168719349,-1.863751990506376,-0.3886167544150012,0.17276515083848193,0.9246678954790675,0.48435848860377784,-0.6925247252217118,-0.37151542581040936,-0.0762220397846912,-0.3597201018169428,0.18186435858362085,-0.7775475929054884,-0.8288952100104153,0.15917634552428178,-0.817461498474682,-0.823394034188555,LR
0.15539145028555712,-1.328989906512355,-0.029132620734217542,-0.8980401726303472,0.43590977384812707,-0.9326609275247504,-1.8367046294009357,-0.3359840982897454,0.177789175189886,-1.8677441159944794,-0.37880953893693736,0.16728981486403527,0.8970070870901401,0.4416423830987365,-0.7062156464627296,0.009242096129456579,0.048301456534793466,-0.3068333671211295,0.1803047921152384,-0.7781380569115028,-0.8284062202003608,0.10184813951474152,-0.804463840302077,-0.799740955403948,LR
0.1192110552485779,-1.3249232215009248,-0.009343084797225575,-0.71523214360014,0.37004049686289037,-0.8735048769807602,-1.8370120057158283,-0.33591946081374047,0.1776551769905335,-1.8200453667443044,-0.3508228816147554,0.1794577855117828,0.888363106597247,0.4578742932319129,-0.7096382599442878,0.2419272607419019,0.2765944907531454,0.11626132450580404,0.17972890025483565,-0.7783145873875278,-0.8280890376208669,0.14114934626187095,-0.7928222198129222,-0.8125772060283628,LR
0.15271131938101562,-1.3401726656749557,0.007619374577338932,-0.6923812709360763,0.545691854218631,-1.5242183332027146,-1.8374169481081999,-0.336426078868914,0.17758985286834908,-1.82620757512074,-0.3871625388958872,0.18963900652030669,0.8676174826026342,0.4988820344617383,-0.7102088512961423,0.2419272607419019,0.5463951590615143,0.22203467265438823,0.18088946075663193,-0.7776253745328557,-0.8282846335448883,0.2273488233818027,-0.7597387997014173,-0.8390722396647092,LR
0.13127082101441587,-1.3361063970760803,-0.02969794340882113,-0.966593089970452,0.6554740784038068,-1.7016857098942006,-1.83866631194991,-0.3363020447933368,0.17700863567865793,-1.8571633466278656,-0.36102948200401863,0.16569406112098634,0.9246678954790675,0.42626430517193586,-0.7102088512961423,0.5169186904434279,1.0029811459353668,0.2484784730131605,0.17917731332640777,-0.7782550675335423,-0.8275947614344873,0.07507824130631714,-0.8411978725212343,-0.7954991137003776,LR
0.15807103232036596,-1.344239350686386,-0.012170161359653035,-1.1494009693267024,0.5896048014185701,-1.7904194951075043,-1.8400166955355597,-0.33680604241029405,0.17664209477084591,-1.855722942265305,-0.38936658429204457,0.17678546929765496,0.9194815071833315,0.4450594615804005,-0.6976588791014416,0.41115268133714694,0.9614732671567959,0.16914793795857497,0.17772576877791327,-0.7785553722513779,-0.8270000440979356,0.09016034932139867,-0.8239848666663122,-0.7984860662486347,LR
0.15271131938101562,-1.3228898789952097,-0.034786773859072334,-0.8523381279543062,0.9189513301594255,-1.672107781489766,-1.8413774401205873,-0.3366872492111498,0.17605529432284864,-1.8701381852071333,-0.37342701887550456,0.16415432318344778,0.8658886865040556,0.4510397863373527,-0.7130611070832382,0.41115268133714694,1.1067507069437086,0.010487560666788872,0.177214014932444,-0.7777457669647807,-0.8266273545670292,0.1367691241980725,-0.7715007626523162,-0.8073414710232102,LR
0.15405111039841987,-1.3361063970760803,-0.030263497678129476,-0.6238280542480579,1.2263413853003116,-1.4059070070552184,-1.8425085158860603,-0.33650119809778456,0.17559076723176037,-1.871624248320422,-0.37994826659403186,0.16587520676069642,0.9160239149861744,0.4553113968878569,-0.6982292367959039,0.3476932698481828,1.0652428281651376,0.3542517692004408,0.17619320778950273,-0.7778587194149575,-0.8261542238859498,0.11203244260931011,-0.8179280776280358,-0.8057544053267847,LR
0.14199079576284956,-1.3330561751112304,-0.009908407471829165,-1.0579968799746202,1.7532956011822052,-1.7608415667030697,-1.8433529373353992,-0.3356250982540965,0.17530155445149126,-1.8381537995798536,-0.372530369162397,0.1788917750590878,0.902193475385876,0.459583007438361,-0.7096382599442878,0.7496039381879324,1.2105199960758795,0.46002558500075985,0.17639237320429607,-0.7771607138545831,-0.8258106094248306,0.14263663780841415,-0.8078939366139081,-0.8156247939769814,LR
0.12323097717052399,-1.328989906512355,-0.034786773859072334,-0.8066359336043083,1.5996008612411066,-1.8199972297768177,-1.8446946867548986,-0.3336955822474096,0.17447746552547372,-1.8550458143771624,-0.35090240902595704,0.16289048398946823,0.9419558564648537,0.4647091500577052,-0.7124905157313839,-0.5195880325340071,-0.32526893590761985,1.0153372519307036,0.17557883312013994,-0.7790071820520854,-0.8256229430652962,0.1525800320635472,-0.852965886210433,-0.8265628929378974,LR
0.12457076818792856,-1.3411895451340907,-0.02574022149718662,-0.39531842956367996,1.0287335543446015,-0.8735048769807602,-1.8451851073921433,-0.33323176468310434,0.1741720612961166,-1.8507358006056955,-0.35794189580868785,0.1675977624515429,0.9091086597801906,0.47068912488342535,-0.7261814369724015,-1.7464734056386295,-1.0101478482493558,0.7509030588385985,0.17469777933605374,-0.7807048506146242,-0.8256995955220077,0.1923482105666694,-0.8224883173934514,-0.8366468236502381,LR
0.1594113722075029,-1.346272693192101,-0.039875604309323666,-0.39531842956367996,0.940907947574067,-0.6368820309506472,-1.8464767786479805,-0.3334204362346862,0.17374857115357994,-1.8912049604954546,-0.38623442778933725,0.15890750940063547,0.940227060366275,0.4817955922597218,-0.7176246696111135,-1.8945454581485004,-0.055468104473548316,1.3062148989728886,0.17379984712698496,-0.7822246359771838,-0.8257656752260689,0.19591325650150945,-0.8500265720051555,-0.8423992777193433,LR
0.13529074293636195,-1.3676217484707223,-0.039875604309323666,-0.4638713469037847,0.6774304081891044,-0.8439271423114468,-1.8477045570743198,-0.33358639732172574,0.173239936321871,-1.88636513291838,-0.37351178985228,0.1564263715078017,0.9592438882623094,0.46983494274581733,-0.7221882321389886,-0.6465068555119353,-0.11772981389093629,1.4648752762646746,0.17347510623032183,-0.7842895690932918,-0.8257630320379064,0.1775225321285782,-0.8764756937228639,-0.8395731407981328,LR
0.07499026749797444,-1.3869378776561834,-0.024609344553274685,-0.37246740722565946,0.3041710760629817,-0.9030828053851947,-1.847893645312975,-0.33329552867970386,0.17287311625114396,-1.8408468043868913,-0.3331774095315622,0.16296879464294295,0.9039222714844547,0.4365162404793923,-0.726752028324256,0.3053866722308661,-0.6365774829945596,1.279771618227155,0.1727959184090263,-0.7856571730110024,-0.825234394405416,0.12689253659589225,-0.8249287818411086,-0.8124691168364137,LR
0.09509042597743694,-1.3350895176169455,-0.020651391046935287,0.4273171772134041,-0.5301736264038139,-0.7551935508332643,-1.8470872141946915,-0.33371741923254644,0.1726869145866272,-1.823990971995818,-0.3322335677282911,0.17069172997779666,0.8935494948929829,0.44335074737395247,-0.7244701302316223,-0.22344309619367508,-0.07454092474708618,0.9360068900804643,0.17196685017388616,-0.786299040527277,-0.824827343428398,0.13763896031581047,-0.8106308872382642,-0.8141959075858476,LR
0.11385079343949488,-1.3249232215009248,-0.029132620734217542,1.5241644533509073,-0.5301736264038139,0.30961012811028893,-1.845701430527832,-0.33433933656924225,0.17264922759305926,-1.8406684768132964,-0.3426743807131807,0.1666636083218364,0.9298542837748034,0.4510397863373527,-0.7364495110744684,-0.32920910529995606,-1.0516555910898413,0.06337422608086365,0.17169679537416616,-0.7885445622912725,-0.8250017938471198,0.16852522804960357,-0.855468202649601,-0.8329559731934332,LR
0.1192110552485779,-1.3025572867631687,-0.03591765080298427,1.2042507393144473,-0.5082171528038443,0.014230713355838028,-1.844629930508784,-0.33483459939214455,0.1725060170175015,-1.8414799964960318,-0.33796303704518554,0.16448902458851242,0.9142950480759263,0.45616557902546484,-0.7050746974164128,-0.13883019192124815,-0.8648704084624431,0.06337422608086365,0.1707205472731787,-0.7898891699017614,-0.8247374750308746,0.12615833822808872,-0.8196821194307734,-0.8113486800905982,LR
0.12457076818792856,-1.3340730545703652,-0.026305544171790082,0.5415721392295499,-0.2447399010482255,0.427921841728027,-1.8442750662800746,-0.33543293278489256,0.1725216501407591,-1.8480798396907578,-0.3553498265600746,0.16789177575907274,0.9333118759719606,0.4510397863373527,-0.6982292367959039,-0.41382202342772617,-0.5743156648267033,-0.12172955319969832,0.16906713676189353,-0.7913724317175572,-0.8243938605697553,0.10116455224765974,-0.8384992432394447,-0.804926600295758,LR
0.13127082101441587,-1.3005239442574537,0.004226975340307881,0.3359132375352789,-0.420391402218638,1.4039919291933975,-1.8431146343496956,-0.33616665548548885,0.17320197016538807,-1.798908811101098,-0.35492946738658077,0.19077883062248474,0.8607022982083197,0.4681262285393693,-0.7136314647777007,-0.7734263712570223,-0.9478860300814994,-0.22750283206654398,0.1686127695613647,-0.7915557258133532,-0.8243621423118056,0.1723257843064688,-0.761790672289365,-0.8189544683533704,LR
0.1996116891664279,-1.2934078701062832,0.004792298014911471,0.17595633561486188,-0.6838686539742569,0.7532784729714436,-1.842837477616324,-0.33822282600596904,0.1737868164729783,-1.8350128221241735,-0.41000875410062365,0.1935746045572152,0.8745326669969486,0.45702011109430496,-0.7033633906756335,-1.2387967281925993,-0.5950696042159888,-0.015056789521927549,0.1669951413110425,-0.7917194054118132,-0.8240079550980369,0.1303988736538949,-0.7738067662488627,-0.8053510480982904,LR
0.16477108514685357,-1.2964576756585782,-0.019520514103023353,-0.0754045359184718,-0.26669623083352306,0.36876598491915796,-1.8430058438562222,-0.3392081107753409,0.17394147272806412,-1.8463103477286154,-0.37714033722930024,0.17675481388170414,0.87280387089837,0.49631913811768225,-0.6982292367959039,-0.03400563952835668,-0.40828455752667614,-0.5183804791087289,0.16768243077632983,-0.7914393915532909,-0.8242511284089825,0.20082995623295827,-0.7587175695372325,-0.8290357627439561,LR
0.15807103232036596,-1.2934078701062832,-0.014431683652772023,0.08455227619757115,-0.5301736264038139,0.04340929555520508,-1.8427986238686551,-0.3402947191557477,0.17409277902816625,-1.8345415893572348,-0.371382902229346,0.18016063059385934,0.852058530150435,0.45189396847496066,-0.6856792646012032,-0.3503621962784668,-0.5950696042159888,0.08981799179876666,0.1659527297841238,-0.790903712867422,-0.8234687447128963,0.09204780597098179,-0.738927621470776,-0.7849828262202397,LR
0.146011266554528,-1.3198400734429148,0.024582065546608193,0.5415721392295499,-0.2886527044334926,-0.07490222432741195,-1.841344630289222,-0.34127214261047034,0.1746580839316844,-1.7914526509587727,-0.37786220142328353,0.20223503824897032,0.902193475385876,0.4732523711587135,-0.6936656742680287,-0.4772814349166903,-0.44979230036716156,0.14270465721284142,0.16516214435794369,-0.7914042207304812,-0.8232572896598997,0.1418059409419012,-0.7951725954903354,-0.8132151958930391,LR
0.1674512160513951,-1.3218734159486298,-0.007081330909401704,0.7015289962477799,0.2822146024630121,-0.25236954289836167,-1.840848165735675,-0.34197354657306384,0.1747767281706943,-1.844503811874375,-0.39047822019367495,0.18238900064789695,0.902193475385876,0.46898076060820937,-0.7313155908521309,-0.5618942144910287,-0.3045149965183344,0.6980164973471316,0.16548756039160611,-0.7922388514102313,-0.8234370264549465,0.19855987966191885,-0.8181210289493794,-0.8382602525642122,LR
0.14065100474544498,-1.33102324901807,0.002530775721792484,0.06170135863132041,0.5017790508333638,-0.6368820309506472,-1.8404354525937685,-0.34214736897475295,0.17491268051045386,-1.8211084402989708,-0.37303200360228367,0.18698313275655262,0.888363106597247,0.46983494274581733,-0.7330268975929103,-0.3503621962784668,-0.11772981389093629,0.4864688657464934,0.16606007656701247,-0.7926392577006789,-0.8236484815079432,0.20492135761530453,-0.8036207707656136,-0.8382417983119284,LR
0.1192110552485779,-1.3249232215009248,-0.004254254346974373,-0.16680835585743156,0.8091691059742496,-0.45941465425916117,-1.8400779981152149,-0.34158659519644,0.17498889198633555,-1.813854729334397,-0.35178245411474773,0.18270558748899074,0.9160239149861744,0.45702011109430496,-0.7027927993237791,-0.054217647887743727,0.048301456534793466,0.5393559468509991,0.16520535312589893,-0.7932425725842583,-0.8232890079178494,0.12357447283257432,-0.8201244956309273,-0.810449694372191,LR
0.13529074293636195,-1.3198400734429148,-0.0008618551099433214,0.06170135863132041,0.8091691059742496,-0.4889925826635957,-1.8395936213942752,-0.3412826243633359,0.17511814441612772,-1.8168139332730324,-0.3640532714848687,0.18576026034570753,0.9298542837748034,0.4407878510298963,-0.6919543675272496,-0.6253540416402881,-0.470546239756447,0.40713885030494656,0.16288558239630493,-0.7944830204502727,-0.822601778995611,0.06991658384737497,-0.8335383101377196,-0.792353981846829,LR
0.17281147786047812,-1.3157738048440393,-0.026305544171790082,-0.006851588643575686,1.0287335543446015,-0.4889925826635957,-1.8402152813569779,-0.34129485307501267,0.17494478424571525,-1.8686202471169227,-0.38936221465406634,0.17075471292329616,0.8710750747997914,0.4424965652363444,-0.7050746974164128,-0.7734263712570223,0.4841334768317434,0.27492175375889405,0.1612112426380413,-0.7938161275408451,-0.8220308503525207,0.10519994401187387,-0.7746478188725594,-0.7960501049471438,LR
0.14467092666739106,-1.3472891562386808,-0.00821220785331364,-0.23536142287149311,1.1824285819150444,-0.6368820309506472,-1.8405312918380197,-0.34098127396844813,0.174902351482587,-1.844351328876663,-0.37997623227709193,0.1786947443402028,0.9160239149861744,0.4578742932319129,-0.7181950273055757,-0.2869027847895027,0.6501647200698562,0.30136503450462754,0.16086219680940333,-0.7941265776883373,-0.8220017752827334,0.15232630174526218,-0.8286304890721831,-0.8226242282361357,LR
0.17147113797334088,-1.3269565640066399,-0.0025580547284588468,-0.9437419179584745,1.1604722521297468,-1.1988615082241767,-1.8414283817008634,-0.3410223275005053,0.17486578114068071,-1.8436423260115986,-0.3964183060611143,0.18489243338869504,0.9194815071833315,0.4647091500577052,-0.695376981008808,-0.11767705937670783,0.6294107806805707,0.46002558500075985,0.16009996713719396,-0.7942314137947889,-0.821695165455889,0.12524868804444972,-0.817936817583358,-0.8107265081564508,LR
0.1272508990924701,-1.3422060081806708,-0.022347590665450813,-0.7609341882761809,0.9628642773593646,-1.2875952934374806,-1.8422555348179044,-0.3405349259922523,0.17450761512032809,-1.848745768262683,-0.36114396651904507,0.1697355596857251,0.9125662519773478,0.4630004358512571,-0.7233291811853055,-0.26574969381099195,0.44262559805317253,0.3278084884547073,0.16017760789211338,-0.7946426418768701,-0.821806179358712,0.17178593256543687,-0.826481804671436,-0.8295867539907222,LR
0.1366310828234989,-1.343222887639806,-0.00821220785331364,-0.39531842956367996,0.8969950003741279,-1.5833741900115834,-1.842532691551277,-0.3403296583319665,0.17427730571519098,-1.8376791208694638,-0.3718915280899977,0.17888146369190416,0.8900919026958257,0.47581526750276953,-0.7136314647777007,0.3476932698481828,0.712426402299627,0.5393559468509991,0.16091148181035228,-0.7942077411255901,-0.8218511135574738,0.1835924901418066,-0.7927630570384335,-0.8284531356361321,LR
0.16075116322490748,-1.343222887639806,-0.005385131290886308,-0.23536142287149311,1.1165591611151358,-1.376328884915663,-1.8428694240310746,-0.3404135123548917,0.17416284891991096,-1.8484709542724573,-0.39249087544639133,0.18127175007928287,0.8900919026958257,0.459583007438361,-0.7216178744445262,0.38999959035863613,0.19357873319600355,0.5393559468509991,0.16130846236594062,-0.7942949918206369,-0.8217771042889248,0.16506072950153075,-0.8013315747754558,-0.8229511321337387,LR
0.16075116322490748,-1.323906758454345,-0.040440926983927254,-0.23536142287149311,1.0287335543446015,-1.2875952934374806,-1.8438951629695337,-0.3402458043090413,0.17363578933579157,-1.8823583621706095,-0.3795147985066039,0.16061027841391326,0.8987358831887188,0.4493310721309046,-0.7324565398984478,0.11500816065711021,0.5463951590615143,0.27492175375889405,0.16144619031379762,-0.7944877549841125,-0.8218035361705496,0.1623331285799665,-0.8194468129413299,-0.82489937391058,LR
0.13529074293636195,-1.3117071198326091,-0.001992500459150502,-0.09825543851732682,1.248298002714953,-1.317173415577036,-1.843420283831358,-0.33951557552606676,0.17361848123504195,-1.8143268235871985,-0.361007633814128,0.1858198990640121,0.9333118759719606,0.45018560419974474,-0.7062156464627296,0.11500816065711021,0.5671492343888852,-0.17461623593420772,0.16060159392767365,-0.7951681751330822,-0.8216370153163154,0.11376469188334665,-0.8431166288665823,-0.8104022405806035,LR
0.1393112137280404,-1.3523723042966915,-0.041006481253235604,-0.23536142287149311,-0.029907099200566903,-1.4059070070552184,-1.8444347983538252,-0.34014797461562846,0.1730283308320606,-1.8831414528198729,-0.371375910808581,0.15716488834662143,0.8762614630955272,0.4578742932319129,-0.7022224416293166,0.07270150761842069,1.2312740714032502,0.7773465127886783,0.16007228652022276,-0.7939446363164955,-0.821158598258911,0.12983810265789805,-0.7748421148024143,-0.8053167759154776,LR
0.11385079343949488,-1.307640434821179,-0.0014271777845469118,-0.39531842956367996,-0.029907099200566903,-1.2284396303637326,-1.8438925727196895,-0.34017679943600887,0.17304619725864065,-1.7989510239083741,-0.3417855963484338,0.18602807720687925,0.8918206987944042,0.4681262285393693,-0.7045043397219503,-0.2869027847895027,0.7954420239186832,0.4864688657464934,0.15974214452756497,-0.7933927249431761,-0.8209788614638641,0.15210361290208654,-0.7911515437378731,-0.8164025088946655,LR
0.1567312413029614,-1.3350895176169455,-0.02404379028396621,-0.6466792262600352,1.6874270432703284,-1.317173415577036,-1.844903633575696,-0.3394946120203356,0.17272376409144888,-1.8651958408123888,-0.3829554514505654,0.17001954031167135,0.9229390993804888,0.40661496662586327,-0.7147724138240176,-0.3926687938957837,0.5048874162210288,0.5657994008010789,0.1572090305061924,-0.7941739230267347,-0.8201594731335031,0.045511236264670886,-0.8463107463847145,-0.7851067333427179,LR
0.14467092666739106,-1.3350895176169455,-0.003688931672370782,-0.9437419179584745,1.467862307270633,-1.1692839672899846,-1.8455011178731835,-0.3388962786275876,0.17269417282242536,-1.833066725560162,-0.37661860245471407,0.18273178393534886,0.8762614630955272,0.47068912488342535,-0.7062156464627296,-0.6042005350014821,0.5048874162210288,-0.4654937444129156,0.15691534591149683,-0.7934853865340398,-0.8202308392138895,0.16240803300903475,-0.7740380389127729,-0.8173621300134343,LR
0.1272508990924701,-1.346272693192101,-0.03648297347758786,-1.1494009693267024,1.4239499353293814,-1.1101279167459943,-1.8469525212027713,-0.33801581138687203,0.17222852907967587,-1.8675821566522774,-0.36001048242752376,0.1603274125303656,0.9488711116708375,0.4527485005438007,-0.722758823490843,-0.41382202342772617,0.5463951590615143,0.03693089337382626,0.15645220192997722,-0.794718394418306,-0.8203762145628241,0.14595132749835052,-0.8688752941138379,-0.8265128028245549,LR
0.146011266554528,-1.3564389893081217,-0.04157180392783919,-0.9437419179584745,1.248298002714953,-1.258017558768167,-1.8485895591045565,-0.33775114712701426,0.17168416139480644,-1.889768863562208,-0.3782659559724606,0.15659274681073587,0.9194815071833315,0.44335074737395247,-0.7090679022498255,-0.37151542581040936,0.6294107806805707,-0.4390504636671821,0.15523425478324046,-0.7950694262844246,-0.8202096937085899,0.10718862286290048,-0.8307825349942081,-0.8059811289977027,LR
0.16075116322490748,-1.3655884059650072,-0.011604607090344691,-0.7837852106142014,0.743299685174341,-1.494640598533401,-1.8496489712909963,-0.33828047564673014,0.171455247804246,-1.8665345898431425,-0.3989614353643727,0.17520783011857724,0.902193475385876,0.4527485005438007,-0.691383776175395,-0.4772814349166903,0.06905536873646181,0.16914793795857497,0.1537530042067767,-0.7951830550965785,-0.8197286334630229,0.09656299097003816,-0.7989354824086652,-0.7968489104388661,LR
0.16075116322490748,-1.3584723318138368,-0.031394374622041414,-0.37246740722565946,0.5237355244333334,-1.1692839672899846,-1.8507550079746389,-0.3388770620806673,0.17106079060490248,-1.8873773788071422,-0.39302921484529396,0.16325862766647972,0.8849054435884204,0.46043718957596896,-0.7096382599442878,0.11500816065711021,0.2143328085233745,0.6980164973471316,0.15372869927480187,-0.7949740592456525,-0.8194801737757522,0.1467185917852922,-0.788325848951784,-0.8139111848363222,LR
0.1473510575719326,-1.3401726656749557,-0.03648297347758786,0.17595633561486188,0.32612754966295127,-1.1101279167459943,-1.8511659942833139,-0.33927012781312954,0.1706484669789785,-1.8769706295848092,-0.3746478957265878,0.16135548370712205,0.8900919026958257,0.45702011109430496,-0.7296042841113519,-0.09652392683216751,-0.4290384969159616,0.618685962292546,0.15409597380242096,-0.7955888722828428,-0.8195277511626765,0.1736666410682571,-0.8065358820176911,-0.8270347945320173,LR
0.1486913974590695,-1.3422060081806708,-0.021782267990847225,0.5644231615675704,0.6335177486185092,-0.9918165905984984,-1.8509475498797534,-0.3395094611702287,0.17046896522442948,-1.8609340702492365,-0.3791049264642574,0.17061286195312267,1.000735136251535,0.4630004358512571,-0.7050746974164128,-0.4772814349166903,-0.4290384969159616,0.9360068900804643,0.15328108344426628,-0.7984106544513335,-0.8194907465284017,0.12874557769698444,-0.9159671818461717,-0.826947795914107,LR
0.15807103232036596,-1.309673777326894,-0.028001743790305608,0.6786779739097594,0.43590977384812707,-0.6960376940243953,-1.8505667831525974,-0.3397907215387905,0.1703268713005326,-1.8589371460193223,-0.37454914190828253,0.1698774106558986,0.9160239149861744,0.461291721644809,-0.7301746418058142,-0.7522728646182164,-0.8648704084624431,1.1211107213223304,0.15330538837624086,-0.7998567163583885,-0.8195515398561386,0.1796805894633534,-0.8345265973933824,-0.8338417773030665,LR
0.13529074293636195,-1.3218734159486298,-0.009908407471829165,0.7929329359259052,0.5896048014185701,-0.13405800364223255,-1.8494944197169354,-0.33969813272181054,0.17050497724050537,-1.8288799042670718,-0.3630604897362427,0.17978551977685914,0.8900919026958257,0.461291721644809,-0.6919543675272496,-0.8580388737244972,-0.7403469080648158,1.3591016336687018,0.15198684581660843,-0.8001536392663385,-0.818914531508987,0.11641738837584241,-0.7833985310628365,-0.8017287420071126,LR
0.146011266554528,-1.3117071198326091,-0.022347590665450813,1.0899957772983015,0.5896048014185701,-0.19321368608949263,-1.8485291199415164,-0.33967018138083527,0.17053177688037563,-1.8457004157377699,-0.3661725459042509,0.17303296769965404,0.9212103032819101,0.46727204640176123,-0.7170543119166513,-1.0907243985758652,-0.906378287241014,1.7028656689980075,0.15161687074099225,-0.801495541428919,-0.8187876584771895,0.16831401105592467,-0.8316235876179049,-0.8291095797530924,LR
0.1768313997824239,-1.3371228601226606,-0.014431683652772023,0.9985918376201762,0.6335177486185092,0.1025650554965136,-1.848126767798989,-0.34036372402877985,0.1706883872758689,-1.8663304176936648,-0.40219584139576764,0.17646358743016954,0.9004646792872973,0.46727204640176123,-0.6691363212304816,-1.2176432215537933,-0.8648704084624431,-0.015056789521927549,0.1493983705612932,-0.8018181660919991,-0.8182273025867485,0.08541977622046135,-0.7798776736765057,-0.7895041180298256,LR
0.19157184532253604,-1.3066239717745989,-0.02404379028396621,1.0671447549602808,0.940907947574067,0.04340929555520508,-1.8476950594915555,-0.34067555617653317,0.17077213615046416,-1.8728234366414058,-0.4024213147154381,0.1735242904116685,0.9886334927498154,0.461291721644809,-0.7170543119166513,-0.03400563952835668,-0.470546239756447,2.152403346923286,0.14938149213631063,-0.8043795488993036,-0.8181030727431136,0.14805000114161254,-0.908646864190009,-0.8332090600819,LR
0.19157184532253604,-1.3523723042966915,-0.003688931672370782,0.8157839582639257,1.3361236094854874,-0.25236954289836167,-1.8475025175864408,-0.3411507289731097,0.1709689460057632,-1.8687296558214956,-0.4215944122357772,0.18222541220095845,0.9263966915776461,0.46043718957596896,-0.7010814925829998,-0.03400563952835668,-0.2007454626976097,2.337508563799922,0.1489223989767869,-0.8051296343319153,-0.8175004258420735,0.12593699901426558,-0.8300551017896999,-0.8129278368217596,LR
0.12323097717052399,-1.3350895176169455,-0.043268003546354586,0.7929329359259052,1.0067772245593039,-0.5481484394724647,-1.8472763024333467,-0.3404283615047848,0.1705878886263544,-1.8679922239229592,-0.351523771546444,0.15689261251585662,0.8935494948929829,0.45189396847496066,-0.6987998281477585,-1.3868689192559018,-1.466733155432781,2.707715533466269,0.14717244387460168,-0.8060603084124148,-0.816583239549702,0.10940538907451311,-0.7937426043387742,-0.8008192110016856,LR
0.14467092666739106,-1.3188236103963342,-0.026305544171790082,1.3413565739946567,0.8750385267741584,-0.25236954289836167,-1.8462885538259404,-0.34014360721860093,0.17053540599827471,-1.8530661198645044,-0.3668087651938632,0.16979129680563626,0.8624310943068983,0.46727204640176123,-0.6776930885917696,-3.057971696871022,-1.8610582757053753,2.707715533466269,0.14421061785867367,-0.8062097844093554,-0.8154863164622831,0.10690924958691646,-0.7414769992078327,-0.7909857308560567,LR
0.15271131938101562,-1.3167902678906191,-0.017258760215199485,0.8843368756040305,1.5556884892998553,-0.37068106278097873,-1.845565010702683,-0.33941075799741044,0.1705831428567941,-1.8458968345144837,-0.374497580180141,0.17598703505493138,0.9160239149861744,0.46043718957596896,-0.7113498003424592,-4.136784740358911,-1.8818119432184897,3.1572535578002396,0.14130685362468542,-0.8080346090235904,-0.8148810263730812,0.1454668105607744,-0.8241778179876559,-0.8193314623643152,LR
0.1192110552485779,-1.3503389617909765,-0.0376138504214998,0.15310522347246724,1.9069917792700242,-0.5777261741417782,-1.8458784309338792,-0.3379799987312478,0.1702467515438364,-1.8659212119088462,-0.35454319138931606,0.1590468522004126,0.9091086597801906,0.461291721644809,-0.7153427715184798,-3.0368187444459434,-1.7157812437327191,2.919262125840829,0.13944077495862073,-0.8095875361230283,-0.8143920365630274,0.15505255303747367,-0.8185028977665336,-0.8220152379107629,LR
0.1393112137280404,-1.3452558137329658,-0.024609344553274685,-0.1211066105293042,1.5556884892998553,-0.9326609275247504,-1.8463015050751637,-0.3372366677571914,0.1700276086553124,-1.8601518410858362,-0.37183122708589994,0.1682992141056216,0.8658886865040556,0.4544572147502489,-0.7062156464627296,-2.6772143966166473,-1.8195495812982916,2.8663759107580544,0.13739983580973752,-0.8101394474963476,-0.8135779346089914,0.1315696771172581,-0.76650823125058,-0.8045443336413034,LR
0.03478995053904944,-1.33203971206465,-0.004819808616282718,0.7700819135878847,0.8750385267741584,-1.494640598533401,-1.844104109790331,-0.3353665483500768,0.1699184559554231,-1.7675472797526048,-0.28430563052921864,0.17952745691167135,0.8970070870901401,0.46043718957596896,-0.7256110792779392,-1.5984013531287589,-1.9440743051386882,2.125960239381899,0.13706969381707995,-0.8115773930596772,-0.8134352024482187,0.17266926497670038,-0.8110967940873623,-0.8274117885429622,LR
0.105810949595603,-1.351355841250111,-0.018955191428419765,1.1585486946384063,0.5896048014185701,-1.7016857098942006,-1.8430585122697298,-0.3350826675432987,0.16961165591148894,-1.8360836490516035,-0.3471602510615057,0.17053315787165013,0.9886334927498154,0.4681262285393693,-0.7204769253982094,-1.7041675007884713,-1.7987959137851772,2.0730740242991246,0.13649515223067576,-0.8149402648098537,-0.8135409299747166,0.16764796897042647,-0.9089645951811833,-0.8406724869699101,LR
0.1701313469559366,-1.3361063970760803,-0.012170161359653035,1.318505701330593,0.32612754966295127,-0.34110313437654416,-1.8422952519821885,-0.3359910861249889,0.16972164610012405,-1.859080152672542,-0.3966568882947189,0.17784419589036266,0.9194815071833315,0.4459139936492405,-0.695376981008808,-1.3868689192559018,-1.5497491848660934,1.1475545216811025,0.1345602095906827,-0.8163139559853582,-0.8129832172724389,0.08773641500416494,-0.8224876450891959,-0.7973313573200057,LR
0.1902315054353991,-1.3137404623383242,0.005923174958823407,0.8614858532660099,0.32612754966295127,-0.19321368608949263,-1.8415078160294318,-0.3371335971873459,0.1701454154055761,-1.837746316766761,-0.4092265889025422,0.19206412860763006,0.8555155558542364,0.4647091500577052,-0.7045043397219503,-0.9214985623203248,-1.404472016955352,0.6715726969883592,0.1342523471190019,-0.8161198400979284,-0.8127770485957674,0.15046111397999654,-0.7512254109133505,-0.808960172580695,LR
0.2009514801838325,-1.312723582879189,-0.0110392844157411,0.08455227619757115,0.12851957489256918,-0.34110313437654416,-1.841941251170094,-0.338539899030155,0.17031877557598857,-1.864992530148774,-0.4147707855691648,0.18154569802364515,0.8693462787012128,0.46043718957596896,-0.6674247808323105,-0.8157325532140439,-0.6988391652243304,-0.33327664786686306,0.13251792016780073,-0.8152534204052543,-0.8121929040118651,0.07319618317414439,-0.7447437255855646,-0.7789324677928352,LR
0.16075116322490748,-1.309673777326894,-0.005950453965489769,-0.16680835585743156,0.08460671398143323,-0.25236954289836167,-1.8419326170039452,-0.3392867239218335,0.1705624848010608,-1.833357907781781,-0.38087375591779504,0.18411852347873214,0.87280387089837,0.4536026826814088,-0.7256110792779392,-0.49843452589520115,-0.32526893590761985,-0.4390504636671821,0.13261716530669787,-0.815087711720863,-0.8125100865913596,0.1624734900326348,-0.7859707671445821,-0.8194131883387156,LR
0.17415126887788238,-1.3330561751112304,0.001965221452484011,-0.4410203245657642,0.1724325220925083,-0.4889925826635957,-1.8425749989654052,-0.34025104518547394,0.17075371139805331,-1.8424371072895758,-0.4015692353097072,0.18725847412891233,0.8624310943068983,0.4536026826814088,-0.7170543119166513,-0.09652392683216751,-0.242253178350478,-0.5712675602132347,0.1329142255863898,-0.8144350224129546,-0.8126448891876448,0.14922417867835705,-0.7694233425026575,-0.8116465844488976,LR
0.168791555938532,-1.3269565640066399,0.004226975340307881,-0.37246740722565946,-0.003219050985240245,-0.22279161449392715,-1.8427442286219187,-0.3413262983336094,0.17109233601433346,-1.8335939549081806,-0.39543601144363566,0.18915827386107548,0.9004646792872973,0.4544572147502489,-0.7261814369724015,-0.2445961871721859,-0.5950696042159888,-0.015056789521927549,0.1333436127179445,-0.8150024901117475,-0.8129039216275656,0.16141942950826993,-0.8166385980658853,-0.8241005684188578,LR
0.18219166159150693,-1.3411895451340907,-0.02291314493475916,-0.32676536254961835,-0.2886527044334926,-0.4002589911854132,-1.843840767722797,-0.34285750773140117,0.17101863700468964,-1.8818940212905728,-0.40654450511157997,0.17078146674085318,0.8001939390763817,0.4544572147502489,-0.691383776175395,-0.03400563952835668,-0.49130017914573254,-0.7828150186095265,0.13299726743730364,-0.8128063427720809,-0.8125206593440091,0.11554080411134181,-0.6835788290238688,-0.7837622092477394,LR
0.1393112137280404,-1.349322498744396,0.0002690218339686137,-0.8294871056162857,-0.3545219814187293,0.01383140027947626,-1.8443363688597298,-0.34384104554196215,0.1712938916391928,-1.8317443447608013,-0.3777844218672734,0.1837615272257028,0.8831766474898417,0.46898076060820937,-0.7062156464627296,-0.5618942144910287,-0.40828455752667614,-0.6770408564005149,0.13312959428916643,-0.8125777324238186,-0.8127876213484175,0.15801566428106306,-0.7822361170049855,-0.8171143157684775,LR
0.1902315054353991,-1.3411895451340907,-0.015562560596683957,-0.966593089970452,-0.13495766248158245,-0.4889925826635957,-1.845856845518508,-0.3453451770781844,0.17129528745376907,-1.8775728082028897,-0.4145863868464888,0.17567685798262742,0.87280387089837,0.46214590378241704,-0.7301746418058142,-0.3503621962784668,-0.1799915369021328,-0.4390504636671821,0.13399106910027295,-0.8122747222580747,-0.8132316769597097,0.1870138005505968,-0.7866047500575686,-0.8286904045940692,LR
0.1902315054353991,-1.349322498744396,0.003661652665704419,-0.7609341882761809,-0.06908835673341135,-0.13405800364223255,-1.8467668866305753,-0.3468842477906251,0.17160208749770323,-1.8573106607104006,-0.4207851552822319,0.18716260628266565,0.8468715753613434,0.4553113968878569,-0.7073565955090464,-0.2869027847895027,-0.5120539825969325,-0.5977108409589682,0.13390060074236684,-0.8113995098596981,-0.8131920291372731,0.1380296780133822,-0.7457770572263493,-0.8033658978168806,LR
0.20229182007096944,-1.3411895451340907,0.012142882352986672,-0.7609341882761809,-0.06908835673341135,-0.34110313437654416,-1.8475068346695154,-0.3485700630431854,0.17198872813541816,-1.8497778283262882,-0.42969484711959266,0.19364065304430958,0.8693462787012128,0.45702011109430496,-0.7005111348885376,-0.41382202342772617,-0.2837610571290489,-0.7034846567592872,0.13348269093980028,-0.8107867259084391,-0.8131576676911607,0.12611987379154022,-0.7662567894590032,-0.8024616394549635,LR
0.21837205662848613,-1.3198400734429148,-0.019520514103023353,-0.8980401726303472,0.545691854218631,-0.19321368608949263,-1.8491421457380701,-0.349686369723378,0.17204176908932828,-1.8893355361732314,-0.4303328142643964,0.17582651214958814,0.8347705691646489,0.461291721644809,-0.7084975445553633,-0.03400563952835668,0.33885617298291626,0.27492175375889405,0.1338958747833717,-0.809030213853892,-0.8129911468369265,0.1536529873988482,-0.7314549596703049,-0.8066586636887019,LR
0.243831928047299,-1.3554221098489865,-0.003688931672370782,-0.9208910452944109,1.3141674235148617,-0.5481484394724647,-1.8509889938772668,-0.35081403163584196,0.17216599658664472,-1.9005839570834966,-0.4663255222900666,0.183171549811446,0.8313128353441527,0.4553113968878569,-0.695376981008808,-0.054217647887743727,0.7954420239186832,-0.04239912206772053,0.13360151505167686,-0.8068036302252555,-0.8126025981770456,0.11936632851122977,-0.7208191063474575,-0.7919822604793941,LR
0.2103316639148616,-1.3422060081806708,-0.04270268087175113,-1.4007619156970144,-0.029907099200566903,-0.9918165905984984,-1.8535861510547813,-0.3523338858013624,0.17171598596715285,-1.923682977522106,-0.4270512161428378,0.15862993854347904,0.8987358831887188,0.4527485005438007,-0.6965179300551249,0.8553699472942132,0.940719463705596,0.40713885030494656,0.13370211046457256,-0.8060264903135594,-0.8122907019738761,0.1062877452700534,-0.7980366116189909,-0.8003552183728305,LR
0.19291163633994063,-1.3411895451340907,-0.00877753052791723,-1.2636557816688914,1.7093832292409543,-1.7608415667030697,-1.855034964134526,-0.35209018504723577,0.171528109325144,-1.870692982102762,-0.4180471401251498,0.1800778609707915,0.9039222714844547,0.461291721644809,-0.7330268975929103,0.47461250848640635,1.0444890247139376,0.3278084884547073,0.13512394898509802,-0.8056862802390745,-0.8126845370100815,0.1860704096331434,-0.8227471545318393,-0.8343374057929802,LR
0.17415126887788238,-1.343222887639806,-0.015562560596683957,-0.6466792262600352,1.5337323033292294,-1.4059070070552184,-1.8558992441660056,-0.35168489060309704,0.17131901630157104,-1.8689751792923863,-0.4018261700228198,0.1751019295907462,0.87280387089837,0.4749607354339294,-0.7050746974164128,0.3053866722308661,0.5671492343888852,1.0153372519307036,0.13606441482512252,-0.8046081592475658,-0.8126078845533707,0.1694767167431724,-0.7683805986022949,-0.8190309216842608,LR
0.1393112137280404,-1.3422060081806708,0.0008345761032769586,-0.7609341882761809,1.621557047211732,-1.435484741724532,-1.8560132151591673,-0.35068126276621037,0.17130226652665223,-1.8276988071492057,-0.37544753947658155,0.18479907371284396,0.8693462787012128,0.4527485005438007,-0.7073565955090464,0.2419272607419019,0.2143328085233745,0.1955913919086547,0.1361312533880533,-0.8038858046560154,-0.8124334341346482,0.12968896861443785,-0.7714913503927384,-0.804691967659576,LR
0.17817119079982846,-1.33203971206465,-0.02347846760936275,-0.6009771815839942,1.358080083085457,-1.376328884915663,-1.8569206660213915,-0.35050481992630494,0.1710451574816449,-1.8759437384363802,-0.399957712823381,0.17117803634901912,1.0041927284486922,0.4647091500577052,-0.7016520839348543,-0.6888137302361157,-0.09697588809545937,0.3806955695592131,0.13546084234774858,-0.8063369404610515,-0.8126448891876448,0.12560768945223608,-0.9178343724551189,-0.826025083299906,LR
0.17817119079982846,-1.310690656786029,-0.02347846760936275,-0.8980401726303472,1.3141674235148617,-1.2284396303637326,-1.857898917046034,-0.3501431994524397,0.17084499767136216,-1.8659754855182011,-0.39263070386169074,0.17318206449541548,0.9281254876762247,0.4817955922597218,-0.7193359763518925,-0.7522728646182164,-0.22149937489927807,0.2484784730131605,0.13625547859592432,-0.8072101237734968,-0.8132026018899224,0.20038187928790166,-0.8373643936560714,-0.8420618285347212,LR
0.13261116090155312,-1.3411895451340907,-0.033655896915160396,-0.5552751369079532,1.2922108061002202,-1.3467509565112283,-1.8585499331736417,-0.34921993172085614,0.17041424929302693,-1.8650976314240317,-0.3632073095723072,0.1627260594857308,0.8987358831887188,0.4647091500577052,-0.722758823490843,-0.9003451942349505,-0.03471417867807141,0.08981799179876666,0.13648097435369053,-0.807388683335453,-0.8135171412812544,0.17600082503354406,-0.810382806967965,-0.8285427705757973,LR
0.13529074293636195,-1.3178067309371997,-0.027436421115702016,-0.9208910452944109,1.0726465015445406,-1.7016857098942006,-1.8591051100570009,-0.3484800946644218,0.17006557481179535,-1.8482822888685095,-0.3583919685204329,0.168931273045411,0.9263966915776461,0.4783781638468256,-0.7216178744445262,-0.3926687938957837,0.2143328085233745,0.7509030588385985,0.1374416943036942,-0.8079108347817797,-0.813913619505623,0.1976657502158344,-0.837473306945471,-0.841060026267874,LR
0.17281147786047812,-1.3625386004127118,-0.03309057424055694,-0.966593089970452,0.9848206071446624,-1.6425300468204527,-1.8608086310381295,-0.3486233452869193,0.16955163588469607,-1.8985568808483841,-0.40417004383427657,0.16208424654995704,0.8555155558542364,0.47581526750276953,-0.7375904601207852,-0.41382202342772617,0.13131705096623267,0.3806955695592131,0.13902286515605414,-0.8071242258024042,-0.8144052525038393,0.22867550903538872,-0.7687537274641268,-0.841141752242275,LR
0.1594113722075029,-1.33203971206465,-0.024609344553274685,-0.7380831659381605,0.8091691059742496,-1.1692839672899846,-1.8615295839115413,-0.3486277126839465,0.16934673030485262,-1.86607455639242,-0.3840434913071143,0.17000476997489503,0.9177527110847531,0.461291721644809,-0.7039337483700959,-0.13883019192124815,0.19357873319600355,-0.17461623593420772,0.13885475604322864,-0.8073636579423,-0.8144713322079007,0.13387686849549352,-0.8217064275442433,-0.8145781742403023,LR
0.10447060970846607,-1.3472891562386808,-0.021782267990847225,-0.8980401726303472,0.853082053174189,-1.553796261607149,-1.8618300528935154,-0.34774549848442005,0.169029601233052,-1.8367435472224898,-0.3441058741148088,0.16907535350038086,0.9281254876762247,0.4775239817092176,-0.7113498003424592,-0.43497511440623704,0.02754753073931656,0.08981799179876666,0.13938001262868388,-0.8079683255498339,-0.814851951303294,0.17801379721291716,-0.8338321070973963,-0.8331036072117058,LR
0.15807103232036596,-1.330006369558935,-0.041006481253235604,-1.3093576766709756,0.37004049686289037,-1.0213943252678117,-1.8633479393024481,-0.34803811408525315,0.168656639578188,-1.884238124323187,-0.37928582947655104,0.1596267969330854,0.9315830798733821,0.4664175143329211,-0.7067860041571918,-0.26574969381099195,-0.13848375328022175,0.2484784730131605,0.13937191098469212,-0.808758992701072,-0.8149629652061178,0.14730837981236963,-0.8377267656498144,-0.8221865988248294,LR
0.15137097949387837,-1.3452558137329658,-0.019520514103023353,-0.8523381279543062,0.6554740784038068,-1.2284396303637326,-1.8641137898398337,-0.348076547179094,0.16845982972288895,-1.8612045768101482,-0.38279814448335364,0.17183824253436375,0.8970070870901401,0.44762235792445654,-0.7136314647777007,0.009242096129456579,0.15207099035551813,0.3278084884547073,0.13915654228191549,-0.8087163818965143,-0.8148096602926947,0.12669211663703403,-0.807271382873266,-0.809537527045009,LR
0.13797087384090348,-1.330006369558935,-0.029132620734217542,-0.6923812709360763,0.7213434992037153,-0.9622388559291849,-1.864565356729408,-0.3477769437430171,0.16825324916555384,-1.8576845455748452,-0.3645942326665584,0.16677842678885246,0.9194815071833315,0.4723978390898734,-0.755844943889678,0.19962066312458512,0.11056311157694723,-0.015056789521927549,0.14142972855855787,-0.8095530416621958,-0.8157532784666915,0.24389730368846227,-0.8499512739285336,-0.8603789920874914,LR
0.168791555938532,-1.328989906512355,-0.02404379028396621,-0.5324242642438894,0.5896048014185701,-1.1101279167459943,-1.8651524800275163,-0.3480826615349324,0.16808770555677077,-1.8695937261418598,-0.39094926716771505,0.17087621984470167,0.888363106597247,0.46043718957596896,-0.7244701302316223,0.3476932698481828,0.19357873319600355,-0.5977108409589682,0.14232225967163223,-0.8093244313139335,-0.8161048224922977,0.1718669103265915,-0.800864995622102,-0.8254213656180425,LR
0.11385079343949488,-1.3737217759878677,-0.040440926983927254,-0.6009771815839942,0.6774304081891044,-0.6368820309506472,-1.8659321452307405,-0.3476398074763583,0.167708043991939,-1.8768009168698425,-0.3577601188687986,0.1550248616276425,0.9592438882623094,0.48264977439732976,-0.7124905157313839,0.6649910200601621,0.31810209765554526,-0.12172955319969832,0.1437143921641884,-0.8103700869305411,-0.8166704647590629,0.1863740762374739,-0.8685183005541393,-0.8416927434890404,LR
0.16209150311204443,-1.361522137366132,-0.021782267990847225,-0.4638713469037847,0.6554740784038068,-0.7847712855025777,-1.86660129310726,-0.3480084157854673,0.16758744561252162,-1.8779001728307445,-0.3968814876867935,0.16914279541547309,0.8935494948929829,0.4681262285393693,-0.7193359763518925,0.45345900184760024,0.06905536873646181,0.27492175375889405,0.1447277728001374,-0.8102422545168678,-0.8168581311185975,0.17760013581635145,-0.8018237014905205,-0.8277255108317905,LR
0.1661114250339905,-1.351355841250111,-0.0110392844157411,-0.23536142287149311,0.699387025603746,-0.6368820309506472,-1.86673598609918,-0.3484102163119842,0.16766812369504863,-1.8624089340463081,-0.39869663530289917,0.17703015525406382,0.9108374558787691,0.46727204640176123,-0.7039337483700959,0.45345900184760024,0.19357873319600355,-0.12172955319969832,0.14512812904072211,-0.8102334618111655,-0.8169321403871463,0.14676920288601394,-0.8124730008984792,-0.8179236665472195,LR
0.1674512160513951,-1.3411895451340907,-0.014431683652772023,-0.5324242642438894,0.8750385267741584,-1.1101279167459943,-1.8671417919081665,-0.3485438586610213,0.1676142452523923,-1.862652734545474,-0.39574101217450747,0.17585521676634225,0.9281254876762247,0.4630004358512571,-0.7124905157313839,0.5592250109538812,0.2765944907531454,-0.5712675602132347,0.14567971596915003,-0.8106737734582622,-0.8172202478968538,0.150964525728509,-0.8378060975519698,-0.8235759403896404,LR
0.20631174199291552,-1.366605285424142,-0.02574022149718662,-0.5781263089199304,0.7652563025889825,-1.376328884915663,-1.8685552049067007,-0.34955360085374637,0.1673308948933447,-1.9114188647796277,-0.43476974466736656,0.16717638982501665,0.9177527110847531,0.4630004358512571,-0.722758823490843,0.45345900184760024,0.44262559805317253,-0.09528622049266094,0.1465047333822943,-0.8108908856529136,-0.8175162849710487,0.17013331142320268,-0.8319341921839702,-0.8298424772009432,LR
0.17147113797334088,-1.3452558137329658,-0.07606227694627656,-0.71523214360014,0.853082053174189,-1.258017558768167,-1.8706127266999248,-0.3496182383297513,0.1664710731141667,-1.9413451606807364,-0.38980442201745086,0.1359583076485229,0.9229390993804888,0.46043718957596896,-0.7238997725371599,1.1938210655915666,0.5048874162210288,-0.3068333671211295,0.14779154450295964,-0.8111736049593443,-0.8178519698676803,0.1663631218267703,-0.8389207780076765,-0.8295419365208896,LR
0.18219166159150693,-1.3920210257141936,-0.07266964611454074,-0.9437419179584745,-0.029907099200566903,-1.435484741724532,-1.8733402597862836,-0.35092845743795875,0.16554090228032897,-1.9649386740045796,-0.41534932563746635,0.13436729156066632,0.9281254876762247,0.4732523711587135,-0.7318859485465935,1.2784337066124734,0.15207099035551813,-0.888588488001153,0.14988041837879323,-0.8118553778322684,-0.8186211376229545,0.20471486432435967,-0.8462354483080925,-0.8451015075180749,LR
0.13261116090155312,-1.3808382665515928,-0.031394374622041414,2.46105487247018,-0.156914136081552,-1.4059070070552184,-1.8714372895671203,-0.3515652239245473,0.1651609615525818,-1.880707755257531,-0.3773264838071677,0.1605768361419668,0.8900919026958257,0.46556333219531315,-0.7495700746210238,0.8553699472942132,-0.968639969470785,0.2484784730131605,0.1520064247895881,-0.8127339720405303,-0.8191656343844202,0.22380942040466165,-0.8159299893805324,-0.8473423810097065,LR
0.1486913974590695,-1.3035741662223035,0.01723148120853312,8.219502922518114,-1.2547361046854337,-1.3467509565112283,-1.8629585384091443,-0.35308507809006806,0.16557523931891283,-1.794404101524643,-0.3730800696200429,0.19923888936815995,0.8641598904054769,0.4578742932319129,-0.7107792089906045,0.8976761292512347,-0.07454092474708618,-0.2539466324253163,0.15257489014299858,-0.8119460103372006,-0.8190678364224092,0.1465505629308961,-0.7664833559931244,-0.8101412447268719,LR
0.2197118476458904,-1.3035741662223035,0.01949323509635699,6.140063182585297,-1.1229974069002884,-1.1988615082241767,-1.8571796910058511,-0.355657474939182,0.16607801172939982,-1.8326351211429115,-0.4331521046878713,0.20249700271255153,0.8347705691646489,0.4459139936492405,-0.7147724138240176,0.4323057723156577,-0.242253178350478,0.22203467265438823,0.15252830569004697,-0.8107434387419042,-0.8186792877625282,0.13417108769435607,-0.7394083190134964,-0.8008060293929117,LR
0.22239197855043194,-1.3218734159486298,0.0008345761032769586,2.415353426489966,-1.2108231574854946,-0.9326609275247504,-1.855493438357019,-0.3582840275114349,0.16636610785800732,-1.8668111268050933,-0.4380627038476681,0.18880072023684685,0.8814478513912631,0.4630004358512571,-0.6942360319624912,-0.011911036415083733,0.06905536873646181,-0.5183804791087289,0.1520064247895881,-0.8100528731632779,-0.8185180532846185,0.1251717591713527,-0.7745489901469932,-0.8035188044786631,LR
0.1875513745308576,-1.3574554523547016,0.05228750849627882,2.1182895373998725,-0.5301736264038139,-0.9030828053851947,-1.8525742267821594,-0.3601663756302263,0.16720666739602863,-1.7977389132994492,-0.4303144617848884,0.21701011268055023,0.8641598904054769,0.4749607354339294,-0.7039337483700959,0.32653976320937683,-0.11772981389093629,-0.7299279375050207,0.152609322129963,-0.8091783371268784,-0.8186740013862039,0.16873037171119565,-0.7579457642518577,-0.8169455911761668,LR
0.1795115306869654,-1.3554221098489865,0.013273527702193725,1.5927169216691413,0.018737408233262115,-0.8735048769807602,-1.8510442525406183,-0.36122852658727955,0.16754361703481674,-1.8418642191908292,-0.4156517045855514,0.19241109217907543,0.9056510675830333,0.46983494274581733,-0.6691363212304816,0.009242096129456579,0.19357873319600355,0.30136503450462754,0.15139475066822264,-0.8086419820790325,-0.8180977863667884,0.08985938197577346,-0.7852083741187851,-0.7920613501320395,LR
0.2009514801838325,-1.3361063970760803,-0.04552975743417846,0.8157839582639257,0.19438885187780588,-1.376328884915663,-1.8517427565820441,-0.3621308308131317,0.16706094435423266,-1.9186794676311034,-0.4166086553027567,0.15714956063864582,0.9004646792872973,0.4715436569522654,-0.7067860041571918,-0.11767705937670783,-0.4290384969159616,0.14270465721284142,0.1515520575890595,-0.808897646906379,-0.8181638660708498,0.1617473894409467,-0.8014082174605889,-0.8217226061959735,LR
0.1969315582618864,-1.3249232215009248,-0.012170161359653035,0.9528897929441352,0.7652563025889825,-1.2284396303637326,-1.8513309068567538,-0.362479349095915,0.16706820259003122,-1.8697401787385317,-0.41531786424402395,0.17955393204362913,0.8745326669969486,0.45616557902546484,-0.7016520839348543,-1.0272645714266058,-0.3045149965183344,1.279771618227155,0.150332760168324,-0.8084857424623207,-0.8176061533685721,0.12568326869598057,-0.7729899165783659,-0.8034449874695269,LR
0.19827189814902363,-1.3574554523547016,-0.009908407471829165,0.7929329359259052,0.9628642773593646,-1.731263638298635,-1.851324862940449,-0.36289425181351415,0.16693643769400118,-1.8827839361868213,-0.4277739542644167,0.17794145716460713,0.8831766474898417,0.46983494274581733,-0.7067860041571918,-0.8580388737244972,-0.4290384969159616,1.1475545216811025,0.14996008454471046,-0.8083612918585331,-0.8173841255629261,0.16071964668895708,-0.7823678886390739,-0.8181477538963833,LR
0.15807103232036596,-1.3544056468024066,0.001965221452484011,0.4501680498774678,1.1385157785297773,0.014230713355838028,-1.8508111300546044,-0.3624968186840244,0.1673147034442563,-1.8430384244217932,-0.39540979361576706,0.18481440142081956,0.9142950480759263,0.46214590378241704,-0.695376981008808,-0.32920910529995606,-0.15923759751284733,0.9095636093347309,0.14918975322850958,-0.8086480693368264,-0.8170352247254817,0.12082527784136866,-0.8126679691325895,-0.8082114572023145,LR
0.18621158351345302,-1.328989906512355,0.007619374577338932,0.38161513253736307,0.6115612750185396,-1.672107781489766,-1.8503336606665846,-0.36293443186616553,0.16748722612592257,-1.8404599972345044,-0.4113266369148206,0.1915563634452418,0.9039222714844547,0.4664175143329211,-0.7273223860187182,-0.6465068555119353,-0.8441166050112432,0.8566768746389176,0.14950774275517972,-0.809548307128356,-0.8172043887678785,0.1864968925085588,-0.8183536462218007,-0.8337811419027049,LR
0.19157184532253604,-1.32797302705322,-0.0008618551099433214,0.5644231615675704,0.06265025476293086,0.014230713355838028,-1.849959801272347,-0.36386643439180383,0.167885870768996,-1.853803551763041,-0.41390909295988204,0.18637169655113006,0.8641598904054769,0.4732523711587135,-0.7039337483700959,-1.1330305805328866,-0.49130017914573254,0.5129123196965731,0.14904662418465792,-0.8089659594660668,-0.817082802112406,0.16530096352629,-0.7583820897137115,-0.8157434284559503,LR
0.17549160876501962,-1.3533891837558263,0.01440440464610566,0.38161513253736307,0.10656318758140279,-1.317173415577036,-1.849414985388367,-0.36469973374462383,0.16813153413447565,-1.8371717056962895,-0.41183788455825937,0.19322596887217236,0.9955486771441298,0.44762235792445654,-0.6948066233143455,-0.9638048828307781,-0.4290384969159616,0.8566768746389176,0.1470097358577706,-0.8113629863129342,-0.8167206853341498,0.0800570239879847,-0.9081535273272843,-0.807362561597249,LR
0.20229182007096944,-1.3391562026283756,-0.013301038303564971,0.4501680498774678,0.2822146024630121,-1.5242183332027146,-1.8496999128712734,-0.3656098992851252,0.1680156815246186,-1.8809438023839318,-0.42441108087646534,0.17760313284674795,0.8434145496575419,0.46727204640176123,-0.7147724138240176,-1.0272645714266058,-0.3667766787481052,0.30136503450462754,0.14691656695186717,-0.8103389742795942,-0.816683680699875,0.17505608448673812,-0.7434697090212917,-0.8167610486533264,LR
0.2197118476458904,-1.3411895451340907,-0.02121671372153888,0.4273171772134041,0.5237355244333334,-1.435484741724532,-1.8504441779932868,-0.3665978044927134,0.16784427549461398,-1.902119986376825,-0.43831526892280276,0.17274954444490706,0.8762614630955272,0.46727204640176123,-0.7159133628703344,-0.3503621962784668,0.2143328085233745,0.6715726969883592,0.1472095764095632,-0.8096741104560978,-0.8166678215709005,0.17237369614848527,-0.780732844689569,-0.822226143651152,LR
0.17549160876501962,-1.3350895176169455,-0.019520514103023353,0.0388504350781114,0.940907947574067,-1.0213943252678117,-1.8508560277185782,-0.3663838020383729,0.16775550168754297,-1.8708773400773957,-0.3994648176594505,0.17336543961992232,0.902193475385876,0.461291721644809,-0.7113498003424592,0.32653976320937683,0.4011178552126871,0.43358230425502636,0.1475140631962474,-0.8094441473838815,-0.8166255305603013,0.1490251083488516,-0.8084741351864503,-0.8181161180353247,LR
0.18621158351345302,-1.3411895451340907,-0.015562560596683957,-0.16680835585743156,1.2702544763149226,-1.4650628638640877,-1.8515199950954093,-0.3661147703814876,0.16761927018486802,-1.875189076820589,-0.4112217656033463,0.17558126882197997,0.936769468169118,0.46214590378241704,-0.7124905157313839,0.876523038272724,0.8369499026972542,0.618685962292546,0.14814531629059277,-0.8097343066720604,-0.8166704647590629,0.14814245075226412,-0.8477125007575423,-0.8240715688795541,LR
0.17147113797334088,-1.3015408237165884,-0.017258760215199485,-0.8066359336043083,1.204385199329686,-1.2875952934374806,-1.8521589233904099,-0.36545878734797843,0.16758772477543704,-1.8499380646967651,-0.38496723277568595,0.17789380192708326,0.9177527110847531,0.4749607354339294,-0.7199065677037472,0.7707570291664431,0.7746880845293979,-0.14817288590673572,0.14954892611213713,-0.8096145906021125,-0.8171198067466802,0.18900855273371003,-0.8276011912569315,-0.8362276484912157,LR
0.19157184532253604,-1.33102324901807,-0.022347590665450813,-0.9894439626345156,1.2922108061002202,-0.9326609275247504,-1.853632775551984,-0.3651862617734714,0.16750202176043433,-1.8820878556096978,-0.41105571936017793,0.17231702439439825,0.9436847233751018,0.45189396847496066,-0.7142020561295551,0.2419272607419019,0.7539342810781977,0.3278084884547073,0.14936393857432878,-0.8101387711343705,-0.8171065908058681,0.12993662560063626,-0.8587113983783885,-0.8189175598488019,LR
0.17281147786047812,-1.3371228601226606,-0.027436421115702016,-1.332208699008996,1.2922108061002202,-0.8143492139070122,-1.8553250721171197,-0.36462723495396965,0.16735741537029997,-1.8799522321558766,-0.39649958132750707,0.16803892175563748,1.0093791167444282,0.4544572147502489,-0.7079269532035086,-0.20229000521516433,0.3803639158234017,-0.49193719836299543,0.14858212992913974,-0.8123389766458998,-0.8173761959984385,0.11579250998559804,-0.9289616129583501,-0.8238659357826749,LR
0.2800123230842779,-1.3391562026283756,-0.009908407471829165,-1.377910893358994,0.8969950003741279,-0.4002589911854132,-1.8578686974645127,-0.3663104297683133,0.16757488328133233,-1.9221676238894836,-0.4904275714497107,0.18159864828756028,0.9142950480759263,0.44847688999329666,-0.722758823490843,-0.2445961871721859,0.5879030378400851,-0.280390086375396,0.14831882649941272,-0.8124133764633815,-0.8174977826539116,0.14196317276147657,-0.8314138286901722,-0.8191732830590236,LR
0.19827189814902363,-1.361522137366132,-0.019520514103023353,-1.1951027146548296,0.8750385267741584,-0.45941465425916117,-1.8596231600259199,-0.3667733738532134,0.1675787915621468,-1.896619399143002,-0.42743923999529365,0.17143164024461383,0.8797190552926845,0.4578742932319129,-0.7067860041571918,-0.2869027847895027,-0.242253178350478,-0.4126071829214486,0.14783137758591827,-0.8121211880892714,-0.8174977826539116,0.1373683596306181,-0.7814582609813108,-0.8092554406172393,LR
0.19291163633994063,-1.3401726656749557,-0.029132620734217542,0.05267518085996921,0.5676484716332725,-0.4002589911854132,-1.8603337518999539,-0.36689740792879033,0.16745540155357658,-1.8955175587245108,-0.4140838784790066,0.16714016069707455,0.8987358831887188,0.45189396847496066,-0.7170543119166513,-0.13883019192124815,-0.3667766787481052,-0.7034846567592872,0.1476268110751305,-0.8124370491325804,-0.8176352284383586,0.1408416307694826,-0.8101333820891549,-0.8153163443316629,LR
0.24115234601249017,-1.3605052579069967,0.004226975340307881,-1.1722518419907662,0.5896048014185701,-0.04532433467000163,-1.8619820142177308,-0.3683430163448457,0.16786772517950055,-1.8912282206137496,-0.46712341818486885,0.18766033876346994,0.8952782909915614,0.46556333219531315,-0.7079269532035086,0.11500816065711021,0.02754753073931656,-0.8357017533053398,0.1478408295039086,-0.8122084387843181,-0.8178493266795177,0.15249568022901103,-0.7976923918401477,-0.8176389437976949,LR
0.21167200380199855,-1.3544056468024066,0.022885634333387913,0.05267518085996921,0.7213434992037153,-0.015746483759615536,-1.8616849989022175,-0.36917806265647657,0.16851314983971447,-1.8476206677258982,-0.4438603395170209,0.1993874287927225,0.9073798636816119,0.4647091500577052,-0.7016520839348543,-0.2869027847895027,-0.055468104473548316,-0.3861637289713688,0.14747423011328878,-0.8122496968649218,-0.8178810449374675,0.13808366318748552,-0.8078603214011305,-0.8139111848363222,LR
0.1701313469559366,-1.3452558137329658,0.0115773280836782,-1.1494009693267024,0.8750385267741584,-0.45941465425916117,-1.8621365657917917,-0.3690645103337652,0.16890537373573591,-1.8337989885435213,-0.40412285174411294,0.19209199716758524,0.8849054435884204,0.4723978390898734,-0.7130611070832382,-0.3926687938957837,0.46337953744245797,-0.14817288590673572,0.14780774779094297,-0.81149961143231,-0.8180792840496515,0.17648466715644412,-0.7874377350301986,-0.82489937391058,LR
0.17415126887788238,-1.361522137366132,-0.021782267990847225,-1.2179538866668072,1.1824285819150444,-0.07490222432741195,-1.8636648132001037,-0.368734335118497,0.16891709857817902,-1.8850858264121582,-0.406922915760484,0.16942566129902076,0.940227060366275,0.46983494274581733,-0.7084975445553633,-0.22344309619367508,0.048301456534793466,-0.7828150186095265,0.1478469057369023,-0.8122794567919144,-0.8184599031450447,0.1560344083914756,-0.8476614056341203,-0.8270347945320173,LR
0.17415126887788238,-1.3564389893081217,0.012708205027590133,0.05267518085996921,0.8969950003741279,-0.4002589911854132,-1.86317957306255,-0.36875617210363393,0.16930848498545428,-1.839954305033055,-0.4114315082262952,0.19182250819281607,0.902193475385876,0.4723978390898734,-0.7284633350650351,-0.2869027847895027,0.15207099035551813,-0.4126071829214486,0.14872930979498705,-0.8123254494063578,-0.8189806112130483,0.2005046955589866,-0.8157141797144999,-0.8385924291053252,LR
0.20765153301032008,-1.3411895451340907,-0.04270268087175113,-1.2408049090048276,0.853082053174189,-0.4002589911854132,-1.8654382709270365,-0.36907673904544197,0.16902736792972953,-1.9215973202483247,-0.42445390332865074,0.1586617087018284,0.9194815071833315,0.46727204640176123,-0.7113498003424592,-0.30805601432144525,0.13131705096623267,-0.12172955319969832,0.14875428986396114,-0.8126122268846511,-0.8191444888791206,0.15861827378698998,-0.826463652456536,-0.8246410143786042,LR
0.2853725848933609,-1.3411895451340907,-0.01838963715911142,-1.0122948352985792,0.6554740784038068,-0.34110313437654416,-1.867711646873977,-0.3710010141756959,0.16911837504012298,-1.937206582595961,-0.49416273799339705,0.17607760787478643,0.8970070870901401,0.46727204640176123,-0.7393017668615646,-0.03306450910829899,0.08980930812574726,0.08981799179876666,0.1499756126956945,-0.8127292375066907,-0.8196123331838748,0.2092678389452883,-0.8173169530597382,-0.8421356455438574,LR
0.19157184532253604,-1.343222887639806,-0.052880110177548775,-0.8751890006183699,0.545691854218631,-0.37068106278097873,-1.869640519591586,-0.3712604375591208,0.16870521392545318,-1.925156979833316,-0.40988902602002336,0.15155550459878853,0.9333118759719606,0.4544572147502489,-0.7221882321389886,-0.43497511440623704,-0.6573314223838451,0.2484784730131605,0.14968530378599557,-0.8140934596145156,-0.8196916288287489,0.1502809384614272,-0.8508682969331078,-0.8253712755047007,LR
0.16075116322490748,-1.368638627929857,-0.034786773859072334,-0.8066359336043083,0.3041710760629817,-0.31152520597210964,-1.8709408250135735,-0.3714307660431878,0.16848076694153766,-1.8961395515174353,-0.3959053105624843,0.16016911910981868,0.9056510675830333,0.47068912488342535,-0.7147724138240176,-5.850193284270758,-0.3460227393588198,-0.04239912206772053,0.14627788735052952,-0.8143815898167633,-0.8198872247527702,0.17322261301125833,-0.8120971828196251,-0.8277835099103978,LR
0.1875513745308576,-1.3503389617909765,-0.026305544171790082,-0.4638713469037847,0.19438885187780588,-0.34110313437654416,-1.8717921537958309,-0.3720806347208586,0.16841851361142193,-1.893499097348028,-0.4135324301661692,0.16788508730468368,0.902193475385876,0.4647091500577052,-0.7170543119166513,4.959090103033205,-0.5743156648267033,-0.12172955319969832,0.15025309400240675,-0.8148212251018828,-0.8200378864780299,0.16572407232832365,-0.8109535932809295,-0.824786012075121,LR
0.1473510575719326,-1.3645719429184269,-0.02687086684639367,-0.5095733915798257,0.21634532547777544,0.01383140027947626,-1.8723576916785667,-0.3721103330206448,0.16837552252246327,-1.8766622176459355,-0.3847662294286932,0.16527380323685784,0.8762614630955272,0.4664175143329211,-0.7153427715184798,-0.30805601432144525,-0.3460227393588198,-0.4390504636671821,0.1504556351021967,-0.8144735750456499,-0.8201859050151278,0.16969333225426145,-0.7806004007512252,-0.821203250810266,LR
0.1969315582618864,-1.4143869604519497,-0.029132620734217542,-0.8066359336043083,-0.11300127517041608,0.2208765366321064,-1.8742641155641895,-0.37358127233945876,0.16828088629417032,-1.931544897505798,-0.44219113780938407,0.16045114893656784,0.886634239686999,0.4723978390898734,-0.7221882321389886,-0.2869027847895027,-0.2007454626976097,-0.624154294909048,0.151113893676514,-0.8143126008950984,-0.8205850264276581,0.19189608473355493,-0.7947779528923258,-0.8318935355262251,LR
0.2103316639148616,-1.351355841250111,-0.03535209653367592,-1.0579968799746202,0.32612754966295127,-0.07490222432741195,-1.8760893782880148,-0.37441457169227876,0.16816670866180572,-1.9187785385053224,-0.4313885187999072,0.16251899608526182,0.9212103032819101,0.4809410601908817,-0.7124905157313839,-0.07537078043228404,0.048301456534793466,-0.5448242794675011,0.15182751348477372,-0.8145987020114146,-0.8210317252271128,0.18776351965595514,-0.8258908492308048,-0.8354842057563443,LR
0.21837205662848613,-1.3544056468024066,-0.039875604309323666,-0.8294871056162857,0.43590977384812707,0.3391880565147234,-1.8779206849281438,-0.3752732019478574,0.16808240146137965,-1.9305903711698431,-0.43838605705804823,0.1595181095492591,0.9091086597801906,0.4723978390898734,-0.7005111348885376,-0.07537078043228404,-0.0762220397846912,-0.33327664786686306,0.1517964571828059,-0.8145953202015291,-0.8210845889903621,0.15125672048334252,-0.8072875181753993,-0.8187593805435103,LR
0.1500311884764741,-1.3584723318138368,-0.012735484034256625,-0.7609341882761809,-0.11300127517041608,-0.16363587392613074,-1.8782090660775095,-0.3755859075750162,0.16820132486330497,-1.8582755248767098,-0.387435204305721,0.17489737436067324,0.9333118759719606,0.4647091500577052,-0.7233291811853055,0.05154837507388038,-0.242253178350478,-0.2539466324253163,0.15228255582230182,-0.8155571069329753,-0.8214149875106685,0.17251608204518257,-0.8492056885091254,-0.8334779649008957,LR
0.1835314526089115,-1.344239350686386,-0.040440926983927254,-0.5095733915798257,-0.33256565163343177,-0.10448011398482224,-1.8792270342664348,-0.37645239914524414,0.16801791482794146,-1.905599527776577,-0.4056268811361774,0.15928680050162913,0.87280387089837,0.46727204640176123,-0.7142020561295551,-0.32920910529995606,-0.968639969470785,-0.14817288590673572,0.15241960863315976,-0.8155990413755559,-0.8214572785212685,0.16990724850664543,-0.775848554272977,-0.8204729896841702,LR
0.1996116891664279,-1.3401726656749557,-0.049487710940517855,-0.5781263089199304,-0.13495766248158245,0.4870775048017749,-1.8806974327615507,-0.3773424746594195,0.16786800434241594,-1.9245582471586864,-0.4161865482740717,0.15419883751056299,0.9073798636816119,0.4553113968878569,-0.7193359763518925,-0.3926687938957837,-0.3667766787481052,-0.4390504636671821,0.15214887869644048,-0.8160346184888129,-0.8215550764832789,0.1503841851068995,-0.8202394596586268,-0.8205441703715507,LR
0.22775169148978258,-1.366605285424142,-0.031959697296645,-0.14395748319336785,-0.02517551451818277,0.014230713355838028,-1.8818708159411521,-0.3788195283340719,0.16780435519772358,-1.9319006911671248,-0.45164703439400833,0.16368780348979362,0.940227060366275,0.46214590378241704,-0.7107792089906045,-0.4772814349166903,-0.6158235436052742,-0.09528622049266094,0.15169248608491384,-0.8172703318209876,-0.8216370153163154,0.14469009886836454,-0.850661899526653,-0.8232332185615084,LR
