xa_S1,ya_S1,za_S1,xgb_S1,ybg_S1,zbg_S1,tilt_x_S1,tilt_y_S1,tilt_z_S1,tilt_accx_S1,tilt_accy_S1,tilt_accz_S1,xa_S2,ya_S2,za_S2,xgb_S2,ybg_S2,zbg_S2,tilt_x_S2,tilt_y_S2,tilt_z_S2,tilt_accx_S2,tilt_accy_S2,tilt_accz_S2,Posture
0.6569832811821814,0.032880723823878355,0.9856513408749165,0.5772994056163621,0.6105674953121356,0.5103244820089451,9.707426429066813e-05,0.29486020917330713,0.9995754642601552,0.013278120332316503,0.3063810154089651,0.9786853455938863,0.9847128946931877,0.031823086412770756,0.3644000815199671,0.4705882207889282,0.7045009650033898,0.48780485710514326,0.0015912936790263392,0.0010378387922147622,0.314684303001283,0.02454721426362651,0.014583682933519962,0.32854899893138745,LR
0.6608938853270219,0.03716937386236449,0.9657839319250205,0.5694716047255877,0.5968688693892875,0.48967551799105485,0.0,0.294620496061487,0.9998605096854793,0.021926033219723823,0.3028137625154647,0.9635082613773427,0.9813571987075211,0.03451995065359246,0.36361249678040863,0.4917646931903122,0.6849314884124608,0.5152438886795417,0.001762737682582822,0.0012959913538567723,0.3147049190408126,0.0244041913997377,0.017839524091088382,0.3282747454922858,LR
0.6435754497773698,0.03502504884312142,0.9139071410552128,0.5577299290254331,0.5753424553936685,0.4926253561925136,0.00044241079597988624,0.2946273044157251,0.9994602331307689,0.04825227313243126,0.31628030004678664,0.9326590393772717,0.9720357904251895,0.03074451745858928,0.3659753585338656,0.4705882207889282,0.6262230842756809,0.5060975315083992,0.0019336759516153789,0.0015447875706572577,0.3147405937526946,0.027013992566228058,0.02662563032039148,0.32961116472856844,LR
0.6592179121220902,0.04789129173916652,0.9801325910501041,0.5636007796935139,0.6144813944757226,0.4542772856797278,0.00027986303854003335,0.29449058380622795,0.9997756025375106,0.01985410336918407,0.30567657789375774,0.9683849492775226,0.9806114884884841,0.02966572757672374,0.3625623121044763,0.4658823311833923,0.6046966574620584,0.5609755920811289,0.0019908239528006336,0.0015528230197564428,0.3147879210086585,0.022226143554440508,0.018481901917298482,0.32667975439855307,LR
0.6346369031350552,0.052180234558239516,0.9746138412252917,0.5362035047754113,0.6183952859485073,0.37758108668954854,0.00030939839980292314,0.2948371087410412,0.9997998617226446,0.031772219255332024,0.32772071474458475,0.9652888131569373,0.9776286323401515,0.04153197442187657,0.3670254356750165,0.40705881899654006,0.6203522336076002,0.5182926544337414,0.0020325470510111914,0.001722035268081435,0.314859987512058,0.030084102813425627,0.021480973520191078,0.33213363425707715,LR
0.6581005966521358,0.027877103591920124,0.9580575917508546,0.596868882207291,0.6418786476032192,0.3451327119012159,0.00029576669460473407,0.2947227874324792,0.9997301165653842,0.022991036701465965,0.30420533799982824,0.962777988988477,0.9824757640360766,0.021575134854258396,0.3630874044424425,0.36941174838754426,0.6751467501169963,0.5121951029558276,0.001830253241505315,0.0019093823142021865,0.31482485060990306,0.021041689700425862,0.016565796498784775,0.32593697014767004,LR
0.6553072850945704,0.03788434405583675,0.9536424110521475,0.5518591039933592,0.6164383361103538,0.31563417531434207,0.00030506103905811153,0.2946264187761494,0.9994390063437768,0.029014710240398773,0.30746242733217555,0.9558089476145801,0.9858314600217432,0.02265370380843987,0.34497241775868953,0.36941174838754426,0.59882581576658,0.5030487457846851,0.001196315015965937,0.0017908594399891876,0.31447186815917233,0.0,0.01359414818339759,0.3110337176656678,LR
0.658659254387113,0.04789129173916652,0.939293751927064,0.6027397072393648,0.5538160413980494,0.42772858729431257,0.0006161117667637921,0.2943480880886643,0.9990993777519012,0.03745069935805554,0.3050546246141228,0.9417368448403657,0.9705443699871154,0.03883511018105462,0.3644000815199671,0.42352939408650625,0.5753424553936685,0.5579268109304335,0.0012648420439362812,0.0019024751302162421,0.31457853375500006,0.027003985847082197,0.028241387990257754,0.3294951210243489,LR
0.6446927652473242,0.06147250482868388,0.9724062508759381,0.5303326797433374,0.5596868792481268,0.39528021057382645,0.0006400705213546554,0.29439253612486926,0.9990690537704835,0.0324233752302651,0.31971955359905374,0.9587081563494037,0.973154355753745,0.024271999095080342,0.36203721976651015,0.42352939408650625,0.5557729788027395,0.564024374390056,0.0012066825737031756,0.001886101526743588,0.31460685840061486,0.021035099909768856,0.025490220770228136,0.325401008534788,LR
0.6530726541546616,0.05003561675840943,0.9492272303534405,0.4951076372612695,0.5420743528798914,0.3746312484880898,0.0006510171937110838,0.2942094301425953,0.9987476195674585,0.035661462739397326,0.31046400236934585,0.9477650109267347,0.9850857498027061,0.03236259181754569,0.3670254356750165,0.4211764600719729,0.5499021409526621,0.5610167518266613,0.0012835542213154158,0.0016262428081010656,0.3147416693721484,0.027679073289943155,0.014205764931510085,0.3308088890871352,LR
0.6497207077447984,0.04932093934552419,0.9403973210531694,0.5009784622933433,0.5772993927983586,0.3510324462687409,0.0007728763765439939,0.2941606092609854,0.9982654682629207,0.04018840061592497,0.31309394855824285,0.9426722499227332,0.9899328814986313,0.03236259181754569,0.3591493732098685,0.3905882207889282,0.5968688668256867,0.5518292514647138,0.0010901107659753609,0.0014262096591216662,0.3147275070493409,0.018267143767510364,0.009665381740119368,0.32429075255387624,LR
0.6508380232147528,0.038599021468722156,0.9613687512263135,0.5694716047255877,0.6086105540620446,0.3657816759191061,0.0007794856881553172,0.2941486162250646,0.9982351442815036,0.02738393567825114,0.3116677393826847,0.9609345298495419,0.9966442887421489,0.06688254247113815,0.368600712688915,0.3482352759861603,0.6125244455348293,0.5030487457846851,0.0011712811570395304,0.0011536648376204957,0.3149191465820131,0.03627264843930582,0.0035545547239419135,0.33740735016640777,LR
0.6402235033675066,0.03716937386236449,0.9271522310541911,0.5538160413980494,0.6438356106439163,0.3510324462687409,0.0011175932852697515,0.2943848421310554,0.9977166041992646,0.044555722586016026,0.3198000829859224,0.9405115188845155,0.9873228957320017,0.02912622217194906,0.36755052801298266,0.3552941103944641,0.6262230842756809,0.49390240858305706,0.0010858120225234315,0.0011042688405895394,0.31495840669207403,0.027482599901836526,0.012020553484291829,0.3307740411279099,LR
0.6497207077447984,0.035739726256006826,0.9690950914004793,0.5596868664301232,0.6281800242439717,0.36873155276363656,0.001011637758501542,0.2944293455197339,0.9978439649212183,0.023536807716486564,0.31258624148073044,0.9673100539635735,0.9854586049122248,0.040453184540011025,0.36545026619589943,0.40705881899654006,0.6457925480486063,0.5182926544337414,0.0011280408552575556,0.0011582879727186624,0.3150277841468392,0.027527752171153084,0.01399233324988323,0.3307111405615087,LR
0.6491620500098212,0.04288767150720813,0.9713026817498329,0.5949119063485905,0.6262230753030785,0.42772858729431257,0.0010256825456752736,0.2944956208813147,0.9980683623837072,0.02515527454608988,0.3138433994922756,0.9657072838516805,0.9858314600217432,0.020496344972392853,0.3646625739215595,0.4164705673840843,0.6673189748622288,0.5121951029558276,0.0010865706243089605,0.001265775863750927,0.31501326328421386,0.02243677278914363,0.013343359949462966,0.32710089198578834,LR
0.65139668094973,0.046461644132808864,0.9613687512263135,0.5616438038348134,0.6164383361103538,0.4247787490928539,0.0010616206775618622,0.29449934794786237,0.9980986863651248,0.02983663600438675,0.31194197178668936,0.9574335985471133,0.9906785917176684,0.0302050120538146,0.3591493732098685,0.3929411655916961,0.6457925480486063,0.5152438886795417,0.0008926214344449801,0.0012120869555573904,0.314939045541907,0.017784136518984698,0.008924045098432086,0.3239781663596272,LR
0.6553072850945704,0.06147250482868388,0.9282562522774394,0.5851272065071363,0.6242661263621853,0.44247785558774955,0.0015455462121000698,0.29445744612543756,0.9975346603107598,0.047813617852212074,0.30898004730906864,0.9287068161491396,0.9828486191455952,0.02912622217194906,0.36886320509050724,0.4211764600719729,0.6771037131576932,0.5243902258811698,0.0010066645695542453,0.0014277507041543884,0.31503674764228695,0.029259646782339558,0.016263098945560446,0.331834638766926,LR
0.6541899696246161,0.043602641700680386,0.9624723203524188,0.5733855179889783,0.6614481241941482,0.4070796354103469,0.0015492639498814209,0.2944993848495114,0.9975740814866025,0.027531243852143273,0.3092327936768775,0.9591485078647874,0.9925428825374453,0.0302050120538146,0.35757420373075144,0.3858823465951561,0.6849314884124608,0.5243902258811698,0.0007573374493380309,0.0014579661942602277,0.3149472919577189,0.015857232917615142,0.007158647600736843,0.3226752011642006,LR
0.6458100807172786,0.05575420718384008,0.9569535705276063,0.5792563430210522,0.6653620118215318,0.45132744747826914,0.001762414249345348,0.29472883930291305,0.9975316279126184,0.036646658267921246,0.31767614851902476,0.9509787564582607,1.0,0.028047653217767584,0.3594118656114608,0.45176469319031215,0.6751467501169963,0.5060975315083992,0.0007004423154143796,0.001309117755296192,0.31486106313151185,0.017231082236438346,0.0,0.3239192733085366,LR
0.658659254387113,0.029306751198277785,0.9613687512263135,0.5440313018207845,0.6438356106439163,0.4218289050949345,0.001570950753606066,0.29461508996991037,0.9977166041992646,0.021891610030263402,0.30393600136735605,0.9642522092791089,0.972408645534708,0.001078789881865542,0.3607245426889855,0.43999999229411807,0.6673189748622288,0.5213414401574555,0.000566928401140451,0.0016693920690172442,0.3147353949253351,0.014846798350209372,0.025753959631660446,0.32094831054480083,LR
0.658659254387113,0.03002142861116303,0.9415013422764177,0.5499021281346588,0.6086105540620446,0.44247785558774955,0.0015823105079377437,0.29441919756626245,0.9976559562364298,0.030511445902803937,0.3034735845014058,0.9511100413821018,0.9768829221211146,0.018338765208661772,0.36046205028739314,0.4705882207889282,0.6810175879670736,0.5457316880050914,0.0005692042064973971,0.0019853338193862786,0.3146921908772769,0.017720435209300313,0.021855633838582977,0.3232557681648908,LR
0.6675978010294277,0.03145107621752069,0.9646799107017723,0.5225048762889624,0.5831702306484359,0.4690265539731647,0.001271259780232063,0.29402204356903894,0.9979561636524628,0.018532175970575163,0.29637876387304657,0.9646952958970725,0.9906785917176684,0.019956839567618172,0.35363606496339606,0.4588235121868522,0.6399217101985291,0.6128048720822791,0.00036842760056257856,0.0018970264352791248,0.31462819151978033,0.009284282836744007,0.008841908747539531,0.3179029473881194,LR
0.65139668094973,0.0,0.9966888405245412,0.5264187651981465,0.5205479388842723,0.4719764114961593,0.000577695143023361,0.293757403393328,0.9990417621872077,0.0,0.30843002554191473,1.0,0.9824757640360766,0.024271999095080342,0.3567865114564115,0.4635294017923881,0.6223091838302938,0.6158536578059933,0.00028700434223644626,0.0019165922034624148,0.31463518304622945,0.014297405062472584,0.016686517708923022,0.32110303548376035,LR
0.6558659428295477,0.08434598818864561,0.9293598214035446,0.4990215248886532,0.5029353996980335,0.460176981404181,0.0010201059390032472,0.29350964572202876,0.9982745654573459,0.055264026824703064,0.31072103902457543,0.9186854002959377,0.9962714336326304,0.04746498738061083,0.3452349101602819,0.5223529293910041,0.5851271859983308,0.6432926694108773,0.00015045602082004267,0.001554749326047344,0.31454967129965844,0.004730249360119103,0.0038930066899897577,0.3148497434406123,LR
0.664245831736885,0.046461644132808864,0.9514348207027941,0.4735811848116401,0.5205479388842723,0.4336282830187659,0.0008538404437820434,0.29308232462675826,0.9981502371335345,0.030147021634493756,0.3003229911745501,0.9497589007075711,0.973154355753745,0.0285869376948582,0.3541611573013622,0.45647056738408426,0.581213294525546,0.6158536578059933,2.5033858926406544e-05,0.0016371126793140037,0.3145247527823138,0.012793956527395286,0.025693478866130003,0.319481037221628,LR
0.65139668094973,0.004288650038485975,0.9271522310541911,0.4951076372612695,0.5029353996980335,0.4041297908714244,0.0007425148513297255,0.2927689742743844,0.998050167994857,0.030174521724397878,0.3070118433557244,0.9537931770131037,0.9750186465735219,0.0231932092132148,0.3628249120408501,0.4470588143730109,0.5596868792481267,0.6310975464855352,6.169961189914674e-05,0.0016084932715634793,0.31465293076721595,0.0215815644016582,0.023684929999375062,0.32590874330069763,LR
0.6608938853270219,0.051465264364767095,0.9459160708779817,0.48727981073448823,0.5244618265116561,0.46312681960563973,0.0007146318179695931,0.292421545249171,0.997883386097061,0.0351843457949765,0.30359426613465945,0.9442257881881858,0.9843400395836691,0.02535056804926157,0.36203721976651015,0.4799999845882362,0.5616438294708203,0.6219512092839071,0.00016158218034281017,0.0013987735538069752,0.31476605007976605,0.02049058794844447,0.014865686185072727,0.32563187626465423,LR
0.6474860539222101,0.027877103591920124,0.9238410715787323,0.5380733797370694,0.5088062503661142,0.42772858729431257,0.0009300540682997384,0.29226591254456796,0.9975740814866025,0.04052244016951581,0.3124909728806261,0.9417860766868058,0.9780014874496701,0.021575134854258396,0.35626141911844533,0.4635294017923881,0.5616438294708203,0.6249999950076213,6.169961189914674e-05,0.0013299493818992225,0.3147590585533169,0.013441220409704328,0.020908128547597438,0.32024821504396844,LR
0.65139668094973,0.040743346487965064,0.9205299121032734,0.49706457466595966,0.6165968534108771,0.4395280173862908,0.0011421716628240753,0.29227788712966424,0.9971192217653405,0.04508264738557787,0.31022353867923325,0.9335452126131988,0.9906785917176684,0.028047653217767584,0.3570491113927853,0.47764703978546824,0.5675146673208975,0.6432926694108773,3.2619876782773596e-05,0.0010277669621794785,0.3148164249241824,0.014898052277541521,0.00891606110333557,0.32191447021431663,LR
0.6458100807172786,0.03645469644947909,0.9635763415756671,0.47749507243902384,0.5107632005888078,0.4719764114961593,0.0009228251337249546,0.2921873673846989,0.9974194291813735,0.027355666355063014,0.315928115888275,0.9637845067379252,0.9951528683040749,0.020496344972392853,0.35626141911844533,0.4988235121868522,0.5870841349392241,0.6615853637836477,0.0,0.0007037072067273641,0.3148612424014209,0.01222723453089351,0.004564303133890576,0.32018339783981004,LR
0.646927396187233,0.04717661432628112,0.9668875010511259,0.5009784622933433,0.5127201379934979,0.45132744747826914,0.0008028248197824263,0.2921068110849601,0.9976044054680201,0.029181056938070726,0.316115072082451,0.9611615433636838,0.9750186465735219,0.024271999095080342,0.35888688080827613,0.5223529293910041,0.5968688668256867,0.6615853637836477,0.00012870943629807383,0.0008126811054697581,0.3149587652318918,0.017250363475767947,0.02376207301554171,0.322800479577615,LR
0.6452514229823014,0.04932093934552419,0.9437084805286282,0.5029353996980335,0.5048923499207271,0.5073746244859505,0.0009265428715063055,0.29203278637709207,0.9975649842921773,0.04020455451488971,0.3171236875158778,0.9452678622711742,0.970917225096634,0.031823086412770756,0.36387498918200095,0.5176470397854683,0.6086105579074456,0.6859756096343321,0.0004020589463932032,0.001038664352053719,0.3151939673524397,0.024899890096935964,0.027746540508222357,0.3280205296297387,LR
0.65139668094973,0.0393136988816074,0.9403973210531694,0.493150661402569,0.5127201379934979,0.5634218208151679,0.0009399680357165765,0.2918388497608404,0.9976923450141306,0.036272618583560616,0.3106547990627452,0.9469718311785283,0.9813571987075211,0.042071258898967186,0.3591493732098685,0.5176470397854683,0.5831702370574375,0.6463414551345915,0.000584629109472094,0.0009794717116004665,0.3153239380364315,0.020784931931123702,0.018024544499194536,0.3256735195759283,LR
0.6435754497773698,0.05646888459672549,0.9657839319250205,0.4951076372612695,0.5205479388842723,0.4985250519169669,0.0009069214776602539,0.2918645517593599,0.997883386097061,0.03389453388597601,0.3199943741876241,0.9566787102350274,0.9862043151312618,0.0285869376948582,0.37752685229521377,0.5082352759861603,0.6086105579074456,0.5610167518266613,0.001116914695734788,0.0008974110636080907,0.31561130770048507,0.038929310339357336,0.012963519380071994,0.3389178349590198,LR
0.641340818837461,0.041458316681437485,0.9779250007007506,0.5380733797370694,0.5557729788027395,0.5132743202104039,0.0007743221634588333,0.29198095801108964,0.9984322501607168,0.02448431081409298,0.3207768326555227,0.971420913141347,0.9858314600217432,0.0285869376948582,0.36545026619589943,0.4917646931903122,0.6027397149301668,0.5701219358527272,0.0013108638855987684,0.0008086358622588631,0.31569986703550856,0.025024363920456944,0.013456017057530495,0.3289466141461458,LR
0.6396648456325295,0.03145107621752069,0.9580575917508546,0.5068493129614241,0.5733855051709749,0.5103244820089451,0.0006888141944880543,0.2921291734842463,0.9987749111507342,0.030009521184973135,0.32062905993315277,0.9629721812716584,0.9794929078877441,0.0399136791352361,0.3670254356750165,0.49411763799308017,0.6320939221257581,0.5914633919857945,0.0016014083695016152,0.0009423490375086767,0.3158755515462836,0.029615983610458575,0.019669167382102053,0.33190328924659945,LR
0.6463687384522557,0.030736106024048436,0.9437084805286282,0.5303326797433374,0.5557729788027395,0.46607667712863426,0.0007373513266332416,0.2921022537313102,0.9987961379377264,0.0335731866815719,0.31430600665323244,0.9533692361132001,0.9794929078877441,0.03937439465814548,0.3644000815199671,0.5058823311833923,0.6516633858986836,0.5610167518266613,0.001849471153408375,0.0011356401144699282,0.3159608840229459,0.026456056957269304,0.019694828316174792,0.3296397400551329,LR
0.6463687384522557,0.04217299409432273,0.9227375024526269,0.5420743605706934,0.5440312902845815,0.46312681960563973,0.001083514022274132,0.2920618648764939,0.9983988937811578,0.04617649711547121,0.3148131255461791,0.9348170353129094,0.9876957508415202,0.03451995065359246,0.3567865114564115,0.4847058741937721,0.6340508723484517,0.6067073006348508,0.0018262073653153485,0.0011080113785261504,0.31596052548312786,0.01608104173363262,0.011859912298671019,0.3226257170621011,LR
0.644134107512347,0.04717661432628112,0.992273659825834,0.5127201379934979,0.5479451907299686,0.4778760878990767,0.0007774202782767236,0.29212675642623764,0.9990023410113651,0.01938544799088755,0.3193231691003812,0.9781246495649818,0.9761372119020776,0.031823086412770756,0.36203721976651015,0.4635294017923881,0.6320939221257581,0.5610167518266613,0.001882849631977037,0.0013001466717128586,0.31598024517311296,0.02237453587738314,0.02279518183679674,0.32653217329123474,LR
0.6603352275920447,0.029306751198277785,0.9801325910501041,0.5264187651981465,0.5812132932437457,0.4808259454220712,0.0003818942865392673,0.2919116567142919,0.9995633346675883,0.013420428489862208,0.3029574525449665,0.976308541451847,0.9824757640360766,0.021575134854258396,0.36833811275254114,0.4635294017923881,0.6438356106439163,0.5610167518266613,0.002036340059939555,0.0013957740197254318,0.3160766923841301,0.027099415778448422,0.016501470598492128,0.3302760637905834,LR
0.6486033922748441,0.04503228930703805,0.9205299121032734,0.5068493129614241,0.5675146673208976,0.5132743202104039,0.0006778675221319194,0.2918876890932748,0.9991994468905786,0.04739611648730379,0.3130743654721128,0.9318850053471254,0.9802386181067811,0.0426105433760578,0.35626141911844533,0.4635294017923881,0.6027397149301668,0.6463414551345915,0.001989812483753142,0.00141426656011808,0.3161408710115357,0.017600598645871372,0.01914454680798434,0.3233305170374286,LR
0.6312849567251919,0.048606261932638783,0.9437084805286282,0.42465755742433503,0.46771035977956626,0.5103244820089451,0.0006941842601721627,0.2919782088382401,0.9991903496961535,0.044558030285868175,0.32930490337468304,0.9470484140507688,0.9899328814986313,0.03883511018105462,0.3641375891183748,0.5058823311833923,0.5694716175435911,0.692073161112246,0.0022199216920662963,0.0011283476692258046,0.3164004538397015,0.025415114099784534,0.009702524673829238,0.32940120577423715,LR
0.6324022721951463,0.07290910011837116,0.9657839319250205,0.4677103854155731,0.005870773760060047,0.37758108668954854,0.0008162499839929909,0.2912479252047857,0.9989416930485303,0.043392449552238914,0.33169981793092757,0.9505274645325572,0.9862043151312618,0.03074451745858928,0.3670254356750165,0.4141176379930801,0.565557717098204,0.692073161112246,0.00225431163968245,0.0009158485666781461,0.3166559134599613,0.02727587572826333,0.013115348798529436,0.33057418808175393,LR
0.6374301918099411,0.06075782741579848,0.9867549100010217,0.5107632005888078,0.5381604524345042,0.4070796354103469,0.0007090552112975667,0.29146256364611905,0.9991751877054448,0.02859682425884835,0.32655100593832864,0.9692683874108695,0.9753915016830406,0.03883511018105462,0.36991338976643956,0.42588234813633247,0.5831702370574375,0.6524390265820198,0.0024323301920474486,0.0009725094902919234,0.31693826356656407,0.03301631558946784,0.023526558511356935,0.33411003626452884,LR
0.6536313118896389,0.04789129173916652,0.9889625003503753,0.5499021281346588,0.5694716175435912,0.4070796354103469,0.00046781533748588245,0.2913982071702856,0.9995269458898873,0.017858135305442252,0.3108786032900104,0.974724917058014,0.9783743425591885,0.031283801935680144,0.3696507898300658,0.45176469319031215,0.5616438294708203,0.6158536578059933,0.0026280494527444495,0.0008925952978808438,0.31714424469195235,0.0309102673087563,0.020547300033419563,0.33277971542111057,LR
0.6379888495449185,0.046461644132808864,0.9624723203524188,0.5342465635253201,0.5440312902845815,0.45722714320272234,0.0005339084535985279,0.29156323134455586,0.9996482418155573,0.03376164883615968,0.3237826460814755,0.9594876605847102,0.96830722405782,0.03344138169941123,0.36518766625952565,0.43999999229411807,0.5029354125160369,0.5610167518266613,0.002707196905713636,0.0008350812957668011,0.3171978463947296,0.026968352164270435,0.03024854833612635,0.3293294189782334,LR
0.6765363476717422,0.05289491197112476,0.9481236612273353,0.5107632005888078,0.49510762444326606,0.3982300545717459,0.000468021878473507,0.2908986879987719,0.9992782892422641,0.030266829718481762,0.28990103535188183,0.9436295358257409,0.9794929078877441,0.0026968642408219446,0.3704383745696243,0.43764703824429185,0.5264187767343496,0.6036585348806511,0.0027547359509478993,0.0006204907749604512,0.31730415345073953,0.025789023702988897,0.018978404943467603,0.3292029208862463,LR
0.6329609299301235,0.04503228930703805,0.898454912804024,0.5283757384932463,0.5127201379934979,0.5132743202104039,0.001112016678597725,0.29104031652758433,0.9986627124194898,0.06138346990749777,0.3260106546174175,0.9194129375822238,0.9903057366081497,0.02696886333590204,0.38041480638663694,0.45647056738408426,0.5694716175435911,0.6128048720822791,0.0031795529509102034,0.000336415634375176,0.3176689677154612,0.041687015696149264,0.009021214858151856,0.34106603740545105,LR
0.6363128763399868,0.03359540123676376,0.9624723203524188,0.5048923499207271,0.5538160413980494,0.43657817918483216,0.0010205190209790834,0.29124462250720135,0.9988749802894118,0.030012982734751285,0.32390234164060416,0.9652423164130769,0.9832214742551136,0.036138245940232926,0.37017588216803193,0.3976470397854683,0.6301369719030646,0.6036585348806511,0.003260217607450807,0.000389526650681441,0.3178602487083154,0.03222993390439991,0.01600483406069932,0.33397360650416263,LR
0.6145251789105172,0.054324559577482424,0.9337750021022517,0.5107632005888078,0.5812132932437457,0.44837755131220275,0.0015075426703351814,0.29192815175138914,0.9985565784845286,0.056464607672755816,0.3442589769723147,0.9399781738814112,0.9809843435980026,0.03883511018105462,0.36755052801298266,0.3858823465951561,0.6555772863440709,0.5945121777095086,0.0032569303330463695,0.0005758004690115504,0.31800258901602513,0.029899344608709463,0.018218189758190905,0.33218747435407997,LR
0.6508380232147528,0.06790577266699978,0.9359825924516052,0.5342465635253201,0.6223091851120941,0.44247785558774955,0.0018617604645022343,0.29203533259087217,0.99803803840229,0.048143426622740765,0.3138022957708578,0.9312313158305001,0.9690529495490413,0.042071258898967186,0.3470726795757727,0.3858823465951561,0.6555772863440709,0.5975609634332227,0.002791907438444565,0.001001596715284528,0.3178018067179964,0.007608035346661019,0.030018854938734345,0.31545975696684764,LR
0.673743036114177,0.05003561675840943,0.9657839319250205,0.5342465635253201,0.5949119191665939,0.4306784448173072,0.0016564587225768451,0.29162976501767957,0.9980653299855657,0.022425265621060477,0.29258390085214964,0.9567252069788877,0.970171514877597,0.035598740535458,0.3607245426889855,0.4329411695987547,0.6223091838302938,0.5792682770482581,0.0027496786057100817,0.0012843784787887663,0.31779714570036366,0.02209727653714819,0.02858785065372685,0.32595317444870964,LR
0.6497207077447984,0.057183562009610896,0.9724062508759381,0.5303326797433374,0.6027397072393648,0.41887906109701495,0.0015926375573304178,0.29172093054150217,0.9981441723372512,0.029304903496799817,0.3148064652209494,0.9601057937677951,0.9746457914640035,0.03883511018105462,0.3625623121044763,0.4094117483875442,0.6477494982712999,0.5609755920811289,0.0026983465515478143,0.0015664172384379426,0.31781023240371714,0.024553559987962808,0.024347361271463024,0.3279961360582811,LR
0.65139668094973,0.05360958938401016,0.9547464322753958,0.5244618265116561,0.6614481241941482,0.45132744747826914,0.0016411746894758987,0.29188624992896434,0.9980653299855657,0.03506126846953141,0.31245187590655027,0.9499339472726924,0.9705443699871154,0.03344138169941123,0.36623785093545796,0.38117645698962016,0.6634050744168417,0.539634134530226,0.002655359117027802,0.0019575124528134085,0.3178405290183306,0.027999288302608994,0.028098503850587382,0.3302183904180659,LR
0.6474860539222101,0.046461644132808864,0.9580575917508546,0.5479451856027673,0.6594911739714545,0.3746312484880898,0.0016888856576697073,0.29210474459261687,0.9979410016617539,0.032483760043061645,0.31529405292640417,0.9556530467675188,0.9832214742551136,0.036677530417323544,0.3641375891183748,0.38117645698962016,0.6771037131576932,0.5243902258811698,0.0025580052212030475,0.0021364387885767955,0.3178260081557053,0.02534604333104668,0.01608771807668453,0.32904314299319926,LR
0.6541899696246161,0.062187182241569126,0.9481236612273353,0.5694716047255877,0.6653620118215318,0.4218289050949345,0.0019468553514974708,0.29223155710936094,0.9976135026624452,0.03994647674809695,0.31061890250468877,0.9414605994797832,0.96830722405782,0.036138245940232926,0.3770018674920291,0.378823527598616,0.6457925480486063,0.49390240858305706,0.0027848271551117643,0.002501996685267175,0.317986813264037,0.04115031385708507,0.030109589438192384,0.3395078109087006,LR
0.646927396187233,0.04217299409432273,0.9514348207027941,0.5694716047255877,0.6320939221257582,0.38348084037860936,0.0020722257311241075,0.29238246640289367,0.9974649151534999,0.03400164962077756,0.3151663130783617,0.9532899181383796,0.9813571987075211,0.021575134854258396,0.362299819702884,0.3741176379930802,0.6536203233033737,0.5335365630827977,0.0025615453628694477,0.002627922079369489,0.31790399056610036,0.020202833756422248,0.017638428883490254,0.32527834371831554,LR
0.6553072850945704,0.0393136988816074,0.9459160708779817,0.5636007796935139,0.6242661263621853,0.3746312484880898,0.0021544290442893715,0.2923477604020213,0.9972314204965854,0.03275568400896687,0.3073838700935568,0.950169166094574,0.9772557772306331,0.026429357931127113,0.3452349101602819,0.418823527598616,0.6653620118215318,0.5243902258811698,0.002066178396841816,0.0028752873257824494,0.3175318262351113,0.0016423222715154797,0.021856247992051936,0.31173782068181083,LR
0.65139668094973,0.04503228930703805,0.9525388419260423,0.5577299290254331,0.6007827698346747,0.41887906109701495,0.002252742554506961,0.29233512158724323,0.9971647077374669,0.03308895432927371,0.31155141723503604,0.9523080163121517,0.9817300538170396,0.036677530417323544,0.35626141911844533,0.38117645698962016,0.6144813957575228,0.5335365630827977,0.001724554726038305,0.0029099058016960667,0.31738106024168083,0.01627678292277713,0.017612073688974335,0.32246907548538406,LR
0.6508380232147528,0.048606261932638783,0.9448125017518765,0.5499021281346588,0.598825819611981,0.36873155276363656,0.0024055828855178937,0.29234960548447064,0.9968250791455913,0.03773570028978936,0.3121688207340595,0.9457492403252582,0.9783743425591885,0.01456311108597453,0.3667629432734241,0.4164705673840843,0.6125244455348293,0.5579268109304335,0.001705589681397208,0.002952587245370171,0.317396835993669,0.024098864432630127,0.02028855450671316,0.32791755391022853,LR
0.6648044894718623,0.06147250482868388,0.9437084805286282,0.5225048762889624,0.6281800242439717,0.4070796354103469,0.0025049291006750737,0.29218721977810297,0.9964035758038887,0.03840493324689705,0.30097845367488635,0.937877615099954,0.9712900802061525,0.06796133235300368,0.36387498918200095,0.3741176379930802,0.6144813957575228,0.5853658405078807,0.0017589446736544587,0.0031626096684009594,0.3175624813895425,0.03251256270368868,0.02815046657452656,0.33345001591680545,LR
0.6547486273595933,0.038599021468722156,0.9779250007007506,0.5459882443526761,0.5851271808711295,0.3982300545717459,0.002245307078944259,0.2920969583446806,0.9967159128124886,0.019137947181750437,0.3086857647311905,0.9713771515000668,0.973154355753745,0.02696886333590204,0.36623785093545796,0.43764703824429185,0.5851271859983308,0.600609749156937,0.0018393564629330993,0.0032196558532729216,0.3176623347288301,0.026443121442276,0.025481035170518432,0.3292769727995996,LR
0.6497207077447984,0.04932093934552419,0.94702009210123,0.5185910014795821,0.6281800242439717,0.4336282830187659,0.0023169768017292243,0.29220216494594276,0.9965612605072591,0.03739666071985223,0.31328694229399073,0.9469745662811081,0.9798657629972626,0.0285869376948582,0.35074821840675435,0.38352940179238815,0.5420743528798913,0.5853658405078807,0.0014115050558279607,0.0030139813787273123,0.31747750745269826,0.00832290559978437,0.019326629960369376,0.31667629922339574,LR
0.6491620500098212,0.048606261932638783,0.9381897307038157,0.5205479388842723,0.5890410813165167,0.42772858729431257,0.002470023673727782,0.2922259665095394,0.996276215081935,0.04104686496090458,0.3134508900919185,0.9416165003268446,0.9761372119020776,0.031823086412770756,0.36650034333705034,0.4799999845882362,0.5264187767343496,0.5609755920811289,0.001623154954023584,0.0028331837739956228,0.3175431202393754,0.027540687686146387,0.022731737113220435,0.33023651135686277,LR
0.6486033922748441,0.05075058695188185,0.9768214315746454,0.5205479388842723,0.545988240507275,0.386430678580068,0.002289093768369092,0.292197201674154,0.9964429969797315,0.025625853007596268,0.3152800056950105,0.9659534430838825,0.9824757640360766,0.0372168148944144,0.3601995578858008,0.4870588189965401,0.5264187767343496,0.6158536578059933,0.0017106470266350254,0.002534936522841576,0.31758937187588576,0.020927710728691807,0.01685813355001095,0.3258395701016359,LR
0.6480447345398668,0.04503228930703805,0.898454912804024,0.48727981073448823,0.5518590911753558,0.4454277131107441,0.002701556121110546,0.2921308156076262,0.9956758002498696,0.056759031712219014,0.31290737295408,0.9178156376754909,0.9746457914640035,0.027508147812992656,0.36361249678040863,0.4494117483875442,0.5146770882161914,0.6280487807313355,0.0017569217355594754,0.002355129589916633,0.317678469020636,0.023412061806378705,0.02411144623240719,0.3271930648379388,LR
0.6402235033675066,0.05075058695188185,0.95916116087696,0.4892367865931887,0.5851271808711295,0.4837757836235299,0.002661487169467064,0.29233360861963475,0.9958395497495237,0.03585127105223232,0.3221631490778866,0.9552126952521354,0.9798657629972626,0.024271999095080342,0.36518766625952565,0.4847058741937721,0.5870841349392241,0.6067073006348508,0.0019038376147131177,0.0023033945066753,0.31775555508148634,0.02419356216503423,0.01906492047561711,0.3280555518287599,LR
0.6391061878975521,0.052180234558239516,0.9381897307038157,0.5381604466023125,0.6046966548984577,0.3982300545717459,0.002944654863812906,0.29258409701295907,0.995487791565081,0.04547822560189126,0.3226490414278284,0.9410393936824598,0.9839671844741507,0.026429357931127113,0.36518766625952565,0.4799999845882362,0.5753424553936685,0.5792682770482581,0.002040133068867918,0.0021359709713347215,0.3178018067179964,0.024382225430881015,0.015200319718683108,0.32839932694651547,LR
0.6374301918099411,0.045746966719923454,0.9834437505255629,0.5459882443526761,0.6105674953121356,0.4100294807994169,0.0028006957952798075,0.2928877975841228,0.9958941329160752,0.02494104307648677,0.32483589434371446,0.9735898494873048,0.9821029089265582,0.021575134854258396,0.3609871426253593,0.4611764569896202,0.5968688668256867,0.5426829082722315,0.002013834873632057,0.0020771360734783517,0.31771073760424756,0.018637148309584458,0.016945877389098387,0.3241952691455996,LR
0.6452514229823014,0.043602641700680386,0.9558500014015011,0.5518591039933592,0.6438356106439163,0.38348084037860936,0.0028515048782915067,0.29309143933405807,0.9958304525550986,0.03316876228249193,0.3169090347484737,0.9556940733062194,0.9802386181067811,0.01941755509052731,0.3554738343788868,0.43764703824429185,0.606653607684752,0.5487804697349027,0.0017885301432947573,0.0020896570643692035,0.3175293164563859,0.011935087145100295,0.01875119486227619,0.319296517277531,LR
0.6592179121220902,0.04288767150720813,0.9580575917508546,0.5420743605706934,0.6301369719030646,0.39528021057382645,0.002756496023879432,0.29299584561235703,0.995809225768106,0.02762105183805408,0.30461149674201976,0.9561152791035428,0.972408645534708,0.03937439465814548,0.3659753585338656,0.4352941042297586,0.5675146673208975,0.5426829082722315,0.0019109178980459185,0.0021336043664630425,0.3175832766989812,0.028795676706823134,0.026445763460959663,0.3308996680209164,LR
0.6491620500098212,0.04789129173916652,0.9194263429771682,0.5146770882161915,0.6183952859485073,0.4306784448173072,0.0030510234725569514,0.29305263725014813,0.9952846208895842,0.048673620663759826,0.31282966339321777,0.9298227380017885,0.9750186465735219,0.0426105433760578,0.37411391340060596,0.418823527598616,0.5792563443028524,0.5487804697349027,0.002196405036711307,0.002161095509100326,0.31779373957209345,0.038701352395889226,0.023892727490482303,0.3381595433662816,LR
0.6301676412552375,0.04789129173916652,0.9779250007007506,0.5244618265116561,0.6262230753030785,0.41887906109701495,0.0029704724872944444,0.29352010733951656,0.995633346675885,0.030520484393891174,0.33129616762291353,0.9697935271062338,0.9828486191455952,0.018878270613436696,0.36545026619589943,0.4470588143730109,0.5557729788027395,0.5670731561198674,0.0022249790373037545,0.0019467801749069578,0.31780539211617537,0.02318898518932369,0.016139467182025812,0.3274967648025854,LR
0.646927396187233,0.045746966719923454,0.9690950914004793,0.5244618265116561,0.6614481241941482,0.48967551799105485,0.0028345685172875093,0.29372588938509303,0.9959911696566108,0.02776970617019315,0.3160354941706152,0.9632320160167606,0.9746457914640035,0.019956839567618172,0.3641375891183748,0.42588234813633247,0.59882581576658,0.5365853488065119,0.002184773142664614,0.0020411416644998026,0.31775555508148634,0.02245532182951146,0.023957961269816027,0.32651736290856403,LR
0.6452514229823014,0.06147250482868388,0.9194263429771682,0.5420743605706934,0.6692759122669191,0.46312681960563973,0.0033197332977532253,0.2939775770820095,0.9954089492133956,0.0546092169916709,0.3176048224906554,0.9240051748140812,0.9783743425591885,0.01456311108597453,0.362299819702884,0.4988235121868522,0.5851271859983308,0.5335365630827977,0.0022484956926591033,0.002015934570750303,0.3176557017421987,0.018962732781304115,0.0203478870722799,0.3242360412578928,LR
0.6385475072798955,0.04503228930703805,0.9514348207027941,0.5518591039933592,0.6575342237487609,0.46607667712863426,0.0034552241857843244,0.2943103377017505,0.995487791565081,0.03769435400077264,0.32280570611686865,0.952874182546216,0.9780014874496701,0.014023826608883913,0.36046205028739314,0.5223529293910041,0.6457925480486063,0.564024374390056,0.0023223329331285092,0.0021902928087381224,0.3175653497080859,0.016759790171302795,0.02071597861878637,0.3226368684090529,LR
0.6491620500098212,0.05289491197112476,0.9690950914004793,0.5577299290254331,0.6438356106439163,0.5516224486877972,0.003424656119582138,0.29443617232479646,0.9959153597030673,0.02944451933785165,0.314776312112182,0.959876045151073,0.970917225096634,0.036138245940232926,0.37096346690759047,0.5199999845882362,0.6242661212349839,0.5609755920811289,0.0027458855967817187,0.0024376855738123854,0.3177179084006057,0.033993557137268225,0.02772405715079338,0.33454040856095874,LR
0.646927396187233,0.044317319113565797,0.9547464322753958,0.5499021281346588,0.6399217101985291,0.5368731803943603,0.0034593550055415116,0.294566139932529,0.9961822107395412,0.03333357051359588,0.3154756116622122,0.9544960983761694,0.9813571987075211,0.014023826608883913,0.3591493732098685,0.5129411655916961,0.6986301143353089,0.5579268109304335,0.0027506900747575735,0.002705111924312013,0.3175965426722439,0.015018621039932581,0.01755129919787178,0.32157208901493006,LR
0.6418994765724382,0.007147945251201301,0.9370861615777105,0.5381604466023125,0.6457925480486063,0.48967551799105485,0.003392642266465112,0.29471430005321214,0.9964642237667235,0.029932213239927716,0.31567509272772926,0.959739290022072,0.9593586861571912,0.01941755509052731,0.3696507898300658,0.5105882207889282,0.6399217101985291,0.5274390116048839,0.0030718314973482105,0.003220839155708761,0.31762522585767655,0.02996377811735562,0.03834223658266126,0.330861509505565,LR
0.6530726541546616,0.08506066560153086,0.9514348207027941,0.565557717098204,0.6516633858986837,0.5988200338049592,0.0037565674870610848,0.29483164729699113,0.9963884138131799,0.04688169172860747,0.31397968531606746,0.9332279407139161,0.997389998961186,0.018878270613436696,0.3570491113927853,0.5176470397854683,0.6418786476032192,0.5670731561198674,0.0030339014080660157,0.002981481839733683,0.31749776495241017,0.012716587503755821,0.0024111424870547405,0.3206122019780748,LR
0.6553072850945704,0.007862622664086705,0.975717410351397,0.5420743605706934,0.6105674953121356,0.5870206616775885,0.003264586853996421,0.294673468378608,0.9973921375980977,0.009976955693893593,0.30525049007451516,0.9829138141826008,0.9686800944395229,0.012945036727018371,0.3517984030826867,0.5482352759861603,0.6262230842756809,0.5609755920811289,0.002957535494977342,0.0032591726508976867,0.3172543164160503,0.007261461171367159,0.02966328678252977,0.3152370785073991,LR
0.6530726541546616,0.03145107621752069,0.8896250035037528,0.5048923499207271,0.5812132932437457,0.5722713933841514,0.0036404914518881194,0.29448912619109296,0.9969251482842687,0.054262292780572534,0.30702040663101976,0.9179250417786916,0.9776286323401515,0.0,0.3567865114564115,0.6141176379930802,0.5909980260274686,0.6432926694108773,0.003121646347939061,0.0032389189161819276,0.31717991940383433,0.009720917484349929,0.020865217911744272,0.3175861794387632,LR
0.6402235033675066,0.041458316681437485,0.9415013422764177,0.46966729718425637,0.5518590911753558,0.40717992136907766,0.0036365671731188503,0.2945516006828281,0.9967250100069137,0.04006513098215895,0.3206688661886168,0.9478443289015552,0.9832214742551136,0.0285869376948582,0.3657127585974918,0.6329411039446409,0.6027397149301668,0.7042683040071027,0.0035932437913501,0.003151904909155811,0.31740562021920776,0.025483452669560966,0.015938078248855563,0.3291490807892435,LR
0.6424581343074154,0.057183562009610896,0.94702009210123,0.4403130822978629,0.5538160413980494,0.5899705192005831,0.003587410418009909,0.29459508927615935,0.9968978567009934,0.042414561739913294,0.32048568129547994,0.9441874967520654,0.9761372119020776,0.031823086412770756,0.36046205028739314,0.6023529139792403,0.6046966574620584,0.7134146412087307,0.003938660471081615,0.0032201236705149956,0.31758399377861696,0.02054818760011292,0.022817478277952552,0.32522258698355555,LR
0.644134107512347,0.059328179809440815,0.9735098200020434,0.4344422957197995,0.5440312902845815,0.6430678580068058,0.003320559461704604,0.29462628962037796,0.9974861419404919,0.03141164115344213,0.32002748551876625,0.9604449464877179,0.9828486191455952,0.0,0.3628249120408501,0.5952941720415192,0.5870841349392241,0.7225609784103587,0.004119460563327485,0.003085942678023108,0.31768886667535534,0.016309975942382864,0.01586881241848648,0.32258755854674964,LR
0.6536313118896389,0.05003561675840943,0.9426049114025229,0.4285714322337153,0.536203515029814,0.6076696450170146,0.0031594574911795906,0.2944001932170341,0.9976680858289967,0.038293586729033484,0.3097820023653669,0.9434025223115989,0.9780014874496701,0.04315004878083273,0.3644000815199671,0.6164705519723205,0.5596868792481267,0.7042683040071027,0.004631516768639627,0.0029704468565529547,0.3179511385521553,0.027351292221337833,0.02119031871542336,0.33019364836701587,LR
0.65139668094973,0.052180234558239516,0.9668875010511259,0.4187866939382508,0.5205479388842723,0.5988200338049592,0.002823621844931374,0.2942317925418815,0.9981017187632666,0.029420673106046742,0.3126608717223956,0.9585249044765423,0.9750186465735219,0.0399136791352361,0.3646625739215595,0.564705874193772,0.5538160285800459,0.7103658554850164,0.00495493399658721,0.0029104561749220418,0.31818436870370453,0.027189964383401898,0.023980791757466587,0.32990772086157405,LR
0.6435754497773698,0.04932093934552419,0.9834437505255629,0.42661445637501477,0.49119372399787886,0.40717992136907766,0.002360970032141682,0.2941252943829048,0.9984019261792996,0.024022001610389827,0.31978139947618706,0.9714318535516671,0.9847128946931877,0.04530762854456381,0.36177472736491784,0.6141176379930802,0.5322896145844268,0.7439024385373288,0.005381268200120932,0.002575058731014909,0.31845506626622544,0.02431095806525714,0.014825605995641736,0.3283677895434169,LR
0.641340818837461,0.041458316681437485,0.9459160708779817,0.5380733797370694,0.6165968534108771,0.5221238927793875,0.0024867534937438613,0.2943049131593494,0.9984989629198352,0.037865123789827676,0.3198251846272428,0.9505849016867376,0.9716629353156708,0.03451995065359246,0.3644000815199671,0.5905881899654005,0.47162426022495335,0.7469512042915285,0.005748684331636378,0.0023197956288092568,0.31871805522266117,0.02601136812108248,0.02708293433384595,0.32886193360522864,LR
0.6424581343074154,0.05503923699036783,0.9459160708779817,0.5380733797370694,0.4716242089529396,0.4690265539731647,0.002701556121110546,0.29418282405367563,0.9983321810220392,0.04213917622422991,0.3202313779685264,0.9444309208816877,0.9806114884884841,0.0302050120538146,0.3817274834641616,0.5529411655916961,0.463796459334179,0.5610167518266613,0.006399311796459907,0.0018627106646397918,0.31901295422289094,0.044422022885122724,0.018240886734217785,0.34258105243276227,LR
0.6379888495449185,0.05861320961596856,0.9679910701772311,0.5380733797370694,0.45009778213931706,0.46312681960563973,0.002771160434016918,0.29412448254662704,0.9984534769477093,0.03558050093625296,0.3252401328362943,0.9577590757541359,0.998135709180223,0.036138245940232926,0.3704383745696243,0.5176470397854683,0.5905763064077071,0.5610167518266613,0.006690109147624717,0.001475495581507425,0.31913055528316475,0.031790126394625494,0.0017762199499113539,0.3342652839228767,LR
0.634078245400078,0.04288767150720813,0.9381897307038157,0.3816046525250762,0.45988253325278505,0.4926253561925136,0.0026484750872323355,0.2941059210171866,0.998371602197882,0.04394110519207459,0.3260797836034383,0.945713683991718,0.9813571987075211,0.03236259181754569,0.3812023911261954,0.5152940949827003,0.5905763064077071,0.7378048870594149,0.007227199211863266,0.0014216965986686972,0.3196486453200425,0.04423824094568869,0.017576613001722932,0.3424848720653009,LR
0.6273743296976723,0.03431007864964917,0.9701986605265847,0.3561643765380803,0.46575343519287954,0.4985250519169669,0.0021717784872689115,0.2942265156060764,0.9988658830949867,0.030157790900470067,0.3320044975359824,0.9708684224201829,0.9858314600217432,0.03451995065359246,0.37096346690759047,0.5176470397854683,0.4677103597795662,0.5610167518266613,0.007519008032075567,0.0008968056530595228,0.319756386535324,0.03264533478211127,0.01348213193112377,0.334397706167932,LR
0.6284916451676266,0.048606261932638783,0.9492272303534405,0.3326810251377711,0.4833658846530942,0.42772858729431257,0.0019301255314813914,0.29438035858070355,0.9987415547711752,0.043235333653975264,0.3319283795333568,0.9509322597144003,0.9873228957320017,0.03398066617650184,0.37542659047813065,0.49411763799308017,0.524461826511656,0.5610167518266613,0.007850769879665405,0.0005310551257400569,0.31993637352391385,0.03760036922352998,0.012003303782511403,0.33801196225896324,LR
0.6223464100828774,0.05003561675840943,0.9459160708779817,0.3268101231976765,0.4833658846530942,0.4808259454220712,0.0017650992821874024,0.2946468622896882,0.9986960687990488,0.0472357313475832,0.3373545551477956,0.9488344360355232,0.9824757640360766,0.024271999095080342,0.3764767751540629,0.5011764569896201,0.5107632005888078,0.5610167518266613,0.008181267390945789,0.00022091981290502273,0.3200998676808802,0.037022176109958796,0.016444140707280713,0.33737999451841605,LR
0.6284916451676266,0.04789129173916652,0.9613687512263135,0.385518629878484,0.49902151207064976,0.5221238927793875,0.0015434808022214764,0.2948321270184279,0.9989750494280897,0.037976085691049245,0.3322415013168847,0.9591457727622074,0.973900065972782,0.031823086412770756,0.3780519446331799,0.4988235121868522,0.5322896145844268,0.8231707475368102,0.008581809133767574,0.00015487502578842455,0.3206548873190023,0.04100509439631059,0.02468933794437622,0.3397604586130825,LR
0.6418994765724382,0.057183562009610896,0.9503312515766887,0.3796477279383895,0.5440312902845815,0.49557521371550817,0.0014069572092510804,0.2948810586049848,0.9988931746782624,0.04120513470909423,0.32108118356920257,0.9464084000470437,0.9876957508415202,0.03398066617650184,0.37883952937273846,0.49411763799308017,0.5890410838801172,0.7743902158964124,0.008963891566472188,0.0,0.32113784045372484,0.041510555746334006,0.011610619394921693,0.3408266319255746,LR
0.6357542186050096,0.04217299409432273,0.9690950914004793,0.4148728063108671,0.5851271808711295,0.5162241584118625,0.0010975588094481572,0.29509988538347826,0.9993055808255399,0.03031759911522786,0.32549433236597153,0.9659042112374424,0.9712900802061525,0.02912622217194906,0.3722761439851151,0.5199999845882362,0.6203522336076002,0.7317073355815013,0.009254436050375035,0.00026811431703209634,0.3214447505378545,0.03399233680566504,0.027203548734685244,0.334574036841611,LR
0.6418994765724382,0.052180234558239516,0.9602651821002083,0.43052834400239853,0.6281800242439717,0.5604719826137091,0.0009389353307772798,0.2953067006752264,0.9995724318620138,0.0353164616115091,0.3208666345990748,0.9551306421747346,0.970171514877597,0.010787677890971355,0.3646625739215595,0.46823527598616027,0.6771037131576932,0.5610167518266613,0.00915607068550279,0.0007264376209599935,0.32133521662348363,0.021516642760370627,0.028003683895444508,0.325577339208467,LR
0.641340818837461,0.07290910011837116,0.94702009210123,0.4442269699252467,0.6653620118215318,0.5722713933841514,0.0010791766615293203,0.29564294850079664,0.9994905571121865,0.04826208085680277,0.32311612917121246,0.9371692235317285,0.9671886587292643,0.02912622217194906,0.37306372872467364,0.5058823311833923,0.6575342365667644,0.7621950330625267,0.009445856567620108,0.0011914754782447485,0.32170881511374405,0.03522511579116439,0.031085986644543907,0.3351906714800993,LR
0.6368715340749641,0.05575420718384008,0.9415013422764177,0.33855192707786563,0.536203515029814,0.5250737503023821,0.0009339783470690075,0.29573444613946015,0.9993753259828002,0.04606745829745979,0.3250920833211876,0.9418243681229262,0.9806114884884841,0.05393750574411977,0.3738514209990136,0.5411764569896201,0.6262230842756809,0.8048780731335542,0.009912143798531366,0.0012800580489648898,0.3222066476509099,0.0404539926443292,0.01875071422043092,0.3397134138681288,LR
0.6324022721951463,0.07362407031184358,0.9437084805286282,0.3600782257114537,0.5322896145844269,0.5722713933841514,0.0010178339881370291,0.29595471208226404,0.9992115764831456,0.05291074990052843,0.3310458777906438,0.9356539767023959,0.9772557772306331,0.06094930858471957,0.36623785093545796,0.4988235121868522,0.6457925480486063,0.8170732559674401,0.010108621661014255,0.001488319277672567,0.3225789912518077,0.033323106954498964,0.02221109518548861,0.33440955447406856,LR
0.6418994765724382,0.06504647745428445,1.0,0.3933463282252308,0.5714285549482813,0.5870206616775885,0.0005049927152990987,0.2960790152868771,1.0,0.022852767018661343,0.32342739990331276,0.9757533156281023,0.96830722405782,0.02265370380843987,0.3646625739215595,0.4870588189965401,0.6340508723484517,0.7865853987302982,0.01009243815625367,0.0018279821140809774,0.32277977354983645,0.02411594907507406,0.030022085920027586,0.32730004807275986,LR
0.6446927652473242,0.040743346487965064,0.8774834826308798,0.4168297180795503,0.598825819611981,0.5958701956035005,0.0009612417574653857,0.2960741258183863,0.9992631272515553,0.0649069429650058,0.31477103575063636,0.9068424061244416,0.9578672657191172,0.019956839567618172,0.3680756203509488,0.5435293863806243,0.6164383331622129,0.7500000099847572,0.010301812249092348,0.0023067793020150225,0.3229762533700502,0.028415665445602832,0.03979812743432412,0.32962945990716147,LR
0.6391061878975521,0.05075058695188185,0.9536424110521475,0.3933463282252308,0.5303326771797368,0.40717992136907766,0.0007635820320906165,0.29608729970707476,0.999102410150043,0.038533972130293366,0.3229783209873681,0.951725439462607,0.9578672657191172,0.017799480731571154,0.37437651333697974,0.5435293863806243,0.5283757269570432,0.7500000099847572,0.010664423902631939,0.0024813301706319347,0.3232854939629963,0.03516409921100674,0.03962071718876815,0.3344914471782475,LR
0.6480447345398668,0.05003561675840943,0.9282562522774394,0.3796477279383895,0.5264187767343496,0.5722713933841514,0.0007468522120745371,0.2959312795351573,0.99892349865968,0.046056112106520275,0.3142797459423266,0.9346556642606877,0.9560029748993402,0.031283801935680144,0.3680756203509488,0.5388235121868522,0.5068493001434206,0.7774389616810976,0.010887452827612292,0.002661357252847266,0.3235233851321783,0.030972016087875722,0.041862590969079384,0.3312911848428104,LR
0.6396648456325295,0.048606261932638783,0.9260486619280859,0.385518629878484,0.49706457466595966,0.5073746244859505,0.0007850622948273437,0.29585574185968067,0.9986232912436471,0.049116699035362095,0.3214142171302354,0.9347404524406685,0.9470544369987116,0.0399136791352361,0.37096346690759047,0.5364705673840843,0.5440313031025849,0.8323169848908655,0.011243237065081046,0.003116901171984009,0.3239215435999656,0.03706732837927536,0.05056583988472201,0.3348801761634036,LR
0.6312849567251919,0.062187182241569126,0.9337750021022517,0.34637962542461237,0.5127201379934979,0.4985250519169669,0.0008216200496770994,0.2960076290469115,0.9983048894387635,0.05339459763618448,0.3304522265683487,0.9345052336187866,0.9656972382911903,0.026429357931127113,0.36518766625952565,0.4470588143730109,0.5518590911753557,0.853658604773952,0.011141078691280436,0.0032172617297399463,0.3242040729764774,0.025726786791228407,0.03257720467183447,0.3282695182984021,LR
0.6368715340749641,0.062187182241569126,0.9403973210531694,0.35029347459798577,0.5068493001434207,0.44837755131220275,0.0007672997698719675,0.29604347899890254,0.9979561636524628,0.04876631327448558,0.3257378753752812,0.9382003572043969,0.9645786729626348,0.0258900734540365,0.3667629432734241,0.40470587419377213,0.5283757269570432,0.8231707475368102,0.010976462103794792,0.003262612483560008,0.3244656277736415,0.027525555574267415,0.03360059796972399,0.3294834469580085,LR
0.6391061878975521,0.05503923699036783,0.9415013422764177,0.36203527847817485,0.5440312902845815,0.4159291687952558,0.0006627900300185974,0.29609995697267727,0.9976256322550122,0.045083224310540945,0.32304942212163884,0.9419064212003269,0.9694258046585599,0.04099246901710164,0.3670254356750165,0.48235292939100416,0.5577299290254331,0.8109755647029244,0.01106547137997765,0.0033113480327197973,0.32475747918541914,0.030589320097128687,0.029314207291236398,0.33199162882323485,LR
0.6363128763399868,0.05575420718384008,0.9381897307038157,0.3757338787650161,0.5264187767343496,0.4719764114961593,0.0006475059969173574,0.2961698302450343,0.9973800080055307,0.047632463413822594,0.3254787973736175,0.9397320146492093,0.9627143974150423,0.060410024107628954,0.3659753585338656,0.45176469319031215,0.524461826511656,0.7987805815641841,0.011151699116279279,0.003396463252116315,0.32506851247745455,0.03408459387486277,0.036220923798539854,0.33398911384601776,LR
0.6329609299301235,0.051465264364767095,0.9624723203524188,0.3659491276515482,0.5401174026571978,0.43657817918483216,0.0001675047411481252,0.2962505526021936,0.9974952391349174,0.03717819846718724,0.32873986560155666,0.9578219831134765,0.9656972382911903,0.04476812313978888,0.3817274834641616,0.45647056738408426,0.5225048762889624,0.8109755647029244,0.011577780452551397,0.0032866087562123717,0.32578577138318016,0.04865510915011967,0.0327033998585439,0.3447059067465127,LR
0.6318436144601691,0.06290215243504155,0.9172187526278146,0.39921723016532534,0.5714285549482813,0.4247787490928539,0.0004903283051616129,0.2964982180193704,0.9967826255716067,0.06032462029202778,0.3294886591528395,0.9233843065284161,0.9660700934007088,0.042071258898967186,0.3770018674920291,0.4799999845882362,0.5420743528798913,0.7713414701117274,0.011898163273356504,0.003348470706811587,0.3261717394971585,0.04260934232180793,0.03237127634345884,0.34039399451179486,LR
0.6234637255528318,0.06647612506064211,0.9525388419260423,0.43052834400239853,0.5909980315392102,0.4306784448173072,0.0006555610954438135,0.29697386182398944,0.9965915844886768,0.04983535523096894,0.3384674349452733,0.9457082137865577,0.9586129759381542,0.04153197442187657,0.37306372872467364,0.4752940949827003,0.5733855051709749,0.7865853987302982,0.012118410658455986,0.0036557165602102695,0.3264999827004539,0.03862910876498288,0.039543333851678866,0.3369860383393763,LR
0.6324022721951463,0.052180234558239516,0.9525388419260423,0.46966729718425637,0.5949119191665939,0.4867256797895962,0.0007365251626818629,0.29724617754268967,0.9966522324515116,0.041746098016089604,0.32899304445801686,0.9510826903563014,0.9511558584755995,0.04530762854456381,0.37910212930911225,0.5082352759861603,0.5479451907299686,0.7195121926866446,0.012589755234605062,0.004022595352642976,0.32684615289464425,0.04711993199336053,0.04662863550682674,0.3424784251928442,LR
0.6396648456325295,0.06647612506064211,0.8907285726298582,0.432485319861099,0.5694716175435912,0.4690265539731647,0.0013367332733812479,0.29731254515839295,0.9956242494814599,0.0700956137741219,0.32211747827631126,0.9037872965425567,0.9660700934007088,0.03451995065359246,0.38067729878822926,0.5317646931903122,0.5753424553936685,0.5610167518266613,0.01306893869587247,0.004169847709251697,0.32697200037073004,0.04519913005000691,0.03213610896949566,0.34226811775892085,LR
0.6385475072798955,0.054324559577482424,0.9271522310541911,0.432485319861099,0.5322896145844269,0.4690265539731647,0.0015147716049099653,0.29731809885656546,0.9952633941025917,0.051000935964598204,0.32301636268913486,0.9329845165842943,0.9642058178531163,0.026429357931127113,0.3704383745696243,0.4799999845882362,0.5792563443028524,0.7530487957084714,0.013137718591104417,0.00436294615558385,0.32714965685050373,0.031895318978816874,0.033902360941582506,0.33259606667599445,LR
0.6284916451676266,0.06790577266699978,0.8719647328060676,0.43835617052917975,0.5440312902845815,0.4719764114961593,0.0023653073928867874,0.29752760796868966,0.9940170784663339,0.08182622904728716,0.33141980747854183,0.8924174751174041,0.9500372778748596,0.04315004878083273,0.3780519446331799,0.4870588189965401,0.5479451907299686,0.5610167518266613,0.013505387589881465,0.004736842206647698,0.32724879311015553,0.04556596172991286,0.047656461390622684,0.3412678070893643,LR
0.6391061878975521,0.07147974529260051,0.9348785712283569,0.4227005815656345,0.5264187767343496,0.48967551799105485,0.0025557381836867725,0.2975494721957145,0.993671385078175,0.053612867580528537,0.3245648796552754,0.9301071886701109,0.970171514877597,0.04746498738061083,0.3672880356113903,0.5294117483875442,0.5733855051709749,0.5610167518266613,0.013691245027365153,0.00479355816758408,0.32717977419520816,0.03220479507337508,0.028734846951406802,0.33318952742159785,LR
0.626815671962695,0.05646888459672549,0.9768214315746454,0.42074360570693403,0.5205479388842723,0.5132743202104039,0.002339696310392873,0.29778479401130514,0.9941777955678467,0.03509146087592969,0.33517585031809966,0.9657100189542607,0.9716629353156708,0.04908306173956699,0.36991338976643956,0.5411764569896201,0.581213294525546,0.7073170697613023,0.013969399015435778,0.004844192504373475,0.32735545870598326,0.035476748167733094,0.027297060275915982,0.33563167240409275,LR
0.6318436144601691,0.06790577266699978,0.9558500014015011,0.42074360570693403,0.5831702306484359,0.5280235885038408,0.002362622360044733,0.29806554175679895,0.9942748323083828,0.04600649655970018,0.3313138650585239,0.9462907906361028,0.9630872525245607,0.03505945605836738,0.3783145445695537,0.5129411655916961,0.6027397149301668,0.6951219468359602,0.014326953323737911,0.005121030237037219,0.32760912562715344,0.04286195096365946,0.035024045496830775,0.3403798810883087,LR
0.6508380232147528,0.06504647745428445,0.8929361629792116,0.48727981073448823,0.6086105540620446,0.4926253561925136,0.0029572538640720916,0.2979871257527014,0.9933681452640002,0.06530732888934442,0.3122161349925097,0.904667999573324,0.9563758300088587,0.02265370380843987,0.37673926755565523,0.4729411655916962,0.5499021409526621,0.6493902408583057,0.014501178867174907,0.005350948652186878,0.32773084989533324,0.03902791313289137,0.0411079298673481,0.33714285415588924,LR
0.6502793654797756,0.057183562009610896,0.9006625031533775,0.46966729718425637,0.5890410813165167,0.5427728567972777,0.0033724012496555997,0.2978682470904894,0.9927889572189268,0.05943904047378605,0.312186206777841,0.9133765661881148,0.9560029748993402,0.036677530417323544,0.3738514209990136,0.5552940949827003,0.516634038438885,0.67378048670899,0.014865054857023594,0.005487386174905253,0.3278767756012219,0.038748701262091456,0.041887958177580016,0.3368762672678173,LR
0.6312849567251919,0.05003561675840943,0.9117000028030023,0.47162427304295684,0.5068493001434207,0.5752212509071462,0.003758219814963842,0.2979241346378804,0.9925675921545792,0.05824538272528959,0.3284218999451345,0.9257775212859357,0.9567487003905617,0.04854377726247637,0.3785770369711461,0.434364688566783,0.504892349920727,0.7469512042915285,0.015093899729027293,0.005573822290044104,0.3282342397996767,0.04666108731057722,0.04139271016067356,0.3426017869685011,LR
0.6318436144601691,0.057183562009610896,0.9415013422764177,0.41095886741146953,0.5009784622933433,0.5427728567972777,0.003777634667821976,0.29799314072148625,0.9926312725155559,0.048248619274332175,0.32967032168592375,0.9417259044300457,0.9563758300088587,0.031823086412770756,0.3749014981401645,0.4964705673840843,0.5342465648071204,0.7378048870594149,0.015306813963532371,0.00575098743148438,0.3284576101062334,0.038879520809948734,0.0413842722260565,0.3370132197475718,LR
0.6083799209430886,0.07433874772472883,0.902869641405588,0.432485319861099,0.5812132932437457,0.46607667712863426,0.004494744977645999,0.2986827033852834,0.9918519461931271,0.07836025617776057,0.3508693065139624,0.9116835376910808,0.9656972382911903,0.023732493690305414,0.36518766625952565,0.4611764569896202,0.606653607684752,0.6951219468359602,0.015145737517713127,0.005970338680695385,0.328431974509253,0.025165922386421864,0.032515869431912425,0.32787172884384763,LR
0.6486033922748441,0.07719804293744414,0.9293598214035446,0.49706457466595966,0.5538160413980494,0.5663716590166266,0.004847103902922376,0.2985678101011621,0.991563868369661,0.054939602687162525,0.3165197949623203,0.9228126700891915,0.9533929891327106,0.03074451745858928,0.37595168281609675,0.5764705673840843,0.6027397149301668,0.6280487807313355,0.015576876199223062,0.006413058903666992,0.32852035457436746,0.04014695721297737,0.04416470519399843,0.33768491416163565,LR
0.6709497474392909,0.05289491197112476,0.9492272303534405,0.5048923499207271,0.5029353996980335,0.40717992136907766,0.004704177539328281,0.29788627354601965,0.9914061836662906,0.0313387562997802,0.29489492990959165,0.9448329809609507,0.9574944106095987,0.0399136791352361,0.3672880356113903,0.434364688566783,0.5968688668256867,0.6615853637836477,0.015482050976016857,0.006756629389979804,0.3285329034679944,0.03173814026833157,0.04068387024819181,0.331941796241543,LR
0.6351955608700324,0.052180234558239516,0.9735098200020434,0.42661445637501477,0.6165968534108771,0.5427728567972777,0.004393746434586061,0.2981478139832156,0.991997501303931,0.03203933551321217,0.3271929574931989,0.9645038387164708,0.967561513838783,0.03829560477627994,0.36755052801298266,0.5317646931903122,0.5538160285800459,0.692073161112246,0.015604438730768019,0.006758445621625507,0.3285868637105894,0.03078140029146398,0.031027508553368773,0.33200818160386686,LR
0.6234637255528318,0.05289491197112476,0.9558500014015011,0.4148728063108671,0.49119372399787886,0.5014749480830332,0.004312988908335637,0.29834865120782783,0.9922491903496962,0.043745335321288506,0.3370312266320975,0.9539080513214646,0.9690529495490413,0.021575134854258396,0.3751640980765383,0.5270588035847763,0.5205479260662688,0.7256097641340729,0.01581861730158255,0.006615926474760145,0.3287618311417287,0.03588433892318426,0.029120481925265815,0.33580103348592677,LR
0.6301676412552375,0.06504647745428445,0.9437084805286282,0.44227005815656345,0.5264187767343496,0.5958701956035005,0.004447240550439815,0.2985143765134288,0.9923977778586415,0.05065016558707969,0.33208103072771317,0.9398085975214497,0.9545115544612661,0.03505945605836738,0.3819899758657539,0.5788234967750885,0.5264187767343496,0.7378048870594149,0.016401476340221623,0.006782744599552155,0.32910441593774037,0.04785945294486765,0.04309241993951454,0.34331913220914995,LR
0.6396648456325295,0.07147974529260051,0.9161147314045663,0.4442269699252467,0.5244618265116561,0.5663716590166266,0.004827275968088406,0.29850179305112423,0.991964144924372,0.06130712350405755,0.32346077072764573,0.9178183727780707,0.9679343689483014,0.03937439465814548,0.37778945223158755,0.5811764569896202,0.5733855051709749,0.6859756096343321,0.016849557128277314,0.006838992743246463,0.32930555677558687,0.04278067687888973,0.030521446094943623,0.340648036134546,LR
0.6363128763399868,0.07005009768624285,0.9094924124536488,0.44618394578394716,0.5714285549482813,0.5250737503023821,0.0052610120425786696,0.29863124403577096,0.9913970864718651,0.06463213437428537,0.32605687900446645,0.9145690709130044,0.9615958168143023,0.046386197498745285,0.3738514209990136,0.5294117483875442,0.5616438294708203,0.664634149507362,0.017136308603252156,0.00698286030451545,0.3294394713975756,0.040300718994974165,0.03680153914763211,0.3384052214788185,LR
0.629608960637581,0.05360958938401016,0.9337750021022517,0.46379644651617563,0.5557729788027395,0.4837757836235299,0.005434093390399115,0.2988302177271093,0.9912788229443369,0.05095978198390255,0.33099212810106254,0.9385641258475399,0.9615958168143023,0.04422883866269827,0.3780519446331799,0.48941174838754425,0.5557729788027395,0.6341463322092493,0.017411175316918343,0.007102593999825584,0.3295952569484568,0.04467023833320292,0.036668614975088824,0.34155181795704886,LR
0.629608960637581,0.062187182241569126,0.9492272303534405,0.46379644651617563,0.5381604524345042,0.533923284228294,0.005530134949750486,0.2990188589567313,0.9914152808607157,0.047546886210974075,0.3324416570646978,0.9447673384990303,0.9407158848647124,0.04854377726247637,0.3746390057385721,0.5552940949827003,0.592954975352902,0.6402438836871631,0.017822843219263258,0.007752089443794745,0.3297067628318263,0.043874582127950895,0.05679511841343502,0.339159679796042,LR
0.634078245400078,0.057183562009610896,0.9050772317549417,0.493150661402569,0.5401174026571978,0.5103244820089451,0.006016952058118959,0.29908159176000937,0.9909028055747604,0.06258905077189668,0.3265210604241139,0.9179496577019118,0.95712155550008,0.04908306173956699,0.3670254356750165,0.5176470397854683,0.5714285549482813,0.6310975464855352,0.017918679911516595,0.008001050772563027,0.3296791552658473,0.03341829281954448,0.04128683544308936,0.3330978772888357,LR
0.6312849567251919,0.06433180004139921,0.9415013422764177,0.48727981073448823,0.536203515029814,0.5280235885038408,0.006229895816594676,0.29922908765101075,0.9908937083803353,0.05093593575209751,0.33094176912250733,0.9385668609501195,0.9470544369987116,0.05285871586225423,0.38067729878822926,0.5552940949827003,0.5968688668256867,0.6798780581564183,0.01846841333884897,0.008519860094025214,0.3299593541335427,0.05101205760843814,0.05072658787964177,0.3448996613998041,LR
0.624022383287809,0.060042857222326225,0.9172187526278146,0.4657534223748761,0.5068493001434207,0.5014749480830332,0.006623769480429374,0.2994201828402904,0.9905389177977508,0.06192404859785114,0.33603598374776844,0.925594269413074,0.9492915676558226,0.05933123422576341,0.3625623121044763,0.5364705673840843,0.5753424553936685,0.618902423560193,0.01855236526979401,0.008928814919583456,0.3298638032720701,0.03125684148405016,0.0491956367931418,0.3308299721024664,LR
0.6324022721951463,0.06719080247352752,0.8841062536789405,0.4481409088246442,0.5068493001434207,0.4926253561925136,0.007256404526221768,0.29944333862502975,0.989604939170093,0.07535293865383778,0.32834188954464744,0.900037470905346,0.9530201340231922,0.05393750574411977,0.3798897140486708,0.5176470397854683,0.5616438294708203,0.6615853637836477,0.018971366322733326,0.009201387259745918,0.330107610348248,0.04971630951221652,0.045073572221088806,0.3444825313278797,LR
0.6229050678178546,0.059328179809440815,0.9426049114025229,0.4735811848116401,0.49706457466595966,0.5280235885038408,0.007426800841200012,0.2996471833340344,0.9897110731050541,0.05162920724933131,0.33780468933604946,0.9424889980498715,0.9548844095707847,0.04153197442187657,0.37883952937273846,0.5741176379930801,0.565557717098204,0.6310975464855352,0.01943360767745462,0.009437690004316853,0.33024941284623066,0.045622585116298825,0.04297834760823593,0.34172187599806736,LR
0.6251396987577634,0.06933512749277058,0.8995584819301292,0.4403130822978629,0.6165968534108771,0.5280235885038408,0.00795554577010235,0.30005016779179794,0.9890894314859962,0.07212638964396602,0.33547495946932604,0.9097963169108657,0.9541386993517477,0.03505945605836738,0.37096346690759047,0.5458823311833922,0.5694716175435911,0.6493902408583057,0.019604293079225215,0.00969603519658795,0.3302581970717694,0.03527563751953442,0.04367866947912641,0.3342264284483407,LR
0.6424581343074154,0.07505371791820124,0.9326709808790034,0.47553816067034055,0.5225048762889624,0.48967551799105485,0.00819306790613283,0.2999694269838142,0.9887528352922623,0.05472248659274462,0.3218866677328953,0.9266418137012227,0.9589858310476728,0.005933233886418571,0.37411391340060596,0.564705874193772,0.5733855051709749,0.5975609634332227,0.019733508250047212,0.009853799681812726,0.33016049497138944,0.03227362177579257,0.03827435927317853,0.3325256737983597,LR
0.6189944407903348,0.07076477509912825,0.9525388419260423,0.46966729718425637,0.6165968534108771,0.5014749480830332,0.008364083844074681,0.30052479680106986,0.9888559368290817,0.05295863467245945,0.3429205110943286,0.9443051061630063,0.9522744238041552,0.04530762854456381,0.3785770369711461,0.5741176379930801,0.5753424553936685,0.5487804697349027,0.020196761073815996,0.010161403277808291,0.3301995758115414,0.046402621077030456,0.045573973786669594,0.3420569391260168,LR
0.6335195876651007,0.057183562009610896,0.8730683019321728,0.4833659231071045,0.48532293741981536,0.5132743202104039,0.009057441940295466,0.3004293137843158,0.9879462173865577,0.07591428664286005,0.3259505386948894,0.8976032296091263,0.9574944106095987,0.035598740535458,0.38382774528124475,0.434364688566783,0.5538160285800459,0.618902423560193,0.020383377113085212,0.010284989585700222,0.3303897811849418,0.04978733281151969,0.040239276541312395,0.3449414789508744,LR
0.624022383287809,0.06147250482868388,0.9326709808790034,0.49119372399787886,0.46183945783947167,0.5162241584118625,0.009329249880309335,0.3005158850528395,0.9878916342200063,0.056081337188986884,0.33672606263975324,0.9349401149290102,0.9466815818891929,0.0614888139894945,0.3770018674920291,0.5599999845882362,0.5518590911753557,0.6128048720822791,0.02084764140590149,0.010630651490271726,0.3305319422227425,0.04872369178621646,0.05143294447592293,0.34318601300490986,LR
0.6262570142277178,0.07576839533108648,0.9227375024526269,0.48140901133842134,0.5029353996980335,0.4247787490928539,0.00975348506935845,0.30067262480691204,0.9873306405637835,0.0645138647568655,0.33602006816540125,0.9216666621081623,0.9601043963762282,0.042071258898967186,0.37778945223158755,0.5599999845882362,0.5616438294708203,0.5914633919857945,0.021205448581465225,0.01072426997600951,0.3305980928191467,0.04403737436381073,0.03804215585726121,0.3409900688543402,LR
0.61396652117554,0.06147250482868388,0.95916116087696,0.5068493129614241,0.5440312902845815,0.4719764114961593,0.009892693695171047,0.30113651543632874,0.9875944592021151,0.04882342884582504,0.34648906145378294,0.9533856467286804,0.9530201340231922,0.051240641503298066,0.3801522064502631,0.5223529293910041,0.5596868792481267,0.5762194973153982,0.021576910589170637,0.010953087644707222,0.330710315782152,0.04942733498859111,0.04499290449805681,0.3442818070827431,LR
0.6307262989902149,0.05503923699036783,0.90618125297819,0.5127201379934979,0.5146770882161915,0.4808259454220712,0.01033572411411454,0.30116146095104407,0.9871335346845699,0.06245597341375914,0.329258990379463,0.9200173952524089,0.9604772514857467,0.0329018762946363,0.37883952937273846,0.4964705673840843,0.5968688668256867,0.5701219358527272,0.021749871796298177,0.011139031239101751,0.33073362087031605,0.04323146737309248,0.03744047237395106,0.34045898595574975,LR
0.6201117562602892,0.06433180004139921,0.9359825924516052,0.5577299290254331,0.5342465648071205,0.4100294807994169,0.01076140509007864,0.3014693314085433,0.986878813240663,0.05709884051544001,0.34060375588714364,0.936255699270001,0.9504101329843782,0.036138245940232926,0.3812023911261954,0.4870588189965401,0.5949119242937952,0.539634134530226,0.0219875670224677,0.011512734659536514,0.330764276024747,0.047608552767260726,0.04703071911272405,0.34279345074423906,LR
0.6229050678178546,0.06647612506064211,0.9304638426267929,0.5616438038348134,0.6046966548984577,0.37758108668954854,0.011235829739175847,0.3018670942829751,0.9864421479082516,0.05914942414234808,0.3381984270041761,0.9313653358569209,0.9560029748993402,0.036677530417323544,0.3854030222951432,0.43058821616539905,0.59882581576658,0.5213414401574555,0.022174183061736918,0.011782114834988332,0.33084046573605275,0.05195879086615987,0.041649105882803045,0.346385055661774,LR
0.6173184675854032,0.07076477509912825,0.862030802282548,0.5538160413980494,0.6027397072393648,0.4159291687952558,0.01235177069654284,0.3023166670725848,0.9851018279295995,0.09049894970810472,0.3411134005138138,0.8861267391833528,0.9589858310476728,0.035598740535458,0.37778945223158755,0.4470588143730109,0.6320939221257581,0.5365853488065119,0.022206297203996125,0.012093626080888292,0.33080730080289616,0.042746019461360446,0.03894432060084247,0.3399909778633567,LR
0.6318436144601691,0.07290910011837116,0.9094924124536488,0.6027397072393648,0.5929549689439003,0.44247785558774955,0.013058967038949732,0.302506027884362,0.9844650243198327,0.06710906554886802,0.3303082251470181,0.9137430699338378,0.9623415270333394,0.0285869376948582,0.38251506820372005,0.4611764569896202,0.6418786476032192,0.48780485710514326,0.022346132799816964,0.01235882341982274,0.33076893704238003,0.04633574690517827,0.03549990762597781,0.34283613949429,LR
0.6346369031350552,0.05861320961596856,0.9117000028030023,0.565557717098204,0.6007827698346747,0.46607667712863426,0.013515009540128102,0.302624795841627,0.9840647477651223,0.060179427509666726,0.32639870073489335,0.9214834102353006,0.9541386993517477,0.03398066617650184,0.3819899758657539,0.4658823311833923,0.6438356106439163,0.5060975315083992,0.02252212841408734,0.012788031980096743,0.33076194551593063,0.04766249142411961,0.0434170668036731,0.34314994536711185,LR
0.641340818837461,0.07433874772472883,0.9216334812293786,0.5890410813165166,0.6007827698346747,0.48967551799105485,0.014002446271460035,0.30265695562871925,0.9836917627936876,0.05947923291287677,0.3224510827223638,0.9198861103285677,0.9459358716701559,0.0426105433760578,0.3667629432734241,0.4847058741937721,0.6046966574620584,0.4634145912849444,0.022434636341475897,0.01325818830838303,0.3304648952767935,0.032939678764790155,0.051812891854612846,0.3317870713025837,LR
0.6301676412552375,0.060042857222326225,0.9337750021022517,0.5831702306484359,0.5792563430210522,0.3805309442125431,0.014327541786339888,0.3028295999935053,0.9834249117572137,0.053018827176934916,0.3312022656869472,0.9356020097533757,0.9608501065952653,0.06094930858471957,0.38041480638663694,0.49411763799308017,0.5557729788027395,0.539634134530226,0.02274844461347213,0.013274671986500886,0.33056869255407806,0.05111041633565181,0.03774770932238077,0.3460897192073414,LR
0.6206704139952663,0.07862769054380181,0.9304638426267929,0.5048923499207271,0.6165968534108771,0.44247785558774955,0.014702620220279914,0.3032989705177966,0.9830913479616218,0.06428655632143408,0.3415699355341066,0.9260565017490979,0.9656972382911903,0.05231943138516361,0.38067729878822926,0.5176470397854683,0.6320939221257581,0.5457316880050914,0.02307059750511026,0.01343163843054801,0.3306563555395567,0.04909613699149693,0.032894535099014945,0.3450085612723827,LR
0.6346369031350552,0.05861320961596856,0.9381897307038157,0.5538160413980494,0.5733855051709749,0.386430678580068,0.014861656780926333,0.3033622014933359,0.9829154688694006,0.049183814639394,0.3272578653899832,0.9386242981043,0.9645786729626348,0.0302050120538146,0.37542659047813065,0.4164705673840843,0.6516633858986836,0.5365853488065119,0.022920900086076106,0.013660676248536112,0.33057102306289443,0.03838455431171225,0.03354697970165109,0.3372782384774786,LR
0.6318436144601691,0.05789853220308315,0.9359825924516052,0.5616438038348134,0.6301369719030646,0.4336282830187659,0.015066958522851722,0.3035916374959131,0.9828305617214315,0.050787858344921374,0.32956782187557004,0.9378174428431935,0.9548844095707847,0.03829560477627994,0.3864530994362941,0.46823527598616027,0.6516633858986836,0.5091463172321135,0.023208915897360044,0.014061540587672571,0.33066567757482224,0.05361600118323362,0.04273049663002244,0.3474853799743067,LR
0.6368715340749641,0.059328179809440815,0.915011162278461,0.5890410813165166,0.5694716175435912,0.548672552521731,0.015499042269439229,0.3035844785760096,0.9826880390087694,0.05834134457747256,0.3246206533917447,0.9230424187059133,0.9533929891327106,0.03451995065359246,0.3817274834641616,0.5294117483875442,0.6320939221257581,0.47256094845608687,0.02351867829316631,0.014434666116220055,0.3306136893012256,0.04755363784511901,0.044144411427197924,0.3430091596118426,LR
0.6229050678178546,0.06075782741579848,0.9403973210531694,0.5812132804257423,0.5322896145844269,0.5309734267052995,0.015789851980335542,0.3037818839472661,0.9828942420824082,0.053038827242319814,0.33789153305722686,0.9404103200890548,0.9601043963762282,0.04476812313978888,0.3770018674920291,0.5105882207889282,0.581213294525546,0.47256094845608687,0.023697202580055234,0.014515653536421789,0.3305161664707546,0.04371545088690063,0.03812479955232378,0.3407524057724251,LR
0.6251396987577634,0.04789129173916652,0.8830022324556922,0.5851272065071363,0.5499021281346588,0.44247785558774955,0.01647391573210295,0.30389904668280004,0.9821967905098066,0.07118119424621189,0.332567597759951,0.9091836539329405,0.9448173063416004,0.04692570290351997,0.38041480638663694,0.4870588189965401,0.5831702370574375,0.47256094845608687,0.023938437947891154,0.014901355093182723,0.3304821051880532,0.04965993019215092,0.05268712596651869,0.3437385273984239,LR
0.6156424943804716,0.07076477509912825,0.95916116087696,0.596868882207291,0.5831702306484359,0.4336282830187659,0.016748615245946792,0.3043733989297045,0.9823787343983114,0.05146228362669642,0.3461233490502592,0.949058714447085,0.9642058178531163,0.04476812313978888,0.3888159611897511,0.4658823311833923,0.5968688668256867,0.5182926544337414,0.024273739937147393,0.014937266946177384,0.3306486469334718,0.056897472864096424,0.03399290852476737,0.35052359929934696,LR
0.6189944407903348,0.05861320961596856,0.9459160708779817,0.5342465635253201,0.545988240507275,0.34808255010267464,0.016868409018901256,0.3046560840117701,0.9822816976577757,0.05140939883841925,0.3412708263828803,0.9454155578104954,0.9615958168143023,0.03829560477627994,0.38251506820372005,0.43764703824429185,0.606653607684752,0.5548780331945251,0.024360473407972948,0.015053753439454278,0.3307325452508622,0.04850110330180252,0.03643929541024315,0.3443182232001335,LR
0.6134078634405628,0.07576839533108648,0.9547464322753958,0.5264187651981465,0.5870841310938231,0.31563417531434207,0.017061318301555526,0.3051711572283319,0.9820663973897115,0.05588729809308988,0.34854839941572513,0.9441792914443254,0.9645786729626348,0.0372168148944144,0.3762141752176891,0.3599999845882362,0.6223091838302938,0.5304877773590836,0.024086365296092288,0.015167433029278728,0.33067015932254623,0.040786655039347273,0.033694750366748426,0.338990318714208,LR
0.6201117562602892,0.06290215243504155,0.894039732105317,0.5733855179889783,0.6301369719030646,0.40717992136907766,0.017747034381225834,0.30556665065135097,0.9813204274468421,0.0737306256578146,0.3389608179986553,0.9098592242702059,0.9690529495490413,0.02912622217194906,0.3817274834641616,0.38117645698962016,0.6418786476032192,0.4542682740528309,0.023967770550269493,0.015240715224316857,0.3305799865583422,0.04499899566709072,0.029172150923632883,0.3423308440855259,LR
0.6335195876651007,0.07290910011837116,0.9271522310541911,0.5890410813165166,0.6340508595304484,0.34808255010267464,0.018208240407100396,0.30577876132972875,0.9807169802166343,0.059203847397193386,0.3294217272091671,0.9250253680764295,0.9582401208286357,0.04315004878083273,0.37437651333697974,0.4164705673840843,0.700587077376006,0.48170728565771487,0.02382085467111585,0.01590435526019348,0.330389422645124,0.04052208714778492,0.03991441605855594,0.33831496526442534,LR
0.6195530985253119,0.05789853220308315,0.9128035719291075,0.5851272065071363,0.6183952859485073,0.386430678580068,0.018692785564602354,0.30614954909875103,0.9802742500879393,0.06449136468330753,0.33954709961433255,0.9242568042514434,0.9686800944395229,0.04692570290351997,0.38067729878822926,0.40470587419377213,0.6771037131576932,0.4999999800304854,0.023825153414567778,0.016071393534275887,0.33040896306519985,0.04767640320439574,0.029925476909127304,0.3441986946999913,LR
0.6335195876651007,0.06933512749277058,0.9713026817498329,0.5733855179889783,0.6125244455348293,0.39528021057382645,0.01861450653020636,0.30630689773003195,0.9805501983188384,0.03943205198940062,0.3304862374758855,0.955658516972679,0.9496644227653411,0.05285871586225423,0.37673926755565523,0.4282352821508658,0.7064579152260833,0.5304877773590836,0.023849428671708296,0.016749508385995572,0.33040824598556406,0.0462083442858095,0.04832345876024076,0.34166855862045287,LR
0.626815671962695,0.04717661432628112,0.8973508915807757,0.61839529620291,0.6262230753030785,0.38348084037860936,0.019178776509019304,0.30651280893137983,0.979971010273765,0.06456098029551238,0.3315251098153559,0.9184200953456757,0.95712155550008,0.04153197442187657,0.37253874392148895,0.4211764600719729,0.6771037131576932,0.5091463172321135,0.02369088089850796,0.017145584478066068,0.3302763033325737,0.038168555617955305,0.04097660783428906,0.3365366739051686,LR
0.6329609299301235,0.05289491197112476,0.9205299121032734,0.5909980315392102,0.6144813944757226,0.3805309442125431,0.019462770367316525,0.3066049523489007,0.9796526084688814,0.055062872320928685,0.32754950113731535,0.9299676984385298,0.9593586861571912,0.031283801935680144,0.3772643598936214,0.4470588143730109,0.6849314884124608,0.5518292514647138,0.023660536827082135,0.017507262243513354,0.33025246043468287,0.041185215340935055,0.038492250243036555,0.3389066836120677,LR
0.6357542186050096,0.059328179809440815,0.9359825924516052,0.5714285421302778,0.6086105540620446,0.4247787490928539,0.01958545571410096,0.30665571056708235,0.9795919605060466,0.04998150955493507,0.32627865918484367,0.9367425475292448,0.9578672657191172,0.02535056804926157,0.37778945223158755,0.4164705673840843,0.6653620118215318,0.5670731561198674,0.0235459879574493,0.017825790748044443,0.33023901519151133,0.040657543955734246,0.039745497152266496,0.3384259560145574,LR
0.6307262989902149,0.051465264364767095,0.9260486619280859,0.5362035047754113,0.5792563430210522,0.4395280173862908,0.019687486962100046,0.30670746512978675,0.9795191829506443,0.053024981043207214,0.32953017806336254,0.9344149752336459,0.9653243831816718,0.021575134854258396,0.3809398987246031,0.4470588143730109,0.6183952833849066,0.5213414401574555,0.023553321108044065,0.017847172747873452,0.3302047746389012,0.04278214127681362,0.03254679072395845,0.3405056822211113,LR
0.6284916451676266,0.054324559577482424,0.9271522310541911,0.5636007796935139,0.5440312902845815,0.3746312484880898,0.019880396244754316,0.30673796434267453,0.9792856882937299,0.05431633141877571,0.33182994511632513,0.9340867629240432,0.9653243831816718,0.026429357931127113,0.3833026529432786,0.4470588143730109,0.6125244455348293,0.5487804697349027,0.023636008702679654,0.017845163885598654,0.3302660849477634,0.046515623783482035,0.03261424079624538,0.3431781722140842,LR
0.634078245400078,0.0028592952127153267,0.9238410715787323,0.5283757384932463,0.5342465648071205,0.37758108668954854,0.019600946288189824,0.3065276249434482,0.9795070533580774,0.03639877284214185,0.32153879116135053,0.9539572831679051,0.9619686719238207,0.03344138169941123,0.37411391340060596,0.4847058741937721,0.6438356106439163,0.6128048720822791,0.02362715834851383,0.018014403652584936,0.3302764826024827,0.03779757481059839,0.03612653108059277,0.3366612553593983,LR
0.6106145518829973,0.05575420718384008,0.9337750021022517,0.49706457466595966,0.4892367865931887,0.4247787490928539,0.019725283962877017,0.3067872095932479,0.979516150552503,0.05837999854999513,0.34783773406393925,0.9398113326240298,0.9642058178531163,0.03775632029918908,0.3909162230068342,0.4494117483875442,0.6438356106439163,0.6219512092839071,0.02394652970027145,0.01813212848562028,0.3305968379297839,0.05774731179252804,0.03379221385204031,0.35114737776947613,LR
0.629608960637581,0.062187182241569126,0.9558500014015011,0.5577299290254331,0.5675146673208976,0.38348084037860936,0.01969884671643187,0.30688350444627965,0.9796374464781725,0.04479130027925083,0.33266015033132523,0.9491024760883656,0.9586129759381542,0.03398066617650184,0.37411391340060596,0.42588234813633247,0.6301369719030646,0.5884146262315948,0.023798349484807992,0.018318402303950383,0.33056940963371384,0.03822225020849383,0.0393301157886499,0.3367110879410901,LR
0.6368715340749641,0.062187182241569126,0.9381897307038157,0.5420743605706934,0.5929549689439003,0.4247787490928539,0.019741187618941718,0.30688252655258147,0.9795798309134796,0.04968920090700295,0.3256671375314776,0.9367616932473052,0.9679343689483014,0.0285869376948582,0.3646625739215595,0.38117645698962016,0.5636007668755103,0.5609755920811289,0.02327921299616341,0.018109122884774665,0.330330622114987,0.02537972448329348,0.03050609225821956,0.3281715955329794,LR
0.6335195876651007,0.05003561675840943,0.9039736626288363,0.5479451856027673,0.5557729788027395,0.44837755131220275,0.02003447582169217,0.30680621394247626,0.9792220079327533,0.06069904459303027,0.3262245635043413,0.9205862965890533,0.9645786729626348,0.036138245940232926,0.368600712688915,0.4705882207889282,0.6144813957575228,0.5609755920811289,0.023124963966415002,0.018137632217879996,0.3301863098382789,0.03179427552207612,0.033806072358579076,0.3325307267524472,LR
0.6206704139952663,0.05646888459672549,0.9415013422764177,0.5283757384932463,0.5283757141390396,0.4867256797895962,0.02008445874075249,0.3069631382047938,0.9794585349878095,0.05187228496708534,0.33940230241388347,0.9433067937212984,0.9295302010347882,0.03937439465814548,0.367813020414575,0.5058823311833923,0.6125244455348293,0.6402438836871631,0.02313027417891478,0.018845357149156954,0.3301380862327702,0.03553288342147799,0.06733113479208562,0.331967932210962,LR
0.6329609299301235,0.059328179809440815,0.9094924124536488,0.47162427304295684,0.5088062503661142,0.4808259454220712,0.020214166481123938,0.3068295173338116,0.9791583275717767,0.06188654847525457,0.3278704077165663,0.9199216666621081,0.9548844095707847,0.0285869376948582,0.3704383745696243,0.5082352759861603,0.6438356106439163,0.692073161112246,0.02309335555867972,0.019132266711855975,0.33017662926319535,0.033227921089453445,0.042805743781132714,0.3328307676813755,LR
0.6346369031350552,0.06290215243504155,0.8609272331564428,0.4540117082207112,0.5048923499207271,0.4837757836235299,0.020758195443127368,0.30664823798316243,0.9781303446017245,0.08261392393013592,0.3251606587217348,0.8870785548812007,0.9578672657191172,0.03236259181754569,0.37673926755565523,0.5199999845882362,0.6477494982712999,0.692073161112246,0.023232432552715034,0.01935478260711632,0.330322375699175,0.04095506080058163,0.03994531064827723,0.33862354394336375,LR
0.624022383287809,0.06933512749277058,0.9635763415756671,0.46379644651617563,0.5068493001434207,0.474926249697618,0.020515716323388618,0.3067473373615173,0.9785457831471438,0.046056881339804276,0.3386793543844012,0.9516215055645658,0.9630872525245607,0.036677530417323544,0.36886320509050724,0.5341176379930801,0.6340508723484517,0.7073170697613023,0.023237742765214814,0.019444575998933598,0.3303770530214061,0.03234366880981326,0.03523608865757129,0.3328159572987048,LR
0.6368715340749641,0.06075782741579848,0.9271522310541911,0.4657534223748761,0.5088062503661142,0.4395280173862908,0.020449003584312217,0.30656024600115284,0.9783971956381985,0.053794791252202157,0.3251615928972215,0.9302384735939521,0.9552572646803031,0.0399136791352361,0.3793646217107046,0.48941174838754425,0.59882581576658,0.6981707325596743,0.02341474984853232,0.019572565292633307,0.33060598069514063,0.04583687534581151,0.04256916118395843,0.3419109261768636,LR
0.6318436144601691,0.05289491197112476,0.9558500014015011,0.4618395347474924,0.5146770882161915,0.474926249697618,0.020095405413108773,0.30648544635865593,0.9788368933687516,0.040807441101249634,0.3296677267540161,0.9529863217519972,0.9612229617047837,0.06796133235300368,0.3783145445695537,0.46823527598616027,0.59882581576658,0.6554877923362195,0.02362715834851383,0.01959568096812412,0.3308465609129571,0.050194923566970855,0.03760578646640095,0.345443638043308,LR
0.6279329874326495,0.06576115486716987,0.9536424110521475,0.44618394578394716,0.5146770882161915,0.474926249697618,0.019856437490163307,0.30651456175970676,0.9791219387940757,0.04754323235287499,0.3344689908664452,0.9462415587896622,0.9511558584755995,0.04153197442187657,0.36833811275254114,0.48941174838754425,0.5870841349392241,0.682926823910618,0.023550033833639628,0.01976995665012804,0.33086233666494497,0.03394376760785962,0.046759103065494176,0.3329917652529953,LR
0.634078245400078,0.04932093934552419,0.8995584819301292,0.4677103854155731,0.49706457466595966,0.4926253561925136,0.019985732148559063,0.3063149607403356,0.9788126341836177,0.06208347219596666,0.3255211812614431,0.9180317107793124,0.9578672657191172,0.03074451745858928,0.37595168281609675,0.5388235121868522,0.5792563443028524,0.7286585298882725,0.023713133217553854,0.01977507512112958,0.33103586993681267,0.03970788190216507,0.039919569607230275,0.33772986802903593,LR
0.6418994765724382,0.040743346487965064,0.995585271398436,0.4618395347474924,0.6165968534108771,0.4808259454220712,0.019109998360064457,0.30627001453186936,0.9799406862923473,0.01663659285039967,0.32072678506879637,0.9832693775180035,0.9604772514857467,0.04476812313978888,0.37542659047813065,0.5223529293910041,0.6086105579074456,0.5610167518266613,0.023891910371704742,0.019832809272534013,0.3310199149149158,0.04186908917133869,0.03779967204631995,0.3394525768933288,LR
0.6351955608700324,0.06290215243504155,0.9426049114025229,0.43052834400239853,0.49706457466595966,0.46607667712863426,0.018877639748730315,0.3061146770404582,0.9800316582365998,0.04865246674844893,0.32736661033646147,0.9394995309299075,0.9526472789136736,0.03829560477627994,0.3770018674920291,0.4870588189965401,0.6007827647074733,0.7621950330625267,0.023992298674671973,0.020010524787200258,0.33127483672544855,0.043043780372528186,0.04505819168204,0.3396879748578943,LR
0.6396648456325295,0.06862045007988518,0.9911700906997287,0.4050881321054199,0.6165968534108771,0.45132744747826914,0.0181590836519916,0.3061765057533361,0.9807291098092012,0.028614324316060164,0.32554505463499384,0.9685217044065235,0.9545115544612661,0.03074451745858928,0.3809398987246031,0.4964705673840843,0.5694716175435911,0.8140243104876096,0.024169052890727877,0.020043409587452068,0.33163606559199127,0.0457292420984141,0.04299909531455697,0.3417969733501975,LR
0.6273743296976723,0.04932093934552419,0.9403973210531694,0.385518629878484,0.4403130310258492,0.5014749480830332,0.017814366743265694,0.30601662935909957,0.9810080904382422,0.047504962996994284,0.33269665237349333,0.9450134977312323,0.9612229617047837,0.03775632029918908,0.3861906070347017,0.48941174838754425,0.592954975352902,0.8750000249618931,0.024467941994272976,0.020020128799993462,0.33218301808421064,0.052615329268653005,0.03670952293658668,0.3472496335301488,LR
0.616759809850426,0.06862045007988518,0.9194263429771682,0.33855192707786563,0.4050880039253854,0.4719764114961593,0.017775330496561655,0.30601496878489515,0.9807442717999101,0.06659252539864062,0.3434578349946808,0.9239614131728009,0.9530201340231922,0.036138245940232926,0.3785770369711461,0.5317646931903122,0.5772993927983586,0.8445121677247512,0.02469172952103886,0.020110720232988398,0.33254299206139054,0.04434294539723866,0.044610260184568394,0.34066145259884745,LR
0.6195530985253119,0.07147974529260051,0.9381897307038157,0.3444227008379257,0.43639918185247584,0.533923284228294,0.01758634549267651,0.30604854928547337,0.9808655677255801,0.058928846498151874,0.34200225118992766,0.9345189091316868,0.9340044776211947,0.0372168148944144,0.3762141752176891,0.5270588035847763,0.5870841349392241,0.8628048421280075,0.02489351759602117,0.02060459764731407,0.3328787646008618,0.04405934033266741,0.0627649838573232,0.33865159655053995,LR
0.6329609299301235,0.0764830727439719,0.9415013422764177,0.3444227008379257,0.41682967962554,0.5132743202104039,0.017309374027966302,0.30580086541747203,0.9808989241051391,0.054661524854985,0.330789792610447,0.932831350839813,0.9459358716701559,0.04315004878083273,0.37778945223158755,0.5341176379930801,0.5792563443028524,0.893292699365149,0.025142591848975424,0.0208331401293988,0.3332962842188162,0.045710448991725564,0.05156923314138315,0.34100453075741877,LR
0.6245810410227862,0.057183562009610896,0.9260486619280859,0.34246577625123903,0.42270058156563456,0.5899705192005831,0.017085690138122077,0.3056716911951927,0.981102094780636,0.05710057129032908,0.33553049101215054,0.9325277544534305,0.9489187125463041,0.051779925980388684,0.3738514209990136,0.5529411655916961,0.5753424553936685,0.8689025333925229,0.02537042525193163,0.02099327121949525,0.3336340287272858,0.04273186361476395,0.04907168460171032,0.33909834738780564,LR
0.6351955608700324,0.07005009768624285,0.9437084805286282,0.3522505273647069,0.43052840809241577,0.40717992136907766,0.016752332983728142,0.30540472621559567,0.9809747340586827,0.05069939651725778,0.32817302867564097,0.9369750312485466,0.9492915676558226,0.04368933325792334,0.3783145445695537,0.5317646931903122,0.5538160285800459,0.8871952077957789,0.02561166061976755,0.021067929347598317,0.33404007507106703,0.04606263669239395,0.048376489577169446,0.3415591360284862,LR
0.6357542186050096,0.06433180004139921,0.9161147314045663,0.36203527847817485,0.4090019812787932,0.40717992136907766,0.01664885594881407,0.30505467717330415,0.9805107771429956,0.06001442697024198,0.32616404969225404,0.9215736686204415,0.9563758300088587,0.0302050120538146,0.3707009745059981,0.5670588035847762,0.5636007668755103,0.8719512791772079,0.025677406107857025,0.02102874277390913,0.33424784889554493,0.033721911322407455,0.04142672892238913,0.3333041772074484,LR
0.6318436144601691,0.06790577266699978,0.8907285726298582,0.3365948743111445,0.3561643765380803,0.5752212509071462,0.016767410475841467,0.3046631691283757,0.9800559174217336,0.07306139270070677,0.3291325133982822,0.9040033696463783,0.9623415270333394,0.03883511018105462,0.3783145445695537,0.434364688566783,0.5851271859983308,0.893292699365149,0.025629361328099197,0.020942746957351054,0.3346368645979754,0.04374034565160476,0.03582295235065212,0.34094912250225085,LR
0.6329609299301235,0.07076477509912825,0.9161147314045663,0.3483365500112991,0.3659491276515482,0.6991149963714155,0.016700078113801458,0.3043040791820823,0.9802257317176715,0.0632203989897658,0.3293138472399915,0.9189069436049199,0.9425801604123049,0.04315004878083273,0.3872406841758526,0.5788234967750885,0.565557717098204,0.9573171596241177,0.026202864278048882,0.021182296903955216,0.3352632336598615,0.05686501204345282,0.05452886541063846,0.3487446109809057,LR
0.6201117562602892,0.07576839533108648,0.9635763415756671,0.3365948743111445,0.3679060522382349,0.6194691137520646,0.016285137269205868,0.3042111792807573,0.980911053697706,0.04974958571979935,0.34290892039847426,0.9491954695760864,0.9511558584755995,0.04962256714434191,0.3851404223587694,0.434364688566783,0.5420743528798913,0.8963414451498342,0.026377089821485875,0.02116961080109658,0.335813233740533,0.054976426854422104,0.04661496391656114,0.3481271051434368,LR
0.6134078634405628,0.059328179809440815,0.9194263429771682,0.34246577625123903,0.37181990141160826,0.6106194638969374,0.016270679400056155,0.304249187979214,0.9810414468178011,0.06445213378582189,0.34530698347210015,0.9286083524562587,0.9511558584755995,0.05285871586225423,0.38829086885178493,0.434364688566783,0.5538160285800459,0.9115853737684052,0.026637543101224858,0.021212594950044964,0.33637578271483126,0.059293716000036224,0.04663477704151636,0.35122805079508235,LR
0.6256983564927406,0.06790577266699978,0.9370861615777105,0.3326810251377711,0.4031310793386987,0.5958701956035005,0.016020145181791092,0.3041223201099964,0.9813022330579915,0.0559509521473435,0.3361254224008534,0.9346994259019684,0.9470544369987116,0.05393750574411977,0.38776577651381877,0.434364688566783,0.5401174026571978,0.8993901909345192,0.026893950504773514,0.02128521669721192,0.3369356426404951,0.05936083423820947,0.05058885728864574,0.35091790395797906,LR
0.6134078634405628,0.06862045007988518,0.9713026817498329,0.3561643765380803,0.4050880039253854,0.5811209273100635,0.01562833692783484,0.30426131017090635,0.9820482030008608,0.04655419065793092,0.34827593156541775,0.9582787452443403,0.9522744238041552,0.056095085507850855,0.3888159611897511,0.5458823311833922,0.5636007668755103,0.8780487707465782,0.027438120852344504,0.021328668663402384,0.3374820573229874,0.06050208835347252,0.04564681772855351,0.3521828848778501,LR
0.6156424943804716,0.0836313107757602,0.9161147314045663,0.3268101231976765,0.45205483490603826,0.5162241584118625,0.015759903537096963,0.3044501728104222,0.9816691532331429,0.07379524125367329,0.346085809035328,0.914995746915488,0.9332587674021576,0.04476812313978888,0.38802837645019256,0.5058823311833923,0.565557717098204,0.8963414451498342,0.027848018683856036,0.021743540001139823,0.3379867021166936,0.05922415709865696,0.063410138725306,0.3495208492726446,LR
0.6128492057055857,0.07005009768624285,0.9050772317549417,0.3816046525250762,0.44814085755263044,0.4985250519169669,0.01603005914920793,0.30463643388368455,0.981244617493298,0.07432370451980314,0.3465285044187798,0.9145253092717242,0.9448173063416004,0.045846913021654424,0.3859280070983279,0.47764703978546824,0.6086105579074456,0.7987805815641841,0.028108977698118945,0.02206151813244495,0.3383239088154365,0.05571619187224993,0.052519328557868214,0.34811351443933913,LR
0.6229050678178546,0.07362407031184358,0.910595981579754,0.4168297180795503,0.45205483490603826,0.5191740545779288,0.016282865318339505,0.30465193257625905,0.9808928593088554,0.06989407465370553,0.33831018207166735,0.9151844689935092,0.9436987257408606,0.046386197498745285,0.39275399242232506,0.4705882207889282,0.606653607684752,0.8170732559674401,0.02851381818439266,0.022385715481203557,0.33879503013616813,0.06371937059200987,0.0534291301663244,0.3537844970838357,LR
0.6279329874326495,0.07719804293744414,0.9359825924516052,0.5380733797370694,0.5048923499207271,0.5575221250907146,0.016582969373689197,0.30471163944432017,0.9809535072716906,0.0589475004052897,0.3351547448719172,0.9294617044612256,0.9369873184973428,0.04908306173956699,0.3843528376192109,0.4870588189965401,0.6223091838302938,0.7957316360843535,0.02878084601294052,0.022890600360048658,0.33909369380448556,0.05554266071828247,0.06011456450852817,0.34722123244338027,LR
0.6201117562602892,0.05861320961596856,0.8962473224546704,0.5380733797370694,0.5048923499207271,0.45722714320272234,0.017142075827805803,0.3048427510031713,0.9804198051987433,0.07129023306422344,0.3385586035529634,0.9132534865720136,0.9373601736068613,0.03775632029918908,0.3827776681400939,0.44470586032318465,0.5753424553936685,0.8201220017521251,0.028850637377220316,0.02322294323255165,0.33935578641137676,0.051221466511538076,0.05942270727457949,0.3441797025622136,LR
0.616759809850426,0.059328179809440815,0.9094924124536488,0.4657534223748761,0.49510762444326606,0.4926253561925136,0.017433092079690037,0.3050245654277307,0.980168116152978,0.06730887389439533,0.34202820050900457,0.9218116225449032,0.9336316225116763,0.04422883866269827,0.3940666694998497,0.4870588189965401,0.6223091838302938,0.8262194933214954,0.02932526922777383,0.02376786776358619,0.3398306724001963,0.06588960831504687,0.06286802812848523,0.35438597286006096,LR
0.6318436144601691,0.06576115486716987,0.894039732105317,0.49119372399787886,0.5342465648071205,0.5191740545779288,0.017856088022811935,0.305007978136511,0.979658673265165,0.07092177032117218,0.3290166410388308,0.9071350621005039,0.9343773327307133,0.04962256714434191,0.39144131534480037,0.5905881899654005,0.5909980260274686,0.8658535879126924,0.030001689153309294,0.024193829121826955,0.3403218719507308,0.0640342161456219,0.06242049716588469,0.3530964241289361,LR
0.6234637255528318,0.08434598818864561,0.9271522310541911,0.5303326797433374,0.4872798620065021,0.5250737503023821,0.018274126982225414,0.30511883069006823,0.9794797617748017,0.06675291053836135,0.3396327323672863,0.9208953631805961,0.9351230429497503,0.07874878931629073,0.39065373060524183,0.6211763799308012,0.5283757269570432,0.8871952077957789,0.030854104693115135,0.024420280185652996,0.3409136419201887,0.06962894841341051,0.0627410585743584,0.3570952274500163,LR
0.6016760052406827,0.08720528340136094,0.9205299121032734,0.43052834400239853,0.3972603055786386,0.4985250519169669,0.018697329466335087,0.3054510931375479,0.9791765219606273,0.07839833322532008,0.35904732091877545,0.9180344458818926,0.9519015686946365,0.0658037525892726,0.3896035459293095,0.6305881899654006,0.5283757269570432,0.923780556602291,0.031587672619836214,0.024302417759311166,0.34148587146957043,0.06361686273734558,0.04625768681157335,0.35436767768146765,LR
0.606703947738157,0.06719080247352752,0.8818986633295869,0.41095886741146953,0.38747555446517074,0.4159291687952558,0.019182494246800654,0.3055450631866935,0.9783335152772218,0.08476662327549911,0.35067382164358313,0.9018016120694603,0.9504101329843782,0.051240641503298066,0.37437651333697974,0.5388235121868522,0.5753424553936685,0.8567073505586371,0.03167592329423318,0.024359986798747804,0.3416775110022424,0.043058668418086796,0.04761672833141329,0.3394686069545725,LR
0.6150838366454944,0.07433874772472883,0.910595981579754,0.44227005815656345,0.493150661402569,0.48967551799105485,0.019496230007348684,0.305777949493451,0.977984789490921,0.07285446894730224,0.3452763632755894,0.9158162776894944,0.9436987257408606,0.0372168148944144,0.391178822943208,0.5176470397854683,0.6262230842756809,0.7987805815641841,0.03204359229301023,0.02469494394407416,0.3420014517277228,0.05989851234255614,0.053186512843759456,0.3510585154734522,LR
0.6162011521154488,0.06862045007988518,0.9326709808790034,0.4794520482977243,0.49902151207064976,0.5132743202104039,0.0196451460595902,0.3060004848876677,0.9780696966388898,0.06137346987480532,0.34442609058716994,0.9326262181463115,0.9410887399742309,0.036138245940232926,0.38225257580212774,0.5035294017923881,0.6653620118215318,0.7195121926866446,0.0321611755697859,0.025201590017242374,0.3420595351782238,0.049830288483950574,0.05584785344337213,0.34354721210227807,LR
0.6173184675854032,0.06361682984792678,0.898454912804024,0.5303326797433374,0.5205479388842723,0.5693215551826928,0.020164596644039308,0.3062046063590398,0.9778422667782586,0.07313812372078898,0.34163584680456194,0.912692790543109,0.9328859122926392,0.03883511018105462,0.38382774528124475,0.47764703978546824,0.5968688668256867,0.6402438836871631,0.03228381619179866,0.025643264531084627,0.3420448350456897,0.05320328503504934,0.06367393099138778,0.3451484758286713,LR
0.6217877523479003,0.06075782741579848,0.8763799135047746,0.5127201379934979,0.6165968534108771,0.5899705192005831,0.02076976173844711,0.30650124026442244,0.9773692126681464,0.07957045244186364,0.33663696997758924,0.8994056622093609,0.9362416082783058,0.04746498738061083,0.3819899758657539,0.5105882207889282,0.59882581576658,0.6768292724327042,0.032470937965591806,0.026023737542198833,0.3420758487399387,0.052586041310177536,0.06083357800673492,0.3450130915070819,LR
0.6111732096179746,0.06576115486716987,0.9205299121032734,0.4833659231071045,0.45792560866609827,0.5516224486877972,0.02102545948140851,0.30669982648844646,0.9774237958346979,0.06710021936610172,0.34805882226247437,0.9266718998296027,0.9321401868014177,0.0399136791352361,0.3819899758657539,0.5317646931903122,0.5890410838801172,0.7439024385373288,0.0326818292620019,0.026440672779533665,0.34216996544213973,0.051449424455006186,0.06447056814760643,0.34379393565359184,LR
0.6189944407903348,0.059328179809440815,0.9006625031533775,0.42661445637501477,0.4050880039253854,0.4985250519169669,0.021206802468743034,0.3066057826360029,0.9771175236223812,0.07013003696358233,0.3397674958310256,0.9158819201514151,0.9414615950837494,0.04099246901710164,0.3901286382672757,0.5223529293910041,0.5909980260274686,0.5610167518266613,0.03303837210125618,0.026669517966892688,0.34216422880505315,0.059792831625723346,0.05544870709319595,0.35076143662105824,LR
0.6078212632081114,0.08291634058228795,0.910595981579754,0.5380733797370694,0.4344422572657891,0.4837757836235299,0.021830143170081907,0.3066203034348793,0.9768173162063483,0.0785825645968457,0.3526985605134228,0.9127529627998696,0.9336316225116763,0.05393750574411977,0.3846153300208032,0.4611764569896202,0.6086105579074456,0.5610167518266613,0.033228275414929835,0.0271488655280527,0.3421047111952803,0.0573309346495342,0.06347206141637227,0.3481485366383604,LR
0.6245810410227862,0.07219442270548591,0.9359825924516052,0.4227005815656345,0.49706457466595966,0.401179946873505,0.02173244928282763,0.306675397596817,0.9766565991048359,0.0583217291287298,0.3375609387321872,0.9321530453999675,0.9366144633878243,0.05231943138516361,0.39432916190144207,0.4423529263086514,0.6301369719030646,0.7560975814321855,0.03354360089049713,0.027587182765216538,0.34246360955300664,0.06764273669612791,0.060306340604792924,0.35592085122413036,LR
0.61396652117554,0.07791272035032956,0.902869641405588,0.5380733797370694,0.49706457466595966,0.44247785558774955,0.02232625462290361,0.30691776762736417,0.9760895406523296,0.0777021771032712,0.34639183800497486,0.9092957931387213,0.9492915676558226,0.06310688834845066,0.3898660383309019,0.4329411695987547,0.6242661212349839,0.7225609784103587,0.03374614756726532,0.027758376357155022,0.3427341278456185,0.06357707992708284,0.04867248484688466,0.35412531012505716,LR
0.6145251789105172,0.10150117390376354,0.9415013422764177,0.43835617052917975,0.5225048762889624,0.4808259454220712,0.022513174216910015,0.3072905480854317,0.9759348883471001,0.07030542215234152,0.35020932883210676,0.9234417436825966,0.9306487663633437,0.07443362978882856,0.37752685229521377,0.4352941042297586,0.6653620118215318,0.7164634269324449,0.03375499792143115,0.028439298112327163,0.34281246879583144,0.05415734028238985,0.0672746593752658,0.34543004733921034,LR
0.6134078634405628,0.0907792560269615,0.9525388419260423,0.47749507243902384,0.5890410813165167,0.4454277131107441,0.022614998923921333,0.30779873914445743,0.9759773419210847,0.06220481874652281,0.35030620628999387,0.935889195524278,0.9332587674021576,0.05987051870285403,0.3793646217107046,0.45176469319031215,0.6653620118215318,0.6676829152615616,0.03377295149702475,0.029042919947911573,0.34281031755692404,0.05269416269021636,0.06418594806822941,0.3447242019251057,LR
0.6206704139952663,0.07719804293744414,0.9006625031533775,0.5107632005888078,0.5616438166528168,0.48967551799105485,0.023090662818945604,0.30802594259727084,0.9754891258202636,0.07603563319341607,0.340327482136705,0.9073620756146459,0.9336316225116763,0.06634303706636321,0.38225257580212774,0.4282352821508658,0.6653620118215318,0.6402438836871631,0.0338311109672575,0.029630168180023345,0.34284204833080884,0.05739048683176796,0.06397673535391107,0.3481358171332431,LR
0.6128492057055857,0.07791272035032956,0.9094924124536488,0.5342465635253201,0.5381604524345042,0.4454277131107441,0.02359875364906274,0.3083545333306764,0.9750463956915686,0.07539563110110158,0.34762356568382463,0.9137211891131973,0.9332587674021576,0.05393750574411977,0.3798897140486708,0.4494117483875442,0.6379647599758355,0.618902423560193,0.033827317958329495,0.030118872086024876,0.3427649622699585,0.05198734662567322,0.06396068725674382,0.3442391183326924,LR
0.6324022721951463,0.059328179809440815,0.9128035719291075,0.5303326797433374,0.5303326771797368,0.45722714320272234,0.023771834996883186,0.30825141167258197,0.9748310954235043,0.06070019844295641,0.328469318000861,0.922115218931286,0.9347501878402318,0.04854377726247637,0.3764767751540629,0.43764703824429185,0.6144813957575228,0.6158536578059933,0.03368596515893724,0.030492382875830545,0.34261061087834915,0.04671649036536,0.062441992537298374,0.3406046504253106,LR
0.6044693167982481,0.07862769054380181,0.8995584819301292,0.5362035047754113,0.5185909758435752,0.4690265539731647,0.02442698301035131,0.30867096497074065,0.9743428793226834,0.08267392412629032,0.35468870029116,0.9080649969777117,0.9340044776211947,0.031823086412770756,0.3859280070983279,0.43999999229411807,0.6046966574620584,0.6219512092839071,0.03370290726548335,0.030827890394382867,0.3425797764540089,0.053907660436385764,0.062314115104130485,0.3458060568192492,LR
0.6044693167982481,0.05503923699036783,0.898454912804024,0.5205479388842723,0.5381604524345042,0.42772858729431257,0.02485700134706022,0.3090754808469371,0.9739850563419574,0.07452332055700937,0.3517884313956659,0.9182341083702342,0.9064131231559028,0.0426105433760578,0.3930164848239174,0.38352940179238815,0.6242661212349839,0.6036585348806511,0.03387738567618231,0.03175697543714563,0.3426649296607622,0.06815283530624337,0.08858677273428185,0.3528406401082239,LR
0.6229050678178546,0.06075782741579848,0.90618125297819,0.5205479388842723,0.5381604524345042,0.386430678580068,0.02512137381151139,0.30916135098413006,0.9735423262132624,0.06707368081780267,0.33671083903922816,0.9182942806269948,0.9328859122926392,0.04692570290351997,0.3780519446331799,0.40235292939100414,0.5909980260274686,0.6128048720822791,0.033690011035127206,0.03205811214773602,0.34252509913177787,0.048402256441947435,0.06411953938660724,0.3416344076204123,LR
0.6162011521154488,0.07219442270548591,0.9315674117528981,0.5029353996980335,0.5636007668755103,0.3598819801946529,0.02525046192891923,0.30946099237390523,0.9733118639544894,0.06310520630548207,0.3448073725821397,0.9302795001326523,0.9291573459252698,0.0372168148944144,0.38697819177426024,0.40470587419377213,0.6203522336076002,0.6280487807313355,0.033682930751794404,0.03250652873359643,0.342532090658227,0.056892835604004384,0.06705869097278888,0.3474297974793426,LR
0.616759809850426,0.08291634058228795,0.9547464322753958,0.5380733797370694,0.5518590911753558,0.4159291687952558,0.025333491406035875,0.3097644899859995,0.9734422570745845,0.057198263917401126,0.3464340488973399,0.9405306646025758,0.9306487663633437,0.045846913021654424,0.3888159611897511,0.4094117483875442,0.6262230842756809,0.664634149507362,0.03376587121369195,0.03294066313424288,0.3426461063203219,0.06068587029290655,0.06590314786977346,0.3502986557225488,LR
0.6134078634405628,0.07076477509912825,0.9426049114025229,0.48532289896580505,0.5381604524345042,0.4041297908714244,0.025330393291218133,0.3100556993489811,0.973496840241136,0.05908461623816845,0.3475014308887028,0.9384738674623988,0.9463087267796745,0.0372168148944144,0.37437651333697974,0.43058821616539905,0.6223091838302938,0.6341463322092493,0.033479625473241036,0.033049004103775405,0.34244998503992613,0.04048523313336997,0.05111540043014455,0.3372874731866735,LR
0.6229050678178546,0.06862045007988518,0.9227375024526269,0.5185910014795821,0.5440312902845815,0.46312681960563973,0.025489429851864552,0.3101442817573746,0.9734028358987418,0.06309578319775269,0.33817213169417826,0.9253672558989324,0.9373601736068613,0.042071258898967186,0.3888159611897511,0.418823527598616,0.6046966574620584,0.5610167518266613,0.03355245124466331,0.03327341878666535,0.34241879207576814,0.05901987358829013,0.05940577800069592,0.34980154958420295,LR
0.6223464100828774,0.07433874772472883,0.8907285726298582,0.5459882443526761,0.5381604524345042,0.5073746244859505,0.026042546617333587,0.3102399308315491,0.972875198622078,0.07849583354407118,0.33817057473503365,0.9021079435584228,0.9302759112538252,0.05825244434389787,0.3846153300208032,0.5058823311833923,0.6144813957575228,0.6128048720822791,0.033818467604163675,0.033669247210784174,0.34243080315966806,0.05872064827919815,0.06682923789631952,0.348775625664616,LR
0.6201117562602892,0.07147974529260051,0.9172187526278146,0.5166340256208817,0.5244618265116561,0.4247787490928539,0.02627717717953395,0.31034888295018354,0.9725962179930376,0.06735637404968434,0.3407620467335126,0.9208078398980352,0.9284116357062328,0.045846913021654424,0.3861906070347017,0.4752940949827003,0.6027397149301668,0.6585365780599336,0.034001796369028454,0.03405139886023759,0.3424939061676198,0.05800260516390665,0.06810398017696315,0.34811107508219336,LR
0.6178771253203804,0.08005704536957263,0.8752758922815264,0.4892367865931887,0.6165968534108771,0.4690265539731647,0.026886473093698793,0.3106807025778754,0.9717532113096321,0.08839990438430272,0.3421719597366905,0.8900434060779449,0.9336316225116763,0.04746498738061083,0.3885533612533772,0.5199999845882362,0.5792563443028524,0.6981707325596743,0.03435227039399742,0.03424697398608662,0.3426667223598518,0.06037102473929453,0.06313526499445815,0.3503779348297861,LR
0.6391061878975521,0.07147974529260051,0.9072848221042952,0.5009784622933433,0.6165968534108771,0.4542772856797278,0.027020311653827282,0.31061114296953474,0.9713741615419137,0.06517752077266396,0.3236667045238399,0.9121567104374247,0.9392244644266383,0.04476812313978888,0.39065373060524183,0.434364688566783,0.6164383331622129,0.5610167518266613,0.034498174804103575,0.03444590638861408,0.3426712041075755,0.06148152649815857,0.05767744332973632,0.35175338378040083,LR
0.6111732096179746,0.07505371791820124,0.9448125017518765,0.5185910014795821,0.5401174026571978,0.44247785558774955,0.02709363370451486,0.31094443866318605,0.9715530730322767,0.06054000561155676,0.35007473836382796,0.9382550592559972,0.9302759112538252,0.04368933325792334,0.3783145445695537,0.5223529293910041,0.581213294525546,0.6890243953580463,0.034581115266001126,0.03471115876487112,0.3426297927586072,0.04833806699962198,0.06648138671196407,0.34131920782922126,LR
0.616759809850426,0.07791272035032956,0.9083883912304005,0.5381604466023125,0.5440312902845815,0.4336282830187659,0.027511053040964878,0.31116298867931214,0.9711346020887156,0.07447505116843649,0.3441382261408769,0.9125122737728278,0.9254287795579,0.04908306173956699,0.38776577651381877,0.45411763799308014,0.628180021680371,0.6158536578059933,0.03475508794217616,0.035204788511245096,0.34266385404130834,0.06090382151722845,0.0710115162106556,0.34986532134958487,LR
0.6195530985253119,0.08005704536957263,0.902869641405588,0.5264187651981465,0.5479451907299686,0.4454277131107441,0.027935288230013844,0.3113139348744938,0.9706494183860365,0.0765590964431999,0.3417209605711341,0.9075836189236277,0.9336316225116763,0.050701357026207455,0.3888159611897511,0.4635294017923881,0.6634050744168417,0.6371951179329635,0.03496623210584821,0.03566275407257612,0.3427624524912331,0.061389025362639786,0.06324057896322285,0.35110050726431863,LR
0.609497236413043,0.07576839533108648,0.902869641405588,0.5596868664301232,0.5440312902845815,0.4306784448173072,0.02847312096238179,0.3116412155993603,0.9702097206554828,0.07848756428626781,0.3500617637042895,0.9108739473273945,0.927293070377677,0.04368933325792334,0.3772643598936214,0.42588234813633247,0.628180021680371,0.6432926694108773,0.03479099509336373,0.03611100554646874,0.34264019041332655,0.04754533959021775,0.06935007086316344,0.34040985033324234,LR
0.6234637255528318,0.06576115486716987,0.9172187526278146,0.5420743605706934,0.5303326771797368,0.4070796354103469,0.028650539670947047,0.3116578582430534,0.969994420387419,0.06415097895512346,0.3371652981139948,0.9230396836033335,0.9336316225116763,0.031823086412770756,0.3888159611897511,0.40470587419377213,0.628180021680371,0.6524390265820198,0.034768237039794266,0.036410903917300695,0.3426921786869232,0.05721475908091482,0.06258701286294774,0.34816125614347737,LR
0.6005586897707283,0.07934236795668721,0.9161147314045663,0.5381604466023125,0.5244618265116561,0.4041297908714244,0.029106169090149726,0.3121245164961441,0.9696851157769609,0.07769833093685105,0.3588610048078033,0.9189589105539401,0.9284116357062328,0.03883511018105462,0.3783145445695537,0.418823527598616,0.6457925480486063,0.6067073006348508,0.03457959806242971,0.03687349261372988,0.3425259954813226,0.04753289220786552,0.06807570241506615,0.34055185576708463,LR
0.6162011521154488,0.07290910011837116,0.9128035719291075,0.5185910014795821,0.5322896145844269,0.3657816759191061,0.029363312620025964,0.31228586895634014,0.9692666448333999,0.07104253994676513,0.3442079433114635,0.9177664058290504,0.9295302010347882,0.03074451745858928,0.3940666694998497,0.411764708602076,0.5909980260274686,0.6128048720822791,0.034706537427894764,0.037116675023625464,0.34261132795798493,0.0633996437119851,0.06626824875590932,0.35221599043911406,LR
0.6122905479706083,0.08005704536957263,0.8719647328060676,0.5048923499207271,0.5577299290254331,0.3746312484880898,0.030019493338433383,0.31254777841002596,0.9682265322707807,0.09161491489491404,0.3469400606193393,0.8886512388647136,0.9280387805967141,0.04746498738061083,0.3801522064502631,0.378823527598616,0.5968688668256867,0.6310975464855352,0.03449665760053252,0.03742488403016958,0.3425435639324001,0.05155315264127367,0.06869634454893991,0.3433834266939201,LR
0.609497236413043,0.07290910011837116,0.862030802282548,0.5303326797433374,0.5088062503661142,0.31858407148040835,0.030776879140888513,0.3127352203360559,0.9670287350047913,0.09388607616601816,0.3481577756658876,0.8861185338756129,0.9343773327307133,0.042071258898967186,0.3809398987246031,0.40705881899654006,0.5968688668256867,0.6554877923362195,0.03434544297792659,0.037596875663285734,0.342501076963978,0.05044240681608892,0.062450510578889645,0.3432917765611582,LR
0.6072626054731342,0.07433874772472883,0.8841062536789405,0.48727981073448823,0.5420743528798914,0.38938052064583395,0.03125460844579138,0.31305259296816934,0.9663191538396223,0.08632008989260145,0.35112482080913954,0.8997858414679842,0.9243102142293446,0.05339822126702915,0.37778945223158755,0.43999999229411807,0.5596868792481267,0.6219512092839071,0.03428146756067049,0.03785621152736358,0.34239459063805927,0.050678907080779,0.07254839521324728,0.3422883295752714,LR
0.6150838366454944,0.07219442270548591,0.8708611636799622,0.5088062631841177,0.536203515029814,0.4395280173862908,0.03181412798188382,0.31318962724168287,0.9655519571097604,0.08819971142213341,0.343550041575134,0.8913371095982953,0.9295302010347882,0.05339822126702915,0.3812023911261954,0.4729411655916962,0.6046966574620584,0.6859756096343321,0.03436390228804412,0.03814760663185428,0.342434388557847,0.05385347771320617,0.06746328459721151,0.34518855098178025,LR
0.6195530985253119,0.06433180004139921,0.8830022324556922,0.5068493129614241,0.5127201379934979,0.474926249697618,0.03215843180863389,0.3131817118379752,0.9651243889717742,0.07891737338372055,0.3392130453800827,0.9022146125590438,0.9306487663633437,0.050161851621432524,0.3827776681400939,0.47764703978546824,0.6164383331622129,0.6676829152615616,0.034475416750534116,0.03844483569254028,0.342465940061823,0.054786299190651776,0.06623302838958056,0.3460032962684632,LR
0.6145251789105172,0.08077201556304488,0.9205299121032734,0.493150661402569,0.6165968534108771,0.460176981404181,0.03230053200827646,0.31355770273950456,0.9650485790182306,0.07133446397805523,0.34689888769973726,0.9193445600177232,0.9369873184973428,0.036138245940232926,0.38907845359134335,0.47764703978546824,0.5831702370574375,0.6768292724327042,0.03465217096659002,0.03849351620437747,0.34257260565765074,0.058052394693314906,0.059554723568081704,0.34908890881804955,LR
0.603910659063271,0.07147974529260051,0.898454912804024,0.493150661402569,0.49510762444326606,0.5014749480830332,0.03264091155625726,0.31382610688341217,0.9648817971204346,0.08068776378692001,0.3542593255581677,0.9107563379164535,0.9280387805967141,0.05987051870285403,0.395116854175782,0.4729411655916962,0.5772993927983586,0.6554877923362195,0.03508887272786098,0.03871135392721705,0.34282483841954936,0.07130617216877598,0.06870825378577282,0.3576454767261805,LR
0.6156424943804716,0.06790577266699978,0.8918321417559634,0.5244618265116561,0.5264187767343496,0.5162241584118625,0.03298955274375229,0.31392262314633784,0.9646604320560871,0.0779508317623346,0.34334850186363686,0.9066673595593201,0.921700228462715,0.056095085507850855,0.39275399242232506,0.44470586032318465,0.6320939221257581,0.6402438836871631,0.035393324911167826,0.039220641791869924,0.34299783388169003,0.06862852056515026,0.07467093630430661,0.3550074862128405,LR
0.6156424943804716,0.06862045007988518,0.9856513408749165,0.5283757384932463,0.5636007668755103,0.4306784448173072,0.03252091124231502,0.31416955053053497,0.9655974430818868,0.03978609160837635,0.3468009722690871,0.9675124515544953,0.9276659254871956,0.050161851621432524,0.3885533612533772,0.4141176379930801,0.6242661212349839,0.6280487807313355,0.035475253904017526,0.039576155377186326,0.34306290885864044,0.06173681986953684,0.06890176553314552,0.3507147403556966,LR
