xa_S1,ya_S1,za_S1,xgb_S1,ybg_S1,zbg_S1,tilt_x_S1,tilt_y_S1,tilt_z_S1,tilt_accx_S1,tilt_accy_S1,tilt_accz_S1,xa_S2,ya_S2,za_S2,xgb_S2,ybg_S2,zbg_S2,tilt_x_S2,tilt_y_S2,tilt_z_S2,tilt_accx_S2,tilt_accy_S2,tilt_accz_S2,Posture
0.24116153649628622,0.1120427707317073,0.14452496465469106,0.40405900365796965,0.4198717753585232,0.5569620395929603,0.15315059278128743,0.8033529451251161,0.08838608873195003,0.15154243674527637,0.7767577025134434,0.12600613606682529,0.6076721908391934,0.35978833777240077,0.3276835896709026,0.5420743605706934,0.6217228535626111,0.4650205772409354,0.39225679551764253,0.3372022795105071,0.2708942453054608,0.3775850105103134,0.36113916471571345,0.3059736029869758,UP
0.2582069969186914,0.13033521951219515,0.152576472671736,0.3819187850740724,0.4198717753585232,0.5443038122664663,0.15314841998864945,0.8033085089586147,0.08882599244600634,0.15672751311360383,0.7668176177203334,0.13759654420498404,0.6120313780055922,0.344973386183441,0.31355932693670574,0.5851272065071363,0.6329588017278261,0.41563787290521315,0.39202707738842413,0.3373364641327919,0.27094412597555056,0.3673779744477873,0.35287491920937497,0.3047731060856494,UP
0.26262622867054825,0.13185966829268295,0.14331727143119563,0.392988894366021,0.43269228710244173,0.5443038122664663,0.1530506443199289,0.8033174907369501,0.08911718434429976,0.1492401159349812,0.7672744141286996,0.13095468969670473,0.6050567499604596,0.3671958135668808,0.33050855792399847,0.5929549689439003,0.6666666707553057,0.3950617317228062,0.39220259236355726,0.3378233101009247,0.270959473874039,0.38385571712291083,0.36475492863505227,0.3051141167996497,UP
0.26957080959084473,0.13643301463414634,0.14452496465469106,0.37453871140711525,0.4743589555185741,0.6329114340356852,0.15284466357782467,0.8033713814069624,0.08959107933053073,0.14862591043828524,0.7629253224269313,0.13357871512200423,0.5954663239310664,0.3502643784024706,0.3573448885314852,0.5675146673208976,0.6685393328714806,0.3827160340750916,0.3918320197795052,0.3385157657740457,0.27156571586435496,0.364723140754155,0.37555614375610236,0.33284385536970107,UP
0.2916667097643043,0.15548784390243914,0.15579720779479897,0.39852394901199534,0.45512819839949076,0.5105485418647329,0.152877255467398,0.803021564777058,0.09019584071463263,0.15385868798951746,0.7477619855889817,0.14875959801295002,0.5972100702187312,0.35661382912882145,0.3983049033418859,0.5499021281346588,0.6853932673852203,0.3209876267007087,0.3912903569675923,0.33943904000487374,0.27232543683956056,0.35970254497987325,0.38387823547515404,0.34649472303318635,UP
0.27272736675848197,0.12957315121951232,0.13486325397142093,0.3579335426352439,0.506410224381576,0.5316455813747817,0.15235578523422255,0.8031572369024399,0.09031622647025009,0.1373827838410344,0.7615172729741788,0.12507460569780687,0.6120313780055922,0.3862432988675491,0.33050855792399847,0.5009784622933433,0.6741573069540882,0.3827160340750916,0.3914293677777292,0.33984579534718107,0.2719494133265796,0.39898324758973736,0.36182931260418894,0.2897755940719807,UP
0.2651515778389879,0.12347566829268292,0.14613533221622255,0.3579335426352439,0.5096153785595416,0.5569620395929603,0.1520146567900204,0.8032952726536994,0.09062413074402931,0.1456325556774115,0.7612651709796489,0.13224991444855183,0.5510024005704832,0.36190482134785107,0.32203365316471094,0.5479451856027673,0.677902631186438,0.43209879771121995,0.39162553157346625,0.3411335475735692,0.27286645026129724,0.3927495421436017,0.40365788397552227,0.34347086272230937,UP
0.2462122348331656,0.11051832195121951,0.14573265787818654,0.35055346896828676,0.48717944626890386,0.5021097083729466,0.15170916214508512,0.8035817441100805,0.09074055085122637,0.14893575705998613,0.7718060471692135,0.1274047746572168,0.6033130036727947,0.3343914017453816,0.3418078524050992,0.5675146673208976,0.6685393328714806,0.43209879771121995,0.39101712882353,0.34153452588712846,0.27344583342925766,0.3531923218879474,0.3640031782862847,0.32893267126219194,UP
0.25378802375265963,0.09984749268292673,0.14412245521196138,0.3671586377401581,0.3974358787569863,0.5400844010480003,0.1512889440488513,0.8033699632314358,0.0908708507278946,0.13880495450657987,0.7626617008333544,0.12545173044927813,0.6006975627940608,0.3343914017453816,0.3629942465063943,0.5577299290254331,0.6310861518775686,0.5349794227590645,0.39027414001072924,0.34194443233602567,0.27447414262801983,0.34847103912093674,0.37044464205089117,0.3401303496055757,UP
0.2632576952555708,0.13109760000000012,0.13285021207185346,0.3874538397200467,0.4519230652151139,0.5358649898295342,0.1510468949489524,0.8035065808071686,0.09092863589059122,0.14184052270365224,0.7703452733977456,0.12242936029005297,0.5928508830523324,0.3439153611153118,0.31638429518980155,0.5636007796935139,0.593632972110248,0.4691357828354435,0.390040365863178,0.3421789271847541,0.27490004681108954,0.36982302474228346,0.368123531463707,0.3201986213423989,UP
0.2733585747576792,0.11737818536585352,0.13848633364190738,0.41697413197090105,0.3974358787569863,0.628692017289792,0.1507857252738369,0.8031378551702424,0.09119688368016692,0.13344258170621628,0.7553715668825705,0.12618878908035824,0.6024409519761988,0.33968239396441124,0.2740115069872115,0.5596868664301232,0.6254681777949609,0.5720164887474785,0.3899050423424346,0.34216264646737315,0.27504201487211316,0.37443660768548576,0.35157650962964154,0.29760492168932573,UP
0.2720959001734594,0.12576218536585354,0.13768114986114163,0.41512911053294405,0.477564088702951,0.5780590909593404,0.15061407465541685,0.8031359642695403,0.09140168109501756,0.13766983520718776,0.7596391352680055,0.12668383246850703,0.5945946293399973,0.35661382912882145,0.34039565754419243,0.5753424553936685,0.677902631186438,0.5144032869676036,0.3898405147780474,0.3427721230002947,0.27560988711620643,0.3745330750123326,0.37352777006355825,0.32264485126017367,UP
0.2569445809202966,0.12042677073170732,0.1409018849842046,0.41143907974190097,0.4423076866555722,0.5274261812111699,0.15057930997320523,0.8032082912213988,0.09152093380822925,0.1450867359473581,0.7686089153721518,0.12646357442277603,0.6163905651719909,0.36190482134785107,0.3389828841520034,0.5792563430210522,0.6535580604739157,0.42386830296254047,0.38978889272653766,0.3429317790675141,0.27555616947149536,0.37482710213868053,0.3569587115770305,0.30341254293081343,UP
0.2531565571676371,0.12118915121951229,0.1380838241991777,0.38929885269859404,0.3942307476719684,0.4641350129341794,0.15044285859552425,0.803210182122101,0.09149572361469999,0.14565324026114898,0.7729074980627134,0.12380651029061711,0.598953816506396,0.35238086197792085,0.3361584944301902,0.5851272065071363,0.6629213587888731,0.4897119186269045,0.389688598455033,0.3433768728733313,0.2760012585276758,0.3709809630320024,0.3686794561053673,0.3199063264446849,UP
0.26641425242320776,0.13643301463414634,0.15901777802255565,0.4077490453253967,0.4999999790064112,0.4852320690265096,0.15069099151481025,0.8032895999515929,0.09193761015296628,0.15962504337430564,0.7600582714487181,0.14485297238232725,0.6041846982638637,0.35449734555337115,0.2895479645823148,0.5753424553936685,0.6161048794800036,0.4855967130323964,0.3898165473969893,0.34338527582423767,0.2758823123143865,0.382944233031232,0.3552961963986601,0.29501254432269397,UP
0.26073234608713114,0.12271328780487795,0.15338165645250174,0.39852394901199534,0.4519230652151139,0.47257384642596567,0.15073270913346423,0.8032465819606182,0.09219367773667968,0.15221109757466927,0.7618376064399875,0.1373787036256086,0.5998255110974651,0.33862436889628217,0.286722996329219,0.6203522464256036,0.6217228535626111,0.4691357828354435,0.38986558834592366,0.3434259776176899,0.2759590518068308,0.37102457154961804,0.3559993659454087,0.30537857408805763,UP
0.2594696715029113,0.12118915121951229,0.13768114986114163,0.37453871140711525,0.3749999821554495,0.4641350129341794,0.15043851301024763,0.8030825463247036,0.09215657059788965,0.14208156142434877,0.7680546454333871,0.12431014911469693,0.613775124293257,0.3502643784024706,0.3432206257972883,0.5929549689439003,0.6123595552476537,0.3868312935790598,0.389631445469433,0.3434800716141491,0.2760473022231433,0.36424972404397904,0.3583164698685088,0.31348627779846316,UP
0.25568190633607674,0.12881108292682913,0.14613533221622255,0.37453871140711525,0.3237179267823399,0.4430379844789848,0.150386800545458,0.8028206565774507,0.0922582611538109,0.15317483032309318,0.7706607331870344,0.13182900669530745,0.5544898931458131,0.35449734555337115,0.2937851276963174,0.5812132804257423,0.6086142432812212,0.37037039033683705,0.38999243110106174,0.34427336269814557,0.27651157615243455,0.392220623683733,0.39394773356785673,0.33244021003476193,UP
0.26957080959084473,0.12804870243902453,0.14009670120343887,0.38007377572098644,0.35256408345455376,0.5189873477193836,0.15012041616801064,0.8024524036657,0.09239422624250838,0.14166913615268437,0.7615806307689377,0.12866857234644125,0.6102876317179273,0.35449734555337115,0.32203365316471094,0.5949119063485905,0.6086142432812212,0.39094652612829806,0.3899776819434876,0.3442765138047354,0.27640030388839,0.3738492141679051,0.3572299126522189,0.30450516909607805,UP
0.28219703826139314,0.12423773658536574,0.14452496465469106,0.38929885269859404,0.32051281459155184,0.4641350129341794,0.14979536638933155,0.8017215705443052,0.09255228565811936,0.1360577040787466,0.7485417738321672,0.133324612547295,0.5980817648098001,0.35767185419695047,0.29237293283541066,0.5890410813165166,0.5880149873562925,0.3539094601398843,0.3902306299958853,0.34429778377421694,0.2760818349947436,0.3862254436142527,0.3609781469028362,0.29889589082089607,UP
0.26893934300582245,0.10746942439024391,0.1396940268654029,0.3523984783213728,0.2980769032945028,0.47679323553472336,0.14919002636032033,0.801053609871258,0.09254237153706818,0.1317358924806893,0.7549546460093673,0.1250410297762016,0.6129030725966612,0.3439153611153118,0.31497152179761245,0.5596868664301232,0.6273408276452186,0.3580246657343924,0.3899017237819804,0.34426128345621776,0.2759206820606081,0.36594252740960515,0.35234553871727153,0.3053368176740981,UP
0.27020201759004225,0.10899387317073171,0.13124000940562827,0.3210331622155871,0.3301281931510936,0.48945148577240266,0.14832047474650037,0.8005600847879873,0.09241575404821879,0.12638322877065186,0.7575279472118804,0.11859821333119887,0.6085438854302625,0.35555537062150017,0.3276835896709026,0.5851272065071363,0.6011236070824387,0.42386830296254047,0.38984788935683445,0.3442985715508644,0.275951377857586,0.3737491127979238,0.3598945946846092,0.30762646103952573,UP
0.2784090145087336,0.1120427707317073,0.14371978087392528,0.3874538397200467,0.3846153642839013,0.5316455813747817,0.14793067574720153,0.8000443416214662,0.09260355582698211,0.13158814545399286,0.7475758997582213,0.13024610344714585,0.598953816506396,0.34074085247173247,0.33474572103800077,0.5362035047754113,0.6067415811650462,0.48148150743788826,0.38932429426295007,0.34450024237261523,0.27649622825394615,0.3613259711583836,0.3667925677382907,0.3255190844210303,UP
0.2506314665850224,0.12195121951219512,0.1425120876504299,0.3948339073445683,0.3653845972978312,0.5738396797408744,0.14796587498794092,0.8000296871410243,0.09278399283010771,0.15015572536613825,0.773553038670851,0.12716732573962375,0.6094159371268584,0.3439153611153118,0.3192092634428974,0.5596868664301232,0.6460674365410506,0.43209879771121995,0.38900644991722577,0.34459320001701604,0.27657680472101276,0.36563429447827617,0.35591597724915974,0.30963772831189285,UP
0.26262622867054825,0.11890232195121953,0.13566827285688046,0.36531361630220105,0.4166666421741464,0.5274261812111699,0.14759476200533125,0.8000126690347046,0.09279673955717312,0.13802358380253546,0.7654693815703251,0.12273906459094032,0.6094159371268584,0.344973386183441,0.3615820516454875,0.5303326797433374,0.6816479431528706,0.47736622097918985,0.3883567495260818,0.3449834120497266,0.27714851393972845,0.3560377776623693,0.3648232923409862,0.32755470960153915,UP
0.2506314665850224,0.11585373658536573,0.14170690386966414,0.3819187850740724,0.41346152998335833,0.5443038122664663,0.1474969863366107,0.800117614023676,0.09289503098587708,0.1466756496858899,0.7716824330102087,0.12557287237443004,0.6050567499604596,0.3629628464159802,0.28531080146831256,0.5499021281346588,0.676029969070263,0.3827160340750916,0.3885835178237853,0.34513912923370865,0.27663435934034736,0.3910052014389753,0.3548529591843634,0.2880809796054712,UP
0.2569445809202966,0.10899387317073171,0.11553950281426817,0.3523984783213728,0.45512819839949076,0.5316455813747817,0.14676779712722055,0.8004012491290037,0.09251942742835086,0.1234781000914342,0.7736731083378416,0.1041269911193029,0.6076721908391934,0.3788358230730692,0.3375706892910966,0.5362035047754113,0.6741573069540882,0.4485596551304016,0.38876382627513006,0.3455141109179016,0.27653459800016883,0.39172837602276833,0.3657535896579987,0.30001983429663104,UP
0.25568190633607674,0.12042677073170732,0.13848633364190738,0.38929885269859404,0.45512819839949076,0.5991561277056757,0.14667480160230406,0.8006111391069465,0.09268003618937451,0.14421207354931423,0.7704910406318412,0.12434560528791196,0.613775124293257,0.3671958135668808,0.32627139480999584,0.5518591039933592,0.6198502037123534,0.5349794227590645,0.38880954866361006,0.3455222512765921,0.2765384349747912,0.383064156454675,0.3570711485878888,0.29694029876714195,UP
0.2506314665850224,0.1150913560975611,0.1340580701906552,0.4206641748468152,0.4358974202868186,0.5822784994140928,0.14668479644844,0.8008210290848891,0.09270241377688915,0.14146608952456674,0.7741963639714792,0.11928047605821884,0.6085438854302625,0.3671958135668808,0.30226003245560495,0.616438333162213,0.6292134897613936,0.5144032869676036,0.3892841028085603,0.3455474601293109,0.27636577111678967,0.38990772041231453,0.3561794154126852,0.2904715343046339,UP
0.25441923175185693,0.12728663414634134,0.15338165645250174,0.4298892578668583,0.3653845972978312,0.4641350129341794,0.14708589396945754,0.8006815751581029,0.09292788921564557,0.15771066404267947,0.7684405520014638,0.1372556814488466,0.5937225776434014,0.3513228369097918,0.31497152179761245,0.6027397072393648,0.5505618035412193,0.5473250664973192,0.3893873469115798,0.3455760826808355,0.2768108601729702,0.37630780953226683,0.3681583393579371,0.3150451839196048,UP
0.24494956024894574,0.12118915121951229,0.14412245521196138,0.3966789355500532,0.3076923028476333,0.3966244831855668,0.14722234534713852,0.8005402303306145,0.09284319429581124,0.1537675069673277,0.7771724080791377,0.1275954858919349,0.6041846982638637,0.3248678758146435,0.3531071468862,0.6125244455348293,0.5430711796083542,0.5267489846153183,0.3887645637330087,0.34550019353046313,0.2777163861838217,0.3420080585897613,0.36433447932273355,0.33844965394371973,UP
0.25252534916843977,0.12347566829268292,0.1409018849842046,0.3948339073445683,0.2980769032945028,0.4430379844789848,0.14724581150763114,0.8002854314609948,0.09280410433281082,0.14888721160835713,0.7731892851778647,0.12635425122202912,0.5945946293399973,0.2761904873360554,0.3177964900507083,0.5303326797433374,0.5449438294586118,0.4855967130323964,0.3871399440262095,0.3453024615919496,0.27889817436747466,0.312055944706514,0.35773976065691265,0.35585511916236595,UP
0.2752524573410964,0.12576218536585354,0.15016108622474506,0.41697413197090105,0.3846153642839013,0.5485232234849323,0.14728014163131528,0.7998812514359026,0.09315478095740971,0.14408796604688895,0.7525590124690799,0.13720249718902366,0.5945946293399973,0.35661382912882145,0.36864418301258595,0.4990215248886532,0.5524344656573943,0.49794235677065085,0.38665432801307853,0.3455802841562886,0.2796310365203236,0.3676383040832505,0.3795332586925203,0.33509522202233255,UP
0.25757578891949384,0.1006098731707317,0.13848633364190738,0.3911438813874737,0.3461538380793889,0.594936738596918,0.1469685631669929,0.7995593255913556,0.09323664327122942,0.13360974691356442,0.7619709679520322,0.12152791394679331,0.6041846982638637,0.35978833777240077,0.3375706892910966,0.5146770882161915,0.5861423334582821,0.411522661919759,0.3864294033600718,0.34567324180068937,0.2796770802157911,0.3759169847115144,0.3659168612194232,0.3127833781634832,UP
0.2746212493418991,0.1181402536585367,0.15217396322900623,0.392988894366021,0.33974357171063524,0.5400844010480003,0.14684558310366919,0.7989594373435869,0.09357174056274829,0.1420076879110004,0.7496556304477179,0.1375307353986373,0.6041846982638637,0.34074085247173247,0.2909607379745042,0.5538160413980494,0.649812736241566,0.4650205772409354,0.3862620004216046,0.3457100047109044,0.2796156886218352,0.3708977104074634,0.35379044195257764,0.3029706208830791,UP
0.2676769270074276,0.12118915121951229,0.14371978087392528,0.4003689619905426,0.4198717753585232,0.5570190032943466,0.14675693316402932,0.798843619675578,0.09377285558977969,0.14164634089713685,0.7593356381392656,0.13027403861392156,0.5980817648098001,0.35555537062150017,0.3432206257972883,0.5714285421302778,0.6423221000427835,0.4609053635600082,0.38620152887555037,0.3460894504627663,0.27996485331245957,0.3721851527797984,0.3712727694337607,0.32192455311937784,UP
0.26641425242320776,0.13490856585365854,0.1493559024439793,0.41512911053294405,0.4198717753585232,0.5400844010480003,0.14697377786932475,0.7988105289132899,0.09408245942716777,0.15263914181772748,0.7631122943806954,0.1368229549711972,0.5919791884612634,0.3513228369097918,0.3064971955696076,0.565557717098204,0.6573033847062657,0.3827160340750916,0.3862553633006962,0.3464197914702696,0.27994566843934876,0.3787039654282244,0.3677396429611552,0.31265114951927975,UP
0.2714646921742621,0.14253049756097572,0.15700490101829448,0.41143907974190097,0.4615384437746556,0.5485232234849323,0.14728752912628545,0.7988095834629387,0.09456966766166683,0.1587128110180444,0.7589328952341201,0.14489272627350797,0.5945946293399973,0.2761904873360554,0.34604501551910183,0.5283757384932463,0.6666666707553057,0.31275718855696233,0.38450832558603093,0.3466957758890979,0.2810008364604676,0.3047835636589871,0.36337488327460654,0.3682950508210357,UP
0.2594696715029113,0.11737818536585352,0.15177145378627654,0.34686342609237264,0.35576921663893063,0.5358649898295342,0.14706329692601985,0.7985320937848929,0.09482035329395251,0.14923167324774142,0.7615544901403307,0.13507646983297442,0.6050567499604596,0.33756591038896094,0.27118653873411563,0.5362035047754113,0.6404494501925259,0.39094652612829806,0.3843431350211999,0.3466647900076309,0.28054423648042,0.37279567202641767,0.3487392906251323,0.29570848455534615,UP
0.27399004134270183,0.1006098731707317,0.17512079405664552,0.31365310063350105,0.3942307476719684,0.5696202712861218,0.14642101942215874,0.7978537331579837,0.09550414438585988,0.14877154679317195,0.7357222323387932,0.15298989552784822,0.6111593263089963,0.32592590088277257,0.2909607379745042,0.5225048762889624,0.6292134897613936,0.3991769373173143,0.3837730800809566,0.3464639069625276,0.28039459447015164,0.3569036710310863,0.3464867941603873,0.3060745143207098,UP
0.25252534916843977,0.12271328780487795,0.1481482092204838,0.34132837386337256,0.4487179320307371,0.5696202712861218,0.14626501291073396,0.7980886775702303,0.09572367135198592,0.1531212192591205,0.7702553319128783,0.1320771999078138,0.6094159371268584,0.3640213049233015,0.25706227599991904,0.5440313018207845,0.6273408276452186,0.39094652612829806,0.3842159235371223,0.34624936912220156,0.2794929054339235,0.39768688529334456,0.34592160410803274,0.27258935002661944,UP
0.26830813500662487,0.11737818536585352,0.12882445806333104,0.36531361630220105,0.43910253247760667,0.594936738596918,0.14576049046013653,0.7981293319353273,0.0956732509649274,0.12990594002146127,0.7628854468917684,0.11768844015938074,0.6163905651719909,0.35978833777240077,0.3516949520252935,0.5166340256208817,0.649812736241566,0.4855967130323964,0.38391835928306256,0.34637777671573816,0.2796310365203236,0.3698530881900337,0.3593203896380655,0.3101040082677699,UP
0.25252534916843977,0.13338411707317074,0.1380838241991777,0.37269368996915825,0.4198717753585232,0.6329114340356852,0.1457678779551067,0.798415330666533,0.09584065798038607,0.15194430865789127,0.7777616798765452,0.12561423790984796,0.613775124293257,0.3608463628405298,0.2584744708608258,0.5459882443526761,0.634831463844001,0.43209879771121995,0.38427971364363067,0.34611597227656427,0.2788137609257845,0.39380539685799304,0.34246360258700287,0.27175074204627264,UP
0.2550504397510542,0.1166158048780489,0.15378433079053772,0.36531361630220105,0.3974358787569863,0.5907173218510249,0.14573745885817138,0.7983363855622166,0.09616725745386108,0.1524352509208859,0.764039622103984,0.13598543718267378,0.6024409519761988,0.35978833777240077,0.276835896709025,0.5616438038348134,0.5711610622873089,0.37860080152585335,0.3846336934254118,0.34591640219254005,0.2782573996055584,0.39082151707689716,0.35473000468028454,0.28808793900779794,UP
0.26388890325476805,0.12042677073170732,0.1465378416589523,0.3671586377401581,0.4006410098420043,0.5358649898295342,0.14556537368122355,0.7982054406885902,0.09631936839684127,0.14506309642308662,0.7610440832902456,0.1319283914232591,0.6024409519761988,0.35238086197792085,0.3432206257972883,0.5264187651981465,0.5992509474194472,0.3415638164016298,0.3843331793398373,0.34607579566754354,0.27835332397111456,0.3685075011275444,0.3674489093985572,0.32048047713662375,UP
0.2588384635037137,0.10975594146341454,0.14613533221622255,0.37269368996915825,0.3878204959987269,0.5822784994140928,0.14536808410967222,0.7980432959533779,0.09648224324267686,0.1422504151691448,0.7614322051658314,0.12926890982474457,0.6224934986260544,0.3682538386350098,0.29237293283541066,0.5636007796935139,0.6067415811650462,0.3415638164016298,0.38468420929010344,0.34575254464986743,0.2774554719095088,0.3903738690362213,0.34346051069441247,0.27561669003865985,UP
0.2746212493418991,0.12042677073170732,0.1364734566376462,0.35977856407320097,0.32051281459155184,0.5569620395929603,0.14491570868239254,0.7975492981449318,0.09651793407845997,0.13296177066790932,0.756173065139345,0.1251992395188061,0.6129030725966612,0.344973386183441,0.3389828841520034,0.5420743605706934,0.6554307103241734,0.3497942545453761,0.38427971364363067,0.3458814774278358,0.27746698283337484,0.3609202797975349,0.3574042025398745,0.3151460952533398,UP
0.26641425242320776,0.12576218536585354,0.14734302543971806,0.41143907974190097,0.3365384595198472,0.5569620395929603,0.14503173580927417,0.7972131905451182,0.09673321213556409,0.14686729868623347,0.760625833232537,0.13375250409223322,0.5867479495982689,0.3492063533343415,0.3474577889112909,0.5401174193206023,0.6666666707553057,0.3539094601398843,0.38403561508577755,0.34651826355120263,0.2779312567626672,0.3681331946846766,0.3800663954322026,0.33531444319561854,UP
0.2853535954290301,0.1250001170731707,0.14210957820770012,0.4206641748468152,0.35576921663893063,0.594936738596918,0.1449122322141712,0.7966601020897288,0.0969626532227409,0.133200276582434,0.747163409500036,0.1319042167597032,0.5972100702187312,0.35238086197792085,0.31497152179761245,0.5362035047754113,0.6142322296297459,0.3868312935790598,0.3839670315030575,0.3466689914830841,0.2779466046611567,0.37648158286761413,0.3656143580810784,0.3119830468959326,UP
0.27020201759004225,0.1120427707317073,0.14895339300124955,0.4132841011798581,0.4070512636146047,0.5780590909593404,0.14487572929784906,0.7963906487396673,0.09719096126751195,0.1392557940051856,0.7522081077596463,0.13338934692415,0.6172622597630598,0.3608463628405298,0.3516949520252935,0.5146770882161915,0.6310861518775686,0.41563787290521315,0.3836768418277849,0.34673175102266546,0.2779466046611567,0.37058848637346137,0.3587782379041942,0.30889307226295437,UP
0.2588384635037137,0.08536569756097552,0.1497585767820153,0.4003689619905426,0.35256408345455376,0.5780590909593404,0.14464410960261362,0.7959382507466692,0.09731134702312941,0.132802203879077,0.7515931383951338,0.12837928220588954,0.6111593263089963,0.3470898697588912,0.3432206257972883,0.5088062631841177,0.5955056256402809,0.48148150743788826,0.38317721411495853,0.3467052292088675,0.2782650735548031,0.3620673159578498,0.359929152162334,0.31708776850244136,UP
0.24242421108050605,0.0945120780487805,0.14613533221622255,0.40590401663651693,0.34294870489501206,0.6371308231444428,0.14466540297046826,0.7958342512080491,0.09744193016039918,0.14341719454568636,0.7689903913252102,0.12476436418217367,0.6059284445515285,0.3460318446907622,0.28813576972140836,0.493150661402569,0.5468164915747867,0.39094652612829806,0.38292610970725754,0.3463719996869902,0.2779619525596452,0.37571645160399386,0.3525694110729671,0.2977023533218964,UP
0.2588384635037137,0.13948160000000012,0.13727864041841195,0.4409593744097296,0.3974358787569863,0.6877637411837538,0.1450291284581081,0.7960455593615184,0.09768808362306179,0.15110510554625445,0.7752322417627114,0.1267491040601079,0.5945946293399973,0.33333337667725255,0.34039565754419243,0.47162427304295684,0.5299625570610469,0.49794235677065085,0.3821163809564334,0.3463643845127312,0.27871016261098475,0.3545389000531098,0.37031292296912843,0.3350465062060472,UP
0.2866162700132499,0.0990854243902439,0.1469405159969883,0.4409593744097296,0.41346152998335833,0.7046413805301909,0.14481011096017435,0.7954546528920852,0.09806283739878378,0.12313448272077417,0.7353549343537925,0.1318706408380979,0.6059284445515285,0.34285690260799057,0.3658192147594901,0.43835617052917975,0.5805243569224912,0.47736622097918985,0.381196402252742,0.34647204732121806,0.2793547743475223,0.3539108713259328,0.3681455681161693,0.3330769953476396,UP
0.29040403518008445,0.1250001170731707,0.14613533221622255,0.4538745003056868,0.368589730482208,0.69620257467554,0.1448509594617731,0.7948651645981789,0.09848687851915892,0.1331880346859363,0.7416517244175179,0.13583636009074612,0.6111593263089963,0.33968239396441124,0.3276835896709026,0.4579256471201087,0.5655430759387842,0.44032922582780676,0.3804751684473632,0.34626853835395655,0.2794967424085459,0.3595472722277569,0.3557266623711889,0.31435968279044174,UP
0.26957080959084473,0.14710353170731696,0.1654589184780691,0.4298892578668583,0.3846153642839013,0.6835443520749961,0.14548889138035792,0.7947044380384929,0.09924205128263254,0.1674332626680411,0.7588726388698741,0.1521768210102536,0.6050567499604596,0.35555537062150017,0.3036722273165117,0.4540117082207112,0.6741573069540882,0.5349794227590645,0.3802144770872389,0.3464510399439524,0.2795159272816567,0.380288077867369,0.3576493602985165,0.2998214913303244,UP
0.2354798887460346,0.12195121951219512,0.16022547124605116,0.4261992270758153,0.3974358787569863,0.69620257467554,0.14613073432569126,0.7950173821047047,0.09973067582013852,0.16919651789807474,0.7789189565192732,0.1393580713560858,0.613775124293257,0.3502643784024706,0.28813576972140836,0.48727981073448823,0.6704119949876556,0.5473250664973192,0.38004264940149945,0.34639642076306143,0.2793432634236552,0.3777234345169874,0.3470697637846148,0.2898486677964097,UP
0.24747490941738542,0.12881108292682913,0.15136877944824048,0.3966789355500532,0.3846153642839013,0.662447295982666,0.14643057970976722,0.7952022176483435,0.10006605637225893,0.16076818322657543,0.7752083164416137,0.13494753829400988,0.615518513475395,0.3640213049233015,0.2542373077468232,0.5029353996980335,0.6423221000427835,0.5308642171645565,0.3803745054469192,0.34612017375201737,0.27863342311853934,0.39716193124416815,0.34067212290842747,0.2670461860735397,UP
0.26957080959084473,0.13414618536585357,0.1481482092204838,0.3948339073445683,0.4102563967989815,0.6033755444515687,0.146489679669527,0.7951601451077198,0.10033062177401579,0.1498433459382652,0.7607778033276575,0.13614875046536237,0.6477769270333776,0.3534388870460499,0.3573448885314852,0.49706457466595966,0.6292134897613936,0.4650205772409354,0.3797605717628926,0.34568400808153804,0.27838401976809246,0.3562145243057358,0.33474426339609353,0.2934919149143475,UP
0.2657827858381852,0.10899387317073171,0.1509662700055108,0.35424351184420083,0.3974358787569863,0.6160337946892481,0.14615811151293304,0.7949304006724042,0.10056289546720723,0.141369842890033,0.7539138945416152,0.13394590140067983,0.5998255110974651,0.3481478948270203,0.2937851276963174,0.5380733797370694,0.6666666707553057,0.47736622097918985,0.3798059254224333,0.3458764881757351,0.27838401976809246,0.37741288901275455,0.35868282921569306,0.3033011924935883,UP
0.2676769270074276,0.10899387317073171,0.13768114986114163,0.3856088279499865,0.42628202073368804,0.5570190032943466,0.1458035117543736,0.7948708373002854,0.10048074989278598,0.13184480314608288,0.7572200194681222,0.12348767333905288,0.5876196441893379,0.3640213049233015,0.3276835896709026,0.5283757384932463,0.6123595552476537,0.43209879771121995,0.379991396078929,0.34627825426594194,0.27861807522004983,0.38545436573459396,0.37723894267139824,0.31825694809329735,UP
0.26893934300582245,0.11051832195121951,0.14573265787818654,0.3874538397200467,0.4679486891498205,0.5696202712861218,0.14557710676147,0.7948599646212477,0.10056374524901146,0.13709699887796678,0.7538447769473329,0.1303895397842439,0.6129030725966612,0.37671933949761877,0.2937851276963174,0.5401174193206023,0.6591760345565232,0.4897119186269045,0.3805278966856909,0.34630083719650256,0.2780924096968016,0.3992482023710082,0.35227967917639014,0.27860923303906643,UP
0.26957080959084473,0.11128039024390234,0.13446057963338495,0.4280442485137723,0.5096153785595416,0.5611814516129032,0.14541762378182388,0.7950878181558613,0.10044590883880708,0.12988947678134352,0.7576834617990157,0.12148225069341008,0.6015692573851299,0.3269839259509016,0.2514123394937273,0.5557729788027395,0.677902631186438,0.5061728488238573,0.3804526759820624,0.3462527828210072,0.2779849744073794,0.36935125986989586,0.34612093564621355,0.2955344994971831,UP
0.2657827858381852,0.12042677073170732,0.14855071866321357,0.3966789355500532,0.5192307571190833,0.5485232234849323,0.1454150164306578,0.7953671987346091,0.10057111002464955,0.1453708323729775,0.7588048504600973,0.13380165924146337,0.6207497523383896,0.35767185419695047,0.28531080146831256,0.5577299290254331,0.6610486966726982,0.41563787290521315,0.3806989869135517,0.3460673927166373,0.2773403626708408,0.38332977197106133,0.3420501649368312,0.27966358249153583,UP
0.2613635540863284,0.11280483902439013,0.13285021207185346,0.3763837328450723,0.525641023487837,0.5105485418647329,0.14506867328412407,0.7958006877205852,0.10033147155582,0.13393099116303905,0.7653236143362296,0.11934762790142982,0.6120313780055922,0.36931229714233105,0.3177964900507083,0.5557729788027395,0.6610486966726982,0.5390946283535727,0.3810160938013973,0.3461829332915987,0.27725594922915175,0.3873027722198941,0.356953202413915,0.29342928029340865,UP
0.25252534916843977,0.14100604878048792,0.12721425539710576,0.40405900365796965,0.5128204907503298,0.5611814516129032,0.1451799202672013,0.7965646116042685,0.10014338651645556,0.14880573967649294,0.7845134941026299,0.11795946499857907,0.6094159371268584,0.36190482134785107,0.33333352617709433,0.5381604466023125,0.6704119949876556,0.4197530892816133,0.38104227355609155,0.34643055775111825,0.27721374250830666,0.37767553122112163,0.3612393313178144,0.3060153594009344,UP
0.2676769270074276,0.12195121951219512,0.1368761309756822,0.35424351184420083,0.5192307571190833,0.5527426291759712,0.14479794332140042,0.7968841738229379,0.10009239960819397,0.13762128975555873,0.7620994557875573,0.12485407904470333,0.6024409519761988,0.36931229714233105,0.27824867010121407,0.5283757384932463,0.6816479431528706,0.4650205772409354,0.3814939665068017,0.3466038686135604,0.27677632740136987,0.3986188521736004,0.3562322532952934,0.28363392151882044,UP
0.27777780650953604,0.11737818536585352,0.1409018849842046,0.31918815286250113,0.506410224381576,0.5316455813747817,0.14413611068379517,0.7969177373104016,0.10009183308699088,0.13268189558590968,0.7509737384156031,0.1287244426799923,0.6102876317179273,0.3650793299914305,0.34604501551910183,0.5616438038348134,0.6891385916175703,0.4485596551304016,0.3815983167966392,0.3469525910761712,0.2768760887415484,0.37714529129102214,0.3636440810177528,0.3091923265629951,UP
0.26199502067135094,0.12881108292682913,0.14734302543971806,0.33210327875845835,0.4999999790064112,0.5316455813747817,0.14392621891494214,0.7972335177276666,0.1001952232065214,0.15065890952563057,0.7652115197762717,0.13364452392835055,0.6050567499604596,0.3301588680336732,0.33050855792399847,0.5459882443526761,0.5881666771335827,0.5185184925621118,0.3810732467869974,0.34689508338090635,0.27747081980799726,0.3520063023558246,0.35974559686398405,0.32505976386747903,UP
0.25378802375265963,0.12728663414634134,0.15177145378627654,0.35055346896828676,0.5192307571190833,0.5063291251188398,0.1439488159583798,0.7976986793004044,0.10030541158048653,0.15700907673305137,0.7695358000339385,0.13587691980404565,0.6129030725966612,0.3724868057859104,0.3121471320757993,0.565557717098204,0.6891385916175703,0.5596707641450337,0.3815164589721024,0.347067606466701,0.2773365256962184,0.39122654770263054,0.35551906708833475,0.2886690491020636,UP
0.24873732541578025,0.11737818536585352,0.14130439442693438,0.37453871140711525,0.5673076499167918,0.5358649898295342,0.14391492039322346,0.798405876163022,0.10023374664831915,0.14815227568413203,0.7738653970296271,0.125235232906767,0.6111593263089963,0.35661382912882145,0.2725987335950224,0.5890410813165166,0.6966292155504354,0.52263372511135,0.38195008420478416,0.34705395167147823,0.2769643391578609,0.38737941749327925,0.3467717681433644,0.2817653219941469,UP
0.24494956024894574,0.13033521951219515,0.14371978087392528,0.37453871140711525,0.532051247869413,0.47257384642596567,0.14409265483103065,0.7990932185682666,0.10014876846788327,0.15798294070616328,0.7805777787820505,0.12868952372152276,0.6068001391425976,0.35661382912882145,0.28107363835430993,0.598825819611981,0.6985018776666104,0.5843621324857329,0.382405464444888,0.3471755318674036,0.2768837626907931,0.3862383279490028,0.3518351898795672,0.2884359091241241,UP
0.2550504397510542,0.13567063414634137,0.12681158105906978,0.35055346896828676,0.5096153785595416,0.4641350129341794,0.14385625499199112,0.7997276157538501,0.09980120770990053,0.1445915723407434,0.7807270905081604,0.11714209276301912,0.6015692573851299,0.3640213049233015,0.2966100959494133,0.5909980315392102,0.6722846571038305,0.4897119186269045,0.3829010361393814,0.3473832423101183,0.2767533055536367,0.38994141790319936,0.35999375962068914,0.29481420135638725,UP
0.26893934300582245,0.11432928780487793,0.14573265787818654,0.3523984783213728,0.4519230652151139,0.4219409007495191,0.14351816845748225,0.7996141617117188,0.099689036511725,0.13894636951784653,0.7551832657443012,0.13098772840356418,0.6163905651719909,0.35555537062150017,0.34039565754419243,0.565557717098204,0.691011241467828,0.3868312935790598,0.38280332297045233,0.34754893799830155,0.27669191395968085,0.36897199791366275,0.3563990306877915,0.3074872729929955,UP
0.25568190633607674,0.11890232195121953,0.107890504239953,0.3948339073445683,0.44551279884636025,0.4430379844789848,0.14310751064885685,0.8000183417368111,0.09895199242674449,0.12415858068296268,0.780994256593752,0.09920690987094503,0.6068001391425976,0.3502643784024706,0.3601692782532984,0.5694716047255877,0.6629213587888731,0.43209879771121995,0.3825662302624468,0.3478729767926252,0.27712932906661764,0.36154731742203877,0.3673109299041631,0.325936648560622,UP
0.24747490941738542,0.10442083902439012,0.14774569977775404,0.4280442485137723,0.49679482482844556,0.45991559618828637,0.14334173769525807,0.8003189949484587,0.0988562503434536,0.1465979769632836,0.7679283729053714,0.12824175523099438,0.5954663239310664,0.35238086197792085,0.307909390430514,0.5342465635253201,0.6029962691986137,0.4279835166434676,0.38256549280456814,0.3479609451849253,0.2772022315844396,0.37854208532495415,0.36549440857506243,0.3101979601991782,UP
0.2632576952555708,0.1166158048780489,0.1352657634141507,0.41143907974190097,0.4006410098420043,0.48101265228061646,0.14326699362850298,0.8002145226846629,0.09867298073431337,0.13632238232371457,0.7643014714515538,0.12214087597162004,0.5911071367646675,0.3640213049233015,0.2966100959494133,0.5440313018207845,0.5880149873562925,0.411522661919759,0.38290693580241114,0.3480565287514843,0.2770641004980394,0.39207592269346286,0.36803588568686874,0.3023790716853233,UP
0.2676769270074276,0.10899387317073171,0.1425120876504299,0.392988894366021,0.3237179267823399,0.4556962070795286,0.14307274596664493,0.7996732523586622,0.09855826019072517,0.13494580216926413,0.7554765724584994,0.127388926822219,0.6242372449137193,0.35555537062150017,0.2937851276963174,0.5381604466023125,0.5692884001711341,0.44032922582780676,0.3829198413152885,0.34751952767012956,0.2765384349747912,0.37876640489662855,0.3407717886775179,0.281894070937188,UP
0.25126267458421997,0.11890232195121953,0.14734302543971806,0.4022139906794223,0.3108974150384214,0.5400844010480003,0.14327003553819656,0.7994137262372871,0.09864238858935641,0.15140735374943948,0.7702003922866537,0.13066727980776313,0.6033130036727947,0.35449734555337115,0.3276835896709026,0.5303326797433374,0.5805243569224912,0.4526748688113288,0.3827893112707568,0.34751007435035997,0.276714935807414,0.3739397348787134,0.3638171188228822,0.31195868898778994,UP
0.26010113808793356,0.11432928780487793,0.14613533221622255,0.4335793007427724,0.3974358787569863,0.48101265228061646,0.14348557656790892,0.7992752177608521,0.09861717839582715,0.14381231230850935,0.7620436300383292,0.13014886757817687,0.6207497523383896,0.3534388870460499,0.3276835896709026,0.5244618265116561,0.6404494501925259,0.5884773380802409,0.3825367319472985,0.3474031993185207,0.2769067845385263,0.36936216199929983,0.35008578017387426,0.3000093951931409,UP
0.2569445809202966,0.13871953170731696,0.15781008479906022,0.4557195217436439,0.3910256270837449,0.5780590909593404,0.14423388635251572,0.7992600905552345,0.09901657584387571,0.16484937823829807,0.7688238002005297,0.14296358812175225,0.6181343114596557,0.3661373550595595,0.31497152179761245,0.5283757384932463,0.6310861518775686,0.5308642171645565,0.3826348138451669,0.3472831946758903,0.2767302837059035,0.3839858819406424,0.35119487487563694,0.289504177381247,UP
0.2746212493418991,0.13795746341463413,0.1610306550268169,0.4317342793048154,0.3717948510704316,0.5147679309734905,0.14467670149218692,0.7988530741790889,0.09941908915854045,0.1574552727536752,0.7533131031451608,0.1478288734660504,0.6242372449137193,0.3671958135668808,0.36864418301258595,0.5518591039933592,0.6217228535626111,0.4444444414494744,0.382524932621239,0.3472810939381637,0.276787838325237,0.37043453509157587,0.3576811631946836,0.30776912878721935,UP
0.2708334841750646,0.12423773658536574,0.15619971723752873,0.41697413197090105,0.33974357171063524,0.5822784994140928,0.1448818131172362,0.7983458400657276,0.09977231512855202,0.14955080682540603,0.753321521313695,0.1412350996775099,0.6172622597630598,0.344973386183441,0.286722996329219,0.4794520482977243,0.58988764910449,0.5843621324857329,0.3821650531764283,0.3468798530323887,0.27674179462976956,0.37284720936541804,0.34341092822637254,0.289650324830104,UP
0.26452011125396535,0.14100604878048792,0.14452496465469106,0.4409593744097296,0.4006410098420043,0.5485232234849323,0.14529116725027882,0.7983756217517871,0.09990743043544527,0.15351211567832346,0.7685721412675015,0.13362518419750585,0.6041846982638637,0.3460318446907622,0.37429411951877767,0.5675146673208976,0.6161048794800036,0.52263372511135,0.38178452491101367,0.34716319003326,0.2775974399705313,0.35492410862538154,0.3717445541296562,0.3363757520504137,UP
0.25441923175185693,0.12347566829268292,0.152576472671736,0.459409564619558,0.37820511324046746,0.5400844010480003,0.14582741247339429,0.7983051857006306,0.10007710353571547,0.15533446971903564,0.7673953699186937,0.13600961184622964,0.6120313780055922,0.35661382912882145,0.2754237018481182,0.6105675081301392,0.5973782865298641,0.5267489846153183,0.3822992705103536,0.34685595714074896,0.2772521122545294,0.3865340069131394,0.3466683461266952,0.2823255538814332,UP
0.2676769270074276,0.12195121951219512,0.16747179548233035,0.47232469051551523,0.33333332633547036,0.45991559618828637,0.14646273704081272,0.7977350791389215,0.10040681887580664,0.15736620240329519,0.750866960593667,0.14948107741640526,0.598953816506396,0.34074085247173247,0.32344642655690004,0.565557717098204,0.5692884001711341,0.4691357828354435,0.3821049503593134,0.34684335271438954,0.27763197274213164,0.3640970942323241,0.3644536775792337,0.3206057463785015,UP
0.27399004134270183,0.11737818536585352,0.16908216304386184,0.4335793007427724,0.368589730482208,0.5358649898295342,0.1467777919733565,0.7971436999443129,0.1008758984318126,0.15296460741082185,0.7436875920183357,0.1508826706878982,0.6172622597630598,0.33862436889628217,0.2966100959494133,0.49706457466595966,0.5505618035412193,0.43209879771121995,0.3816532574086032,0.3463512549019402,0.27741710216328613,0.3650260878045608,0.34456634998160696,0.2972917485846314,UP
0.26388890325476805,0.1135672195121951,0.14734302543971806,0.40405900365796965,0.3621794620140955,0.6202531837980058,0.14672173392328994,0.7968515557858251,0.10105208652591628,0.1422436610193532,0.7583356483296804,0.1315007684856938,0.6094159371268584,0.35449734555337115,0.2598872442530149,0.44618394578394716,0.5617977639723517,0.47736622097918985,0.38152936448497976,0.3459195532991299,0.27689527361466026,0.3889371005278084,0.34529781659344905,0.2788493324193317,UP
0.2676769270074276,0.12042677073170732,0.12077295004628609,0.33394830019641536,0.3974358787569863,0.6919831579296469,0.1459742932557387,0.7968751920446026,0.10091102274639265,0.12658585326440705,0.7673789766431269,0.11151557412408464,0.6521361141997765,0.3439153611153118,0.26694937562011334,0.4500978205933274,0.6179775293302613,0.4485596551304016,0.38102309965124503,0.34497474650660453,0.2758516165174086,0.36985143635224527,0.3122884137040934,0.25744917026525815,UP
0.27588392392611893,0.11890232195121953,0.1409018849842046,0.3450184167392867,0.43269228710244173,0.6708861018373168,0.1454802002098047,0.796697447378597,0.10109230953132288,0.13441686781369,0.7530211256154677,0.1287158472440613,0.613775124293257,0.26878301154157547,0.3276835896709026,0.4892367865931887,0.593632972110248,0.5020576432293492,0.3790869039906906,0.34464256735359045,0.2770142198279496,0.2990295519066238,0.34396059245540145,0.3514985333059601,UP
0.26199502067135094,0.11585373658536573,0.15016108622474506,0.363468594864244,0.477564088702951,0.6666666850914237,0.1453163716448823,0.7968236650004679,0.10138378469021786,0.14614798173340185,0.7596107793318898,0.13387686930585949,0.6102876317179273,0.3439153611153118,0.3248586214178068,0.5322896209934286,0.687265917235478,0.49794235677065085,0.37882436898586963,0.3448518533496001,0.2772521122545294,0.3640610841685355,0.35639577527322325,0.3114541323191167,UP
0.26010113808793356,0.12271328780487795,0.14734302543971806,0.3782287421981583,0.4743589555185741,0.6666666850914237,0.14529247092586156,0.7970222095741974,0.10162823858927161,0.14866685747139813,0.7645588901841053,0.13243471632106743,0.6181343114596557,0.33544986025270285,0.29943506420250915,0.5146770882161915,0.6947565657001777,0.49794235677065085,0.3784331475812137,0.3448424000298305,0.27723676435603983,0.36144820715473047,0.34404172740310324,0.2996161889616919,UP
0.28977282718088687,0.13567063414634137,0.13083733506759218,0.392988894366021,0.46474357695903246,0.6708861018373168,0.144929614555277,0.7969262463635615,0.10172822958158442,0.12872565234533626,0.7514921203727212,0.1249932176638357,0.6181343114596557,0.3671958135668808,0.29237293283541066,0.49706457466595966,0.5881666771335827,0.411522661919759,0.37852754218968865,0.344553548592427,0.276557619847902,0.3903335641941826,0.34671667651220894,0.27934344998451577,UP
0.26893934300582245,0.12728663414634134,0.1465378416589523,0.3431734073862007,0.45512819839949076,0.662447295982666,0.14450765822493264,0.7970959547015826,0.1020814555515964,0.1457765034948503,0.7594521633142418,0.13367809984995585,0.6477769270333776,0.3724868057859104,0.3064971955696076,0.4794520482977243,0.7022472018989602,0.40329216986655253,0.3785481910102925,0.3441916965190251,0.27550628880140554,0.38558948606569105,0.32697759548569155,0.2609079932215418,UP
0.26830813500662487,0.12728663414634134,0.1380838241991777,0.3523984783213728,0.37820511324046746,0.645569656636229,0.14420737828232924,0.7969598098510253,0.10216218482301034,0.1406665670429573,0.7630515949549473,0.12675044709697214,0.6015692573851299,0.3470898697588912,0.33333352617709433,0.48532289896580505,0.6385767880763509,0.3991769373173143,0.3781525448583644,0.344465317607911,0.2757595291264737,0.3665599843749359,0.365341153673848,0.3196349097539502,UP
0.2613635540863284,0.12195121951219512,0.14331727143119563,0.34870845961520075,0.3910256270837449,0.5696202712861218,0.1439688056506514,0.7969040282803108,0.10218824479834382,0.14505971934819084,0.7647640276594433,0.1292347966883934,0.6181343114596557,0.3343914017453816,0.3192092634428974,0.5127201379934979,0.6067415811650462,0.3950617317228062,0.37763632434326694,0.34426679789275,0.2757556921518513,0.3556436491660399,0.3478715974344328,0.30866341198617825,UP
0.2582069969186914,0.12576218536585354,0.14371978087392528,0.363468594864244,0.4198717753585232,0.5780590909593404,0.1438901505571475,0.7970241004748996,0.10223753214299658,0.1488260021258686,0.7684689079375798,0.12973789829772778,0.6076721908391934,0.3671958135668808,0.33474572103800077,0.5225048762889624,0.6385767880763509,0.44032922582780676,0.37777127913507097,0.3444915768294931,0.27576720307571845,0.3822841586509586,0.36360376396040717,0.3050445227763841,UP
0.25757578891949384,0.1120427707317073,0.1465378416589523,0.37453871140711525,0.4070512636146047,0.594936738596918,0.14378629106904012,0.7969796643083982,0.10230806403275859,0.1442741273005267,0.7630888121210992,0.12978329294373808,0.5928508830523324,0.3629628464159802,0.34463282065819506,0.5401174193206023,0.6161048794800036,0.411522661919759,0.3779084463005111,0.34492564176224594,0.27610101986785435,0.37936866495430543,0.3766484605520132,0.32239779247758166,UP
0.2847221288440075,0.12881108292682913,0.14573265787818654,0.3819187850740724,0.3749999821554495,0.5738396797408744,0.14358074488546338,0.7965059936825006,0.10246725649077494,0.13775510634830987,0.7476879943181792,0.1353646855440348,0.5945946293399973,0.3650793299914305,0.30932216382270344,0.5518591039933592,0.5973782865298641,0.47325101538468173,0.37831367940486255,0.3451133951965582,0.2761662484364326,0.3892671377179451,0.36814431603364295,0.30472091056820066,UP
0.25757578891949384,0.1196647024390245,0.14492763899272712,0.392988894366021,0.37820511324046746,0.5569620395929603,0.14362767720644926,0.7964516302873128,0.1024777371330288,0.14695256982735527,0.7663665811114905,0.12967638720934677,0.5876196441893379,0.3629628464159802,0.2838986066074058,0.5303326797433374,0.6029962691986137,0.40329216986655253,0.3787443548060296,0.34531086454285587,0.275982073654565,0.39485761752924964,0.36792695450708396,0.30005811100942625,UP
0.25631311433527404,0.10746942439024391,0.14573265787818654,0.3782287421981583,0.42948715391806497,0.5358649898295342,0.14349730964815538,0.7964908664768832,0.10242618370356452,0.14220018118006822,0.7627684786552905,0.1282578716733647,0.6198780577473205,0.36931229714233105,0.25564950260772995,0.598825819611981,0.6479400863913083,0.45679014987908106,0.3795821069562447,0.3450230634743156,0.27506503671984633,0.40049699173909303,0.3382475903045741,0.2616491695693179,UP
0.2569445809202966,0.14481701463414634,0.1453301484354568,0.3911438813874737,0.4519230652151139,0.4978902916270535,0.14380150061750763,0.7968785011208313,0.10243666434581797,0.15986059434829633,0.7756522640664273,0.13386048425611585,0.5954663239310664,0.3724868057859104,0.2909607379745042,0.61839529620291,0.6554307103241734,0.4279835166434676,0.38046926878433346,0.34531795453268305,0.2747849375724226,0.3997642364961269,0.364618702056195,0.2923784105421026,UP
0.25378802375265963,0.12576218536585354,0.15177145378627654,0.4354243221807295,0.4166666421741464,0.45991559618828637,0.14425995986417442,0.7969995187657712,0.10242703348536873,0.15626400958413858,0.7689979233707409,0.13563732202746995,0.5876196441893379,0.3661373550595595,0.3375706892910966,0.6594911739714545,0.636704125960176,0.3950617317228062,0.3811812843662285,0.34586257078829663,0.2750842215929582,0.3849244561720521,0.3796286673810215,0.32145131376117403,UP
0.2765151319253162,0.1250001170731707,0.152576472671736,0.3966789355500532,0.4038461430263811,0.5570190032943466,0.1442647400079785,0.7966790110967507,0.10263891241525554,0.14462956443332262,0.7503995307092571,0.13919798136187156,0.6015692573851299,0.3481478948270203,0.3432206257972883,0.690802326262538,0.6292134897613936,0.36625515778759893,0.3815677122946727,0.34611964856758576,0.27535664679113825,0.36504392765267635,0.3675463214191004,0.32338254790678544,UP
0.26641425242320776,0.11585373658536573,0.14774569977775404,0.37453871140711525,0.4102563967989815,0.5570190032943466,0.1441043879112771,0.7965267935902247,0.10270604517779985,0.1422989606207738,0.7569905136101848,0.13251717878452995,0.6111593263089963,0.3492063533343415,0.2838986066074058,0.7279842779496886,0.6292134897613936,0.4362140113921471,0.3823475740014092,0.3459547406560499,0.2750458518467355,0.3783719460327415,0.34809872520469676,0.2904924125116132,UP
0.2676769270074276,0.13643301463414634,0.14613533221622255,0.3874538397200467,0.49679482482844556,0.5570190032943466,0.14419129961680616,0.7967853742612486,0.10281595029116344,0.15065342177892477,0.7638389152436639,0.13462950716456445,0.614646818884326,0.35661382912882145,0.3319207527849049,0.7260273533630018,0.6610486966726982,0.4691357828354435,0.38302271668936866,0.34607106900765877,0.2751187543645585,0.37234306847237636,0.35615312167963364,0.30449125029142454,UP
0.24873732541578025,0.12957315121951232,0.13768114986114163,0.3948339073445683,0.5480768927977084,0.5570190032943466,0.14433557304798478,0.7975686798771292,0.1027037790929883,0.15181218060258833,0.7795436732368258,0.12419572237386592,0.6050567499604596,0.37566131442948975,0.31355932693670574,0.6966732282026326,0.676029969070263,0.4526748688113288,0.384071381792895,0.34636175859057305,0.2749115577349567,0.39523720985304056,0.3623291439486727,0.2933040110515309,UP
0.2613635540863284,0.11585373658536573,0.14452496465469106,0.3708486806160722,0.5641025587195926,0.27004217426872146,0.14416566066367523,0.7980182415190739,0.10226812428795354,0.14286462066584074,0.7621685733818396,0.12925601667084785,0.6041846982638637,0.35555537062150017,0.3107343586836099,0.7064578511360661,0.649812736241566,0.45679014987908106,0.38472513820237186,0.3464975187661527,0.2749384165573122,0.37876871746953245,0.3597751460116038,0.30346473844826216,UP
0.267045460422405,0.12271328780487795,0.14855071866321357,0.363468594864244,0.47115384332778604,0.22362864533816804,0.14403398942979834,0.7980560595331176,0.10191178245132579,0.1458284260213751,0.7586072450302899,0.134329741336472,0.6207497523383896,0.34074085247173247,0.30226003245560495,0.7260273533630018,0.6217228535626111,0.4897119186269045,0.3851823620871724,0.34620892992096497,0.27486935101411164,0.364723140754155,0.34326944290090494,0.2960808125798159,UP
0.2651515778389879,0.1120427707317073,0.14774569977775404,0.38929885269859404,0.506410224381576,0.26582281279709924,0.143931433617274,0.7981874771319195,0.10153816171800957,0.14110474251070318,0.7566533438073072,0.1317519163793016,0.6006975627940608,0.3534388870460499,0.3248586214178068,0.7377690290631564,0.6385767880763509,0.5884773380802409,0.3858932714822494,0.3464373851487296,0.2753873425881162,0.37426712912838855,0.3651147771530999,0.313183543797259,UP
0.26199502067135094,0.1166158048780489,0.14573265787818654,0.41881915340885817,0.5096153785595416,0.30379742532446,0.14404050780771294,0.7984299851469748,0.10120164812348338,0.14367933998448218,0.7614964490835938,0.13043197974915277,0.6059284445515285,0.33968239396441124,0.3389828841520034,0.7181996550162552,0.6441947621589584,0.5925925436747491,0.3860905414648045,0.34660413120577627,0.27610101986785435,0.3578670228293232,0.3621157890861977,0.322985861974174,UP
0.25252534916843977,0.10975594146341454,0.14573265787818654,0.4538745003056868,0.4743589555185741,0.3459915098719848,0.14434556789412073,0.798639402399742,0.10090762361917534,0.1452809177538735,0.7665637434797963,0.12811604698050383,0.6085438854302625,0.2751320288287341,0.2725987335950224,0.6712328240356024,0.6441947621589584,0.5308642171645565,0.38528228762973765,0.3462777290815102,0.2767916752998594,0.3196355675826965,0.3381882415928293,0.3277043367515595,UP
0.23800497932864925,0.1135672195121951,0.1497585767820153,0.4261992270758153,0.42948715391806497,0.3881856220566451,0.14476404775624405,0.7989566009925337,0.100702259683122,0.15721550043606478,0.7778560519764308,0.13002289072031378,0.6198780577473205,0.35767185419695047,0.3050850007087008,0.6340508723484517,0.5861423334582821,0.5020576432293492,0.38562520554333807,0.34595421547161825,0.2765422719494125,0.37872477858435916,0.3467174277617247,0.28864469119391994,UP
0.2771465985103388,0.10823180487804888,0.15619971723752873,0.4317342793048154,0.4038461430263811,0.3881856220566451,0.14480576537489806,0.7984290396966238,0.10071812227680357,0.13850692764701455,0.7427319083589311,0.13952675678623108,0.6495203162155156,0.3322749181699313,0.2937851276963174,0.6086105579074456,0.5786516948063162,0.52263372511135,0.3853224790841275,0.3450120346012511,0.2760933459186096,0.35372421365583545,0.3180472420753819,0.277071205124904,UP
0.2733585747576792,0.12576218536585354,0.1481482092204838,0.4372693436186865,0.42307690854290003,0.47679323553472336,0.14499653656853476,0.7982375860005275,0.10076174440942709,0.14376883246922434,0.7548062204062607,0.13532546886759955,0.615518513475395,0.3534388870460499,0.3432206257972883,0.5831702306484359,0.593632972110248,0.5061728488238573,0.38520632946823047,0.344960829119166,0.2763580971675449,0.36662506678380175,0.35738141463789647,0.31050069420038234,UP
0.26830813500662487,0.09832304390243893,0.1336553958526192,0.40959405830394396,0.4423076866555722,0.5147679309734905,0.14462542358592478,0.7981052229513744,0.10050992573473563,0.1237795040258953,0.754395059332581,0.11866053024169829,0.6059284445515285,0.3513228369097918,0.30084725906341586,0.596868882207291,0.6722846571038305,0.4197530892816133,0.3853859004616965,0.3451257370307018,0.27620845515727765,0.3771661044471569,0.355842855629626,0.30025993367689635,UP
0.24053032849708894,0.13338411707317074,0.14492763899272712,0.43911436505664364,0.4102563967989815,0.5907173218510249,0.14521598862499596,0.7985155484037487,0.10060765064223691,0.16254241395002103,0.7847013521793973,0.1295471870630093,0.614646818884326,0.3502643784024706,0.3192092634428974,0.5538160413980494,0.6048689190488713,0.4650205772409354,0.3852148102338356,0.3450057323880714,0.2762007812080329,0.36998655668334224,0.35269637224113015,0.3024625845132425,UP
0.26073234608713114,0.13338411707317074,0.14371978087392528,0.41881915340885817,0.3653845972978312,0.5696202712861218,0.14544717376170363,0.7984422760015392,0.10070679185274549,0.15123512292974733,0.7691720465409524,0.13126734867869352,0.6216214469294585,0.3492063533343415,0.32344642655690004,0.5401174193206023,0.6329588017278261,0.3168724750156607,0.3849172459797759,0.3448812636777721,0.2758285946696743,0.36657518128258987,0.3479785252821756,0.29988412595126324,UP
0.2809343636771733,0.10899387317073171,0.14009670120343887,0.3782287421981583,0.38141024432548537,0.5864979051051318,0.1449561226254635,0.7979203874077357,0.10074389899153552,0.12643683983462456,0.745798337012959,0.12716678852487828,0.598953816506396,0.33333337667725255,0.35875708339239165,0.5616438038348134,0.7003745397827853,0.2633744788302941,0.38432506730317134,0.34544925064059373,0.27624298792887797,0.3490105293426517,0.3707649247611089,0.3400572758811477,UP
0.24936879200080256,0.10137194146341452,0.15177145378627654,0.3671586377401581,0.3878204959987269,0.6202531837980058,0.1448331425621398,0.7978163878691156,0.10091697121902343,0.14669506786654132,0.7639049314074334,0.13124075654878206,0.614646818884326,0.3470898697588912,0.3290963630630917,0.5303326797433374,0.676029969070263,0.3209876267007087,0.38396518785836065,0.3455836978550943,0.27607032407087645,0.3648219206539057,0.3542970345427032,0.3084546299163824,UP
0.27272736675848197,0.12118915121951229,0.15136877944824048,0.363468594864244,0.34294870489501206,0.6413502398903359,0.14463715666617125,0.7973233355110206,0.10124215438949113,0.14395288305105206,0.7525231244874331,0.13711466257810412,0.6181343114596557,0.3608463628405298,0.33333352617709433,0.5283757384932463,0.649812736241566,0.3991769373173143,0.3838324454401928,0.3456199355808776,0.2758861492890078,0.3749295160815658,0.3542802566368512,0.30027733218271224,UP
0.24494956024894574,0.09527445853658548,0.13566827285688046,0.35424351184420083,0.37820511324046746,0.6582278792367728,0.1442451848742344,0.7973535899222555,0.10114811186980911,0.13587998551234864,0.771044424447602,0.1168106312649311,0.6547515550785103,0.35873031270427175,0.4067798081011734,0.5557729788027395,0.6741573069540882,0.2880659010804534,0.3831816388622308,0.34544452398070896,0.27562907198931724,0.34653673707063604,0.3399717079432366,0.3072854503255264,UP
0.2500000000000001,0.1135672195121951,0.14613533221622255,0.3690036470932441,0.3910256270837449,0.6413502398903359,0.1441878231485851,0.7973961351880547,0.10129115847354274,0.1487010503547194,0.7697529001698254,0.12869946219431805,0.6207497523383896,0.3640213049233015,0.2838986066074058,0.5264187651981465,0.6217228535626111,0.33333332434842333,0.3833704280791806,0.3451624999409168,0.2747695896739331,0.38911021312804017,0.3425702800182404,0.27562016973982323,UP
0.27588392392611893,0.10823180487804888,0.1336553958526192,0.33763833098745843,0.37820511324046746,0.6497890733821222,0.1434686287853306,0.7970141732462132,0.10128577652211504,0.12456298540174941,0.7518682795877577,0.1211738894293866,0.6198780577473205,0.2740740037606051,0.2951979010885065,0.5596868664301232,0.6254681777949609,0.37037039033683705,0.3819419721681184,0.3447121542907831,0.2752146787301147,0.3105461649678506,0.3337250682197165,0.33044634126821165,UP
0.2784090145087336,0.11585373658536573,0.14492763899272712,0.3579335426352439,0.3301281931510936,0.6497890733821222,0.14307013861547915,0.796408612296338,0.10150473696703799,0.1342209974697267,0.7484753146068958,0.13182363454785043,0.613775124293257,0.36931229714233105,0.28813576972140836,0.5440313018207845,0.6217228535626111,0.3950617317228062,0.3823379870489859,0.34458322151281484,0.2745854148920655,0.39403302010524444,0.349506065964215,0.2795731102612909,UP
0.2752524573410964,0.1135672195121951,0.1364734566376462,0.38007377572098644,0.368589730482208,0.5907173218510249,0.14270163298403526,0.7960474502622206,0.10146649678584178,0.1292968001371093,0.7532435424893765,0.12420888413513519,0.5527461468581483,0.3502643784024706,0.2895479645823148,0.5538160413980494,0.6067415811650462,0.3497942545453761,0.3826790613178896,0.3453450015309127,0.2750688736944687,0.3899876693612765,0.3937817074248745,0.3339956364547412,UP
0.28409092084481025,0.10442083902439012,0.14331727143119563,0.38007377572098644,0.33974357171063524,0.5570190032943466,0.14223882815209216,0.7953227625681079,0.10149255676117568,0.12466471978298899,0.7405236898339096,0.12946176991844532,0.6102876317179273,0.3269839259509016,0.33474572103800077,0.5870841439118265,0.5655430759387842,0.43209879771121995,0.38218275216551734,0.34517694251278697,0.2755177997252727,0.347104308534755,0.35611981628443506,0.32496233223490734,UP
0.25757578891949384,0.13795746341463413,0.14170690386966414,0.392988894366021,0.4519230652151139,0.5570190032943466,0.14245567285738756,0.7956848700525764,0.10152796433635726,0.15384349115248577,0.7740510397988853,0.12993425028727545,0.6181343114596557,0.3608463628405298,0.19209032030384482,0.6105675081301392,0.6292134897613936,0.4650205772409354,0.38317721411495853,0.3445792826295775,0.2741863695313514,0.40837493651987367,0.3261449606057275,0.241734839811957,UP
0.2752524573410964,0.1036584585365855,0.1493559024439793,0.41512911053294405,0.4358974202868186,0.5232067644652768,0.14235094425222464,0.7953842168409289,0.10157725168101,0.13283048688133034,0.7451235543457023,0.13305493074496091,0.6102876317179273,0.3322749181699313,0.29943506420250915,0.6046966446440549,0.6835206052690456,0.5144032869676036,0.3830555335649712,0.3446583228865397,0.2744242619579311,0.36038012884070453,0.34968811876353345,0.3068470079789544,UP
0.26893934300582245,0.09375000975609768,0.14573265787818654,0.4538745003056868,0.4743589555185741,0.5021097083729466,0.14237441041271756,0.7952778536764309,0.10148235937952335,0.128998773277544,0.747977756540363,0.1277660515736899,0.6233651932171235,0.329100409526352,0.3036722273165117,0.6594911739714545,0.6104869053973961,0.5308642171645565,0.38298916235588726,0.34429778377421694,0.27455855606970997,0.353906246180125,0.33999700001026717,0.3012516485084259,UP
0.2714646921742621,0.1036584585365855,0.1481482092204838,0.4649446168485581,0.49679482482844556,0.43459915098719853,0.1425356316264742,0.7952353084106317,0.10138038556300015,0.13401921724469515,0.748566142214767,0.13158779727449457,0.6102876317179273,0.3703703222104601,0.4081920029620802,0.6242661212349839,0.6198502037123534,0.5185184925621118,0.38308798171163455,0.3447688742094005,0.27539501653735987,0.36639083618539636,0.3776671548953797,0.33393996123612907,UP
0.26893934300582245,0.1166158048780489,0.13848633364190738,0.46678963828651515,0.4615384437746556,0.42616034513254775,0.14275551824146318,0.7953161444156501,0.10112715058530138,0.1353953752647838,0.7586196507523405,0.12549121573308594,0.614646818884326,0.33544986025270285,0.35451992027838936,0.6203522464256036,0.5505618035412193,0.6913580170375458,0.3827446950690948,0.3446063296278071,0.2763619341421673,0.3484399845705135,0.35793784011256724,0.3259227297559685,UP
0.2752524573410964,0.13109760000000012,0.13848633364190738,0.4926198900784296,0.4743589555185741,0.4388185677330917,0.14315096650162137,0.795420616679446,0.10097532290292274,0.1391333750402082,0.7587188965287459,0.12859228785255378,0.6129030725966612,0.3322749181699313,0.33474572103800077,0.6771037259756968,0.5805243569224912,0.6049382682771938,0.3827299459115205,0.3444679435300692,0.27704107865030514,0.3510657459190686,0.35480863546293373,0.3202334183540317,UP
0.2657827858381852,0.11128039024390234,0.14412245521196138,0.5590405772507862,0.3910256270837449,0.3586497877467996,0.14390144907886618,0.7952343629602806,0.10069829403470162,0.13807846126959422,0.7572009678235446,0.12879723527803286,0.6216214469294585,0.3417988775398615,0.32627139480999584,0.7279842779496886,0.5430711796083542,0.4404691309040293,0.3831189549425404,0.34406276374105677,0.2770295677264391,0.3594983778292181,0.3475683430465722,0.3051767514205876,UP
0.26641425242320776,0.12195121951219512,0.15418684023326748,0.546125475524571,0.34294870489501206,0.5570190032943466,0.14480141978962144,0.7948836008800252,0.10093368359450923,0.14941783450137916,0.7567707551052867,0.13866345268991495,0.6190060060507246,0.3439153611153118,0.2838986066074058,0.6712328240356024,0.4981273501497423,0.5679012022887799,0.3835455743253744,0.3433939413673597,0.27690294756390504,0.37227897716618374,0.3413637732959345,0.2878026035124107,UP
0.2771465985103388,0.1196647024390245,0.15338165645250174,0.5276752611450004,0.3621794620140955,0.3291138981626833,0.14543848259115072,0.7944104029793031,0.10082972695377602,0.14222508710742546,0.7477367310833783,0.13908086854731203,0.6015692573851299,0.3174604000201636,0.3206214583038042,0.6653620246395353,0.5486891536909617,0.6543209780038621,0.3832808269469174,0.3432692100648445,0.27785835424484423,0.34442734021475735,0.3586868358797771,0.33006009443908935,UP
0.2676769270074276,0.13643301463414634,0.14774569977775404,0.4741697119534723,0.4166666421741464,0.3755273994561012,0.1459477851855522,0.7944510573444,0.10074956420356476,0.15169145017505917,0.7632429975237293,0.13593225292285122,0.5902354421735986,0.35555537062150017,0.3036722273165117,0.565557717098204,0.5805243569224912,0.5555555585505255,0.3835042766841666,0.34345643831472517,0.27818833406235777,0.3833532280676577,0.36905432961373,0.31046241748758613,UP
0.2771465985103388,0.12195121951219512,0.1481482092204838,0.43911436505664364,0.4679486891498205,0.5063291251188398,0.14604642997132772,0.79439480304851,0.10083482564460218,0.1399371188654377,0.7504491535974599,0.13522366667329233,0.6094159371268584,0.3439153611153118,0.29943506420250915,0.565557717098204,0.505617998614442,0.5925925436747491,0.3834356931014465,0.3430441685358856,0.2783878567427149,0.370464598539326,0.35189228484276475,0.3011646559793444,UP
0.30555561301907225,0.11890232195121953,0.14371978087392528,0.4464944266387296,0.4487179320307371,0.4641350129341794,0.14578569485474,0.7938015329531992,0.10084813889287027,0.12069032476484991,0.7282154413136243,0.13489677150054294,0.6181343114596557,0.35873031270427175,0.28107363835430993,0.5694716047255877,0.5749063742537416,0.5308642171645565,0.38371813946899264,0.3426817912780521,0.27795044163577914,0.3857748222655576,0.34336009367580633,0.27918338373100526,UP
0.2790404810937559,0.1250001170731707,0.1469405159969883,0.4409593744097296,0.47115384332778604,0.5400844010480003,0.14587651758701817,0.7937495331838891,0.10097900529074158,0.13965048963364646,0.7504495966589618,0.13498245725247945,0.6233651932171235,0.3492063533343415,0.2895479645823148,0.596868882207291,0.5842696725686989,0.543209860902811,0.3838682121473102,0.3422787122267662,0.2776741794629767,0.37453571795279406,0.3397901559769287,0.2842045925095949,UP
0.2746212493418991,0.12881108292682913,0.14371978087392528,0.4372693436186865,0.4839743340781158,0.5569620395929603,0.14600384323561846,0.7938894598358509,0.10107644693764131,0.14173203417262079,0.75649738615867,0.1323933507856495,0.615518513475395,0.34285690260799057,0.3107343586836099,0.5636007796935139,0.6385767880763509,0.5967078301334474,0.3836742607252093,0.34225455374291075,0.2779120718895564,0.36553188053539093,0.34931524858721275,0.30223988363879306,UP
0.2765151319253162,0.14100604878048792,0.15297914700977197,0.45018446951464375,0.4583333105902788,0.5907173218510249,0.14642319221479705,0.7939282233002456,0.10142712356224022,0.15273116710864118,0.7558682388260995,0.14208067568721852,0.6346990084286547,0.35449734555337115,0.26694937562011334,0.5518591039933592,0.6666666707553057,0.5843621324857329,0.38380405331186246,0.3418383450808338,0.2772521122545294,0.38228514975363165,0.3271841891025248,0.2638100639917044,UP
0.2815655716763706,0.11128039024390234,0.1453301484354568,0.4298892578668583,0.42948715391806497,0.5527426291759712,0.14626023276692987,0.793611970157805,0.10149793871260337,0.13061385934651912,0.7442108476519733,0.1318402882049666,0.6242372449137193,0.3417988775398615,0.3248586214178068,0.5342465635253201,0.6666666707553057,0.47325101538468173,0.38334793561388,0.3418257406544744,0.2772521122545294,0.35929982692704376,0.3452374662156833,0.3027131229969969,UP
0.2714646921742621,0.10670735609756109,0.14210957820770012,0.40959405830394396,0.35576921663893063,0.4978902916270535,0.14602513660347308,0.7932300082159635,0.10138633403563094,0.1315978545443184,0.7518106815925226,0.12720117026860198,0.6320835675499208,0.3417988775398615,0.29943506420250915,0.5342465635253201,0.6329588017278261,0.33744861080712163,0.38300575515815827,0.3414720289397629,0.2766036635433694,0.36399930543524667,0.3340185563638723,0.28630633201220695,UP
0.26452011125396535,0.12728663414634134,0.14291476198846587,0.3911438813874737,0.34294870489501206,0.5105485418647329,0.14598863368715095,0.7930796816101396,0.1013585744966886,0.14575455250802674,0.7642957116520299,0.13016256655419162,0.5937225776434014,0.3417988775398615,0.2627116339748281,0.5577299290254331,0.591760309994073,0.5061728488238573,0.38314181613678033,0.3414612626589143,0.27657680472101276,0.3806746079098715,0.3562214853855676,0.2978832977823862,UP
0.26893934300582245,0.10442083902439012,0.1497585767820153,0.39852394901199534,0.3878204959987269,0.6160337946892481,0.14580611910553937,0.7927813920243698,0.10154326040883574,0.13673945107336086,0.75025332041366,0.13267135941654168,0.6242372449137193,0.35873031270427175,0.28813576972140836,0.5342465635253201,0.6067415811650462,0.4650205772409354,0.38322478014813527,0.3411584938340722,0.276024280375409,0.38285800709867374,0.34004307664723354,0.2777775844610464,UP
0.25252534916843977,0.12271328780487795,0.1396940268654029,0.3966789355500532,0.38141024432548537,0.628692017289792,0.14584436025597233,0.7929610275910774,0.10158716580206079,0.14774913736843107,0.7733607499790651,0.1252607506071871,0.613775124293257,0.329100409526352,0.2895479645823148,0.5342465635253201,0.6198502037123534,0.4074074563252508,0.38277345592636447,0.34105214398666456,0.27585545349202983,0.35939398168098663,0.3446084199544893,0.3019301902352622,UP
0.2588384635037137,0.13795746341463413,0.16425122525457359,0.44464941728564367,0.28846152473496117,0.6202531837980058,0.14667697439494237,0.7924745933854402,0.10215340374436534,0.16764264131158818,0.7646421857464456,0.14826965816488494,0.6120313780055922,0.33544986025270285,0.32344642655690004,0.5557729788027395,0.4588014825078207,0.4609053635600082,0.3823730162982246,0.34057685207602784,0.2761086938170991,0.3567880423858933,0.3536148999823957,0.31421353534158475,UP
0.27272736675848197,0.12576218536585354,0.17874403862243818,0.4317342793048154,0.25641023487837045,0.624472600543899,0.14721756520333446,0.7916199062680521,0.10290659368362856,0.1640080644548515,0.7439893169010682,0.1597711572626328,0.5998255110974651,0.3534388870460499,0.2909607379745042,0.46966729718425637,0.44194762158958434,0.42386830296254047,0.3821919703890012,0.34016668303491476,0.275951377857586,0.3825943737876336,0.3587977703916039,0.2992890970523451,UP
0.267045460422405,0.12042677073170732,0.14452496465469106,0.40959405830394396,0.2980769032945028,0.6160337946892481,0.14717975861142896,0.7912464533793704,0.10301904814240523,0.14212293059182374,0.7592744956520159,0.1307215384970774,0.6181343114596557,0.3460318446907622,0.31497152179761245,0.5283757384932463,0.5243445707125222,0.42386830296254047,0.3819076803767584,0.33980903243696603,0.27582475769505194,0.3666647108907251,0.3485589907413506,0.3004652360455288,UP
0.2790404810937559,0.12652425365853673,0.1368761309756822,0.40405900365796965,0.3839246632470909,0.611814377943355,0.14694335877238943,0.7910658723623116,0.10304595789954334,0.13386302753075865,0.7546569086801508,0.12706337468633389,0.6120313780055922,0.3650793299914305,0.3177964900507083,0.5557729788027395,0.5112359726970495,0.44032922582780676,0.3821237555352205,0.33958189017028056,0.27562907198931724,0.38364229968064023,0.35639802902177053,0.29571196425650953,UP
0.2708334841750646,0.12881108292682913,0.14291476198846587,0.40405900365796965,0.2307692323841222,0.4936709025182958,0.14690381394637372,0.7904919839991982,0.10298222426421634,0.1431947297369173,0.7598123723152135,0.13123887629717196,0.5911071367646675,0.35661382912882145,0.3107343586836099,0.5538160413980494,0.5674157380549592,0.41563787290521315,0.38229963923929294,0.33982137427110964,0.27574801820260764,0.38239714435569,0.36999614608998416,0.31230665910411604,UP
0.2828282462605904,0.13338411707317074,0.14573265787818654,0.34686342609237264,0.3076923028476333,0.47679323553472336,0.14651749141529624,0.7899923134886455,0.10299128860346289,0.14098232354572582,0.7508133501519478,0.13584173223820317,0.6006975627940608,0.3460318446907622,0.2909607379745042,0.5753424553936685,0.5805243569224912,0.5185184925621118,0.3824224259760982,0.339828201668721,0.2758708013905194,0.3761105801003233,0.3571605472802639,0.3026087319620995,UP
0.26010113808793356,0.12957315121951232,0.13848633364190738,0.3856088279499865,0.28525639155058435,0.5358649898295342,0.14645404587025984,0.7898429323331727,0.10288931478694008,0.14635567183950104,0.770243812313831,0.12635022211143673,0.6207497523383896,0.4031747340319593,0.3121471320757993,0.5753424553936685,0.6161048794800036,0.47325101538468173,0.38343126835417424,0.33985997532683543,0.275091895542203,0.4163896534695398,0.3533116455945351,0.2663398067373974,UP
0.27272736675848197,0.13262204878048792,0.1469405159969883,0.3856088279499865,0.34935897126376575,0.47679323553472336,0.14640276796399768,0.7896585695147097,0.10289809586558508,0.14666973980482195,0.7581699433280034,0.13535232960488394,0.6216214469294585,0.35767185419695047,0.29943506420250915,0.5890410813165166,0.6011236070824387,0.43209879771121995,0.3836705734358158,0.33965935487394794,0.27465448043526614,0.3797416499269425,0.3442160172907589,0.28499448467365635,UP
0.26073234608713114,0.12957315121951232,0.15499202401403323,0.41512911053294405,0.43269228710244173,0.5527426291759712,0.14670869716746074,0.7898632595157213,0.1031060091470515,0.15659791786447275,0.7636532724744054,0.13975775912687574,0.6564953013661752,0.3460318446907622,0.3573448885314852,0.5714285421302778,0.6292134897613936,0.4197530892816133,0.38311969240041904,0.33918511333217444,0.27434752246548577,0.3478895922193947,0.3267790151970265,0.29152240405593993,UP
0.28219703826139314,0.12118915121951229,0.12962964184409678,0.3819187850740724,0.42628202073368804,0.5316455813747817,0.14618027399784292,0.7898122051967624,0.10287656805987468,0.12490238142878969,0.7528607373518126,0.12074062573699136,0.6172622597630598,0.3915342910865787,0.3121471320757993,0.5772994056163621,0.6161048794800036,0.40329216986655253,0.38391061597533616,0.33925627582266205,0.2736568670334808,0.4068991846396528,0.354568736450902,0.2752060853013939,UP
0.283459712845613,0.1181402536585367,0.15217396322900623,0.35055346896828676,0.4006410098420043,0.5063291251188398,0.14577091986480029,0.7894548249640492,0.10299780359729636,0.1374211980679754,0.7426122817534425,0.1387024007589769,0.6094159371268584,0.34074085247173247,0.2966100959494133,0.5753424553936685,0.6104869053973961,0.4485596551304016,0.3838302330665566,0.33923736918312286,0.2736530300588584,0.36844770459960174,0.35090514297905995,0.30167617205034436,UP
0.283459712845613,0.1250001170731707,0.17431561027587977,0.3948339073445683,0.4487179320307371,0.4852320690265096,0.14595517268052208,0.7891447172488907,0.10347793031675886,0.15529521122337067,0.7368480516148928,0.15757851527811884,0.6015692573851299,0.3343914017453816,0.3248586214178068,0.596868882207291,0.6535580604739157,0.5555555585505255,0.38360420222673186,0.339584253500223,0.2743398485162421,0.35776857329713024,0.361862117166377,0.32277360020321477,UP
0.2828282462605904,0.10975594146341454,0.15740741046102416,0.3966789355500532,0.4487179320307371,0.5232067644652768,0.14577091986480029,0.7888714820974247,0.10366629861672526,0.13709995381850076,0.7383012933408297,0.14149054528908342,0.6015692573851299,0.3417988775398615,0.2683615704810198,0.6046966446440549,0.6310861518775686,0.43209879771121995,0.3838615750264018,0.3396336208367974,0.27413265188664027,0.37775019428916057,0.3513824368380709,0.29471676972381655,UP
0.26073234608713114,0.13185966829268295,0.13325288640988944,0.41143907974190097,0.4423076866555722,0.48101265228061646,0.14580655366406714,0.7893120619610341,0.1033875701848957,0.1438042917556314,0.772479057590463,0.12254244399401971,0.6111593263089963,0.35767185419695047,0.3121471320757993,0.6066536205027554,0.6067415811650462,0.4650205772409354,0.38412632240485894,0.3396761607757604,0.27406742331806205,0.37880208459285963,0.35493910246217025,0.297918094794019,UP
0.2657827858381852,0.12957315121951232,0.16062814558408714,0.4372693436186865,0.4166666421741464,0.5105485418647329,0.1462484996866834,0.7893333345939337,0.10363683951417406,0.15762834784209132,0.7575585184555053,0.14496498165680227,0.6111593263089963,0.3322749181699313,0.3488699837721977,0.5929549689439003,0.6142322296297459,0.4444444414494744,0.383657299193999,0.33983161536752665,0.2746199476636658,0.34789553883543317,0.35906120855512935,0.32764170213062066,UP
0.23421721416181474,0.13338411707317074,0.152576472671736,0.4206641748468152,0.4070512636146047,0.5569620395929603,0.1468755676420767,0.7899540227494262,0.10373286485806649,0.17062839765394608,0.7868112110510171,0.13485137685453225,0.6068001391425976,0.35873031270427175,0.30084725906341586,0.5675146673208976,0.6516853983577409,0.411522661919759,0.3838811176601877,0.3400403761791047,0.27438589221170845,0.3833284505008306,0.3561380966893185,0.2956632484402242,UP
0.2765151319253162,0.12804870243902453,0.15378433079053772,0.40959405830394396,0.4423076866555722,0.5485232234849323,0.14694335877238943,0.7899147865598559,0.1039368124911129,0.14690402437572658,0.7510224751808022,0.14065839964801702,0.5902354421735986,0.3470898697588912,0.31638429518980155,0.6046966446440549,0.6573033847062657,0.3950617317228062,0.3840289779648692,0.3405655606107475,0.2746659913591333,0.37308672584474645,0.37056208739185453,0.3203865252052155,UP
0.2771465985103388,0.13033521951219515,0.15942028746528542,0.4003689619905426,0.4358974202868186,0.47679323553472336,0.14705243296282866,0.7898174051736934,0.10413367860912236,0.15136767311941238,0.7492382665130128,0.14564831881331397,0.5919791884612634,0.2761904873360554,0.3559321151392958,0.598825819611981,0.6610486966726982,0.33744861080712163,0.3825636491598713,0.3410096040477014,0.27602811735003135,0.30282217146895546,0.3673725323644552,0.37445412188001287,UP
0.28977282718088687,0.13490856585365854,0.16988734682462758,0.3819187850740724,0.49038460044686943,0.5063291251188398,0.1471219623272522,0.7896146060733839,0.1046053075105414,0.1540085456880242,0.7368617865214488,0.15651053236369658,0.5605928265998766,0.34285690260799057,0.3192092634428974,0.5772994056163621,0.6385767880763509,0.4279835166434676,0.3826679994497088,0.34193025235637126,0.2768914366400379,0.3751554874910288,0.3931589215763119,0.34494973571669624,UP
0.29040403518008445,0.12195121951219512,0.171095040048123,0.3690036470932441,0.5160256239347065,0.4430379844789848,0.14699594035423463,0.7894089706220212,0.10494493697168375,0.1481488986092359,0.7314555500763618,0.15544630995249414,0.614646818884326,0.35449734555337115,0.3516949520252935,0.5870841439118265,0.5881666771335827,0.3580246657343924,0.3825990471380495,0.3419775189552191,0.2769106215131487,0.36562735675956465,0.3599699700526902,0.31425529175554434,UP
0.2847221288440075,0.1440549463414635,0.155394533456763,0.3302582573205013,0.43910253247760667,0.4219409007495191,0.14673737803028522,0.789337116395338,0.10503869623076463,0.15155299010432619,0.7494761905394849,0.14563435122992632,0.5884916958859338,0.33862436889628217,0.2909607379745042,0.5909980315392102,0.5881666771335827,0.31275718855696233,0.3826834860651618,0.34214032612902834,0.27687225176692604,0.3723579350124726,0.36551594439451424,0.3151739328626459,UP
0.29040403518008445,0.14100604878048792,0.1505635956674747,0.3302582573205013,0.4519230652151139,0.4936709025182958,0.14635105549920774,0.7892123169489937,0.10516842958622978,0.1439292435267806,0.7456392779338092,0.14199606436477297,0.5867479495982689,0.3682538386350098,0.2951979010885065,0.5616438038348134,0.5881666771335827,0.33333332434842333,0.38320523751434954,0.34242838978978446,0.27658447867025754,0.39691811998658966,0.3716348717003556,0.3027270418016504,UP
0.28787894459746977,0.13414618536585357,0.1610306550268169,0.33763833098745843,0.5096153785595416,0.4472573735877424,0.14608684391439897,0.7892056987965362,0.1053669952678485,0.1487601491653982,0.7413982932384827,0.1490075226180838,0.5972100702187312,0.3481478948270203,0.2980228693416024,0.616438333162213,0.5881666771335827,0.3950617317228062,0.3834803093031085,0.3424990270958404,0.27653459800016883,0.3769378204647901,0.3615573602794849,0.3069687975196687,UP
0.2676769270074276,0.12652425365853673,0.1340580701906552,0.30258299617550083,0.5160256239347065,0.4388185677330917,0.14545586493225685,0.7896892966511202,0.10501801820685845,0.13804384625191113,0.7647525080603964,0.12328003983984567,0.6085438854302625,0.3513228369097918,0.307909390430514,0.5929549689439003,0.7059925138653927,0.4444444414494744,0.3836274321499113,0.34280731035721473,0.2764578585077235,0.3749189443197196,0.35526389266948255,0.301408235060773,UP
0.25378802375265963,0.10823180487804888,0.1566022266802584,0.315498109986587,0.506410224381576,0.46835442968007257,0.14513516073885374,0.7900821312719993,0.10499337453453186,0.15081383283648103,0.7610653502423324,0.13675848920171513,0.6277243803835222,0.3322749181699313,0.3064971955696076,0.6066536205027554,0.6460674365410506,0.37037039033683705,0.383365634602969,0.3425376281515662,0.2761547375125655,0.3549994324285358,0.3375827344831291,0.29765711720677446,UP
0.25441923175185693,0.12195121951219512,0.14371978087392528,0.33948335242541555,0.503205112190788,0.5063291251188398,0.144929614555277,0.790623401598,0.10485995879124788,0.14894462188158775,0.7701162106013097,0.12864198021652978,0.6416739935793142,0.3513228369097918,0.3389828841520034,0.5949119063485905,0.6142322296297459,0.47325101538468173,0.38319749420662297,0.3421442650122657,0.2759206820606081,0.36032727003147347,0.33561320866931926,0.29108744141053133,UP
0.27399004134270183,0.1021340097560977,0.13607094719491644,0.35055346896828676,0.48717944626890386,0.5527426291759712,0.1442560488374256,0.7907051830533697,0.1046528952915857,0.12417251111690827,0.7503623135431052,0.12193673436825975,0.6085438854302625,0.3682538386350098,0.32344642655690004,0.5929549689439003,0.5880149873562925,0.4074074563252508,0.38357654755628023,0.3422022978919622,0.27572883332949577,0.3857470713907113,0.36070469207910055,0.29896200514299826,UP
0.2651515778389879,0.1181402536585367,0.1505635956674747,0.35424351184420083,0.4423076866555722,0.5864979051051318,0.14407744528256317,0.7907822372569837,0.10477271452600007,0.14588077068226202,0.7577649851153488,0.13497869674925997,0.6242372449137193,0.33756591038896094,0.2824858332152167,0.5459882443526761,0.593632972110248,0.3415638164016298,0.38332802425115475,0.34176350629932467,0.2751341022630469,0.36616519514349116,0.3362254770246613,0.28700227224486013,UP
0.2506314665850224,0.11432928780487793,0.15136877944824048,0.35977856407320097,0.4166666421741464,0.5738396797408744,0.14404398427593426,0.7909959090363307,0.10483474859771821,0.15206841616031652,0.7676080394395627,0.1331035486794456,0.6251089395047883,0.3481478948270203,0.3375706892910966,0.5322896209934286,0.5842696725686989,0.3950617317228062,0.3829202100442278,0.34155054401229357,0.27504201487211316,0.361415170398961,0.3479822815297544,0.3040806455541596,UP
0.2752524573410964,0.13262204878048792,0.1340580701906552,0.3579335426352439,0.4166666421741464,0.5991561277056757,0.14369199186854092,0.7910616178357317,0.1047676158351739,0.13701974828972263,0.7608797074730741,0.12523012936668287,0.6085438854302625,0.35555537062150017,0.30084725906341586,0.5577299290254331,0.6591760345565232,0.3292181187539152,0.38304852771512343,0.34171177563280786,0.27463913253677663,0.38025074633334954,0.3543756653253524,0.2961156095914487,UP
0.2815655716763706,0.12042677073170732,0.15338165645250174,0.32656822652945827,0.4358974202868186,0.5232067644652768,0.14324830761181415,0.7908394370032248,0.10489423332402369,0.14030522002909343,0.7444802290450738,0.13978972340424387,0.6190060060507246,0.34285690260799057,0.2895479645823148,0.5362035047754113,0.5861423334582821,0.325102886204677,0.38285531375090137,0.3413882620229159,0.27413265188664027,0.37000241432611153,0.34235417057420764,0.2907638292023479,UP
0.2809343636771733,0.1166158048780489,0.15861510368451964,0.2859778274036295,0.4358974202868186,0.5147679309734905,0.14267773226501454,0.7905520200964925,0.10508430118759854,0.1421968041051721,0.7417460965174035,0.14330713695161784,0.6111593263089963,0.313227432869263,0.31497152179761245,0.5831702306484359,0.6554307103241734,0.33333332434842333,0.3821982387809703,0.34144025528164856,0.27435519641473055,0.3401916977575575,0.34958219258181167,0.32328163657305137,UP
0.29419205893274397,0.11432928780487793,0.14855071866321357,0.29151287963262956,0.4006410098420043,0.5358649898295342,0.14180774609266708,0.7900003498166298,0.10515624938036747,0.1276086848235098,0.7340160024953223,0.13658550605360417,0.6198780577473205,0.33544986025270285,0.2725987335950224,0.616438333162213,0.6891385916175703,0.3004114639545177,0.38230848873383755,0.3413415206084997,0.2737029107289482,0.36766803716344293,0.3373733862847381,0.287064906865798,UP
0.27588392392611893,0.0990854243902439,0.14331727143119563,0.3099630577575869,0.44551279884636025,0.5021097083729466,0.14102771353554225,0.7898467141345772,0.10498515997708995,0.12638449517373762,0.7451957733704972,0.1275568064302455,0.6285964320801181,0.3417988775398615,0.3728813461265886,0.5949119063485905,0.5881666771335827,0.3086420368719144,0.38184647137282535,0.34122545484910666,0.27382185694223754,0.3462063695129417,0.35161156794037685,0.32060922607966386,UP
0.2771465985103388,0.11280483902439013,0.13164251884835795,0.39779516361042294,0.42307690854290003,0.5147679309734905,0.14069484170336521,0.7897928234645649,0.10468632004255728,0.12481162254096176,0.7532005655237008,0.12041534220847915,0.630339821262256,0.3502643784024706,0.4180791025822745,0.565557717098204,0.5881666771335827,0.23868319135378516,0.38115768571410974,0.34130580806714805,0.2741364888612627,0.34153959739295064,0.3608719703046091,0.33490731815951696,UP
0.2720959001734594,0.08917697560975607,0.12560388783557427,0.3247232050915012,0.38141024432548537,0.4978902916270535,0.13974924234720712,0.7895555154264406,0.10417985008715934,0.11222653080694353,0.7510082972127445,0.11121903158446655,0.6329556192465167,0.3365078853208319,0.27966086496212084,0.5636007796935139,0.6423221000427835,0.39094652612829806,0.38098770167306695,0.3408819842308123,0.27353408384556904,0.36420049927788256,0.3287765876594246,0.28030036780441253,UP
0.2752524573410964,0.0960365268292683,0.1239936851693491,0.36531361630220105,0.46474357695903246,0.5232067644652768,0.1390230950475102,0.7896089333712774,0.10371870182799417,0.11280738768904215,0.7514912342497175,0.11136434817317434,0.6277243803835222,0.35449734555337115,0.3248586214178068,0.598825819611981,0.6254681777949609,0.41563787290521315,0.3810717718712399,0.34072889296898845,0.2732808435205009,0.36952172952966617,0.3441812093965288,0.29321005912012266,UP
0.2708334841750646,0.10594497560975612,0.13848633364190738,0.3856088279499865,0.3621794620140955,0.47679323553472336,0.1387614908138672,0.7893659526310465,0.1034728316259327,0.12922799223610465,0.7533476619423018,0.12407404323396815,0.5945946293399973,0.3492063533343415,0.28107363835430993,0.630136984721068,0.5955056256402809,0.4609053635600082,0.3815916796757308,0.34082894060321633,0.2732961914189893,0.38241267163090165,0.3602336586327209,0.3010776634502629,UP
0.27399004134270183,0.11585373658536573,0.14009670120343887,0.45018446951464375,0.3653845972978312,0.36286920449269283,0.13892792672995574,0.789142353623013,0.10312130521952997,0.13340881095725712,0.7537473034169346,0.1273365483845145,0.6207497523383896,0.32380941730732227,0.2838986066074058,0.6086105579074456,0.5767790339167331,0.3991769373173143,0.3813955158799939,0.340389886418363,0.273104342687877,0.35487455349172736,0.3374284779158937,0.29758404348234546,UP
0.2746212493418991,0.11737818536585352,0.14613533221622255,0.41697413197090105,0.3301281931510936,0.4219409007495191,0.13900440903082165,0.7887603916811713,0.10297542600978173,0.13772302413679863,0.7515895939031191,0.13254135344808582,0.6129030725966612,0.31640194151284234,0.28813576972140836,0.5694716047255877,0.5674157380549592,0.4485596551304016,0.3809021565591365,0.34005823244978056,0.2732693325966338,0.3492044550990184,0.34333555285829154,0.3088513158489948,UP
0.28977282718088687,0.05182938536585364,0.1469405159969883,0.363468594864244,0.3365384595198472,0.4978902916270535,0.13801100823662243,0.7876707601515367,0.10279074009763418,0.09896686836246478,0.7165908366906317,0.12485112436360189,0.6059284445515285,0.3322749181699313,0.307909390430514,0.5322896209934286,0.5468164915747867,0.5185184925621118,0.3804936048943309,0.33990382822687765,0.273679888881215,0.35921194915669713,0.3547578009123675,0.3135315139135851,UP
0.2752524573410964,0.1181402536585367,0.1598229618033214,0.37269368996915825,0.3910256270837449,0.5696202712861218,0.1380553332064422,0.7874083976791084,0.10311082457727612,0.14665369869906633,0.7463539361362289,0.14376296366333177,0.5998255110974651,0.3417988775398615,0.3361584944301902,0.5107632005888078,0.5730337244034839,0.49794235677065085,0.38005776728801294,0.3400821283414203,0.2742938048207747,0.3616979650283475,0.36655617455733247,0.3249484134302548,UP
0.2847221288440075,0.09832304390243893,0.15338165645250174,0.38929885269859404,0.368589730482208,0.5822784994140928,0.13780242014335214,0.7868193821103775,0.10329409418641594,0.1279620112844957,0.7342933589954553,0.13668462217418326,0.5867479495982689,0.3248678758146435,0.29943506420250915,0.5440313018207845,0.6011236070824387,0.4197530892816133,0.3797130057297157,0.34034918462491065,0.2747811005978002,0.35907517698781166,0.36673046444498814,0.32726937410615187,UP
0.2847221288440075,0.12042677073170732,0.15579720779479897,0.38007377572098644,0.368589730482208,0.5189873477193836,0.13775809517353235,0.7863868385747523,0.10349350964983889,0.14025034256203467,0.7410784028341757,0.14215588575161428,0.6172622597630598,0.34074085247173247,0.29237293283541066,0.5557729788027395,0.6217228535626111,0.5267489846153183,0.379620823494877,0.340198719285245,0.274758078750067,0.36786625769805953,0.34399389785060003,0.29434096199818344,UP
0.2796716890929534,0.13490856585365854,0.16666677659687082,0.37269368996915825,0.44551279884636025,0.5696202712861218,0.13802187219981363,0.7863253843019314,0.10398496679335988,0.15705044590052636,0.7461262025242986,0.15255125968799632,0.5945946293399973,0.37142834727858914,0.33333352617709433,0.5479451856027673,0.6647940086391309,0.5102880813730956,0.37997000980044643,0.3408171239535044,0.27508038461833584,0.38903786263290513,0.37404763472846214,0.31172902871101477,UP
0.267045460422405,0.1181402536585367,0.1469405159969883,0.38929885269859404,0.4743589555185741,0.5654008628313694,0.13806967363785444,0.786605237605855,0.104033404356208,0.1425640610001039,0.7575868743916213,0.13231115692955991,0.615518513475395,0.3343914017453816,0.3418078524050992,0.5831702306484359,0.5881666771335827,0.4691357828354435,0.37960201831896984,0.34077222068459895,0.2755024518267831,0.3505444259130268,0.3545003727449681,0.3203134514807865,UP
0.26641425242320776,0.12271328780487795,0.1626410225883484,0.3948339073445683,0.4583333105902788,0.5696202712861218,0.13840732561383556,0.78674800060887,0.10436708534471957,0.15525341992153355,0.7539196543411387,0.14556827381620704,0.6094159371268584,0.34285690260799057,0.29943506420250915,0.5596868664301232,0.6891385916175703,0.4855967130323964,0.37956625161185237,0.34098833407821993,0.27554082157300586,0.36956269510682027,0.3517535540988549,0.30173532697011984,UP
0.3093433781859068,0.10975594146341454,0.16586159281610507,0.39852394901199534,0.44551279884636025,0.5063291251188398,0.13821829265430968,0.7859944766790489,0.10472937565397811,0.1290557614164128,0.7140303842716712,0.15179566714818996,0.6050567499604596,0.3322749181699313,0.2951979010885065,0.5733855179889783,0.6535580604739157,0.45679014987908106,0.37942207859656446,0.3410975724400016,0.2756712787101623,0.3625083566473718,0.3528621479676071,0.3087051684001378,UP
0.25568190633607674,0.12652425365853673,0.14613533221622255,0.38007377572098644,0.3974358787569863,0.5274261812111699,0.1384151476673332,0.7862847299368343,0.10469085221218036,0.15205701853254278,0.7698499306387218,0.1314712216746809,0.6068001391425976,0.33862436889628217,0.3841806406076893,0.5753424553936685,0.6292134897613936,0.4691357828354435,0.3789172886785872,0.34151640702423675,0.2765806416956352,0.34541249627180204,0.37072786311833156,0.3429489075478202,UP
0.28030315567797576,0.12042677073170732,0.14452496465469106,0.38007377572098644,0.4198717753585232,0.5696202712861218,0.1382547955706318,0.7861958576038316,0.1047347576054054,0.13519232863666647,0.7487154539408769,0.13247044110165537,0.6111593263089963,0.32592590088277257,0.31638429518980155,0.5342465635253201,0.6310861518775686,0.4609053635600082,0.378364932727433,0.3415313747805386,0.27687992571617076,0.3506078564841042,0.35157901379469403,0.3169624992605637,UP
0.31249993535354376,0.10899387317073171,0.15297914700977197,0.38376379442715836,0.44551279884636025,0.5991561277056757,0.13777200104641682,0.7854924425426185,0.10501716842505422,0.11843021739075367,0.7158659880736704,0.14171214637167828,0.6224934986260544,0.35661382912882145,0.28107363835430993,0.5596868664301232,0.6198502037123534,0.4485596551304016,0.3786562285895236,0.3412614299826742,0.27627368372585587,0.38309587174021376,0.33971603269137396,0.27721735257376107,UP
0.2809343636771733,0.1006098731707317,0.1481482092204838,0.35977856407320097,0.42307690854290003,0.5232067644652768,0.13736090867926365,0.7852433163751055,0.10498176084987264,0.12761839391383564,0.7399791672481849,0.13234419563641936,0.613775124293257,0.3269839259509016,0.3192092634428974,0.5518591039933592,0.6179775293302613,0.4485596551304016,0.37817135003427144,0.34120628561735167,0.27652692405092405,0.3502464343759865,0.3502650783916349,0.31577592116389075,UP
0.28977282718088687,0.10442083902439012,0.13446057963338495,0.37269368996915825,0.32051281459155184,0.5611814516129032,0.1367942443592132,0.7846557189819011,0.10480727231937742,0.11590416536860339,0.7391444393787745,0.12302566865776352,0.6224934986260544,0.3269839259509016,0.3319207527849049,0.598825819611981,0.5486891536909617,0.49794235677065085,0.3777856595637058,0.3408520487182087,0.27686841479230473,0.3451845426569929,0.3460403015315223,0.3151913313684618,UP
0.27272736675848197,0.1021340097560977,0.14855071866321357,0.39852394901199534,0.33974357171063524,0.5569620395929603,0.13671645838276422,0.7842950296729592,0.10481633665862397,0.13288578648275123,0.7468873821844082,0.1318370649164926,0.6207497523383896,0.3470898697588912,0.3206214583038042,0.5479451856027673,0.5355805311436546,0.4279835166434676,0.37767135359250564,0.3404122067567078,0.276714935807414,0.3656339641107185,0.34780573789355146,0.3004513172408753,UP
0.28851015259666707,0.13643301463414634,0.13285021207185346,0.4022139906794223,0.3974358787569863,0.5991561277056757,0.13663476137956673,0.7842661934372508,0.10481237101020358,0.13108158421960442,0.7520459472499836,0.1265927745691135,0.6041846982638637,0.3492063533343415,0.3375706892910966,0.5616438038348134,0.5561797776238269,0.45679014987908106,0.3776208377278141,0.340483894431627,0.2770372416756828,0.3667823217412643,0.36447972089577996,0.3184692098642566,UP
0.2752524573410964,0.12423773658536574,0.15901777802255565,0.4317342793048154,0.34935897126376575,0.5611814516129032,0.13706931990721316,0.7839853946829762,0.10508628401180853,0.1491016558642482,0.7487699505055995,0.14409227630243676,0.6068001391425976,0.3343914017453816,0.26977376534192654,0.5538160413980494,0.5842696725686989,0.44032922582780676,0.37761198823326947,0.3402698817757326,0.27681469714759255,0.3701041675338814,0.3467164260957037,0.29559713411812194,UP
0.26388890325476805,0.12195121951219512,0.15781008479906022,0.41512911053294405,0.35256408345455376,0.6075949611974618,0.13748910344491921,0.7839055041283088,0.1053644459224354,0.15305874337354589,0.7574384487885146,0.14123590549962833,0.6111593263089963,0.2698410366097045,0.28531080146831256,0.5479451856027673,0.582397010452524,0.4197530892816133,0.3762698148940163,0.33987021642325244,0.277405591239419,0.31147152449695253,0.3379255546788196,0.33429141105361854,UP
0.26010113808793356,0.10137194146341452,0.16787446982036633,0.4077490453253967,0.3141025482227982,0.5358649898295342,0.13782892821353862,0.7835325239648027,0.1056185306819384,0.1514909363531137,0.74959005734545,0.14550192779511487,0.6059284445515285,0.33756591038896094,0.27966086496212084,0.5538160413980494,0.6029962691986137,0.5390946283535727,0.37629894448022544,0.33979143875850604,0.27745163493488645,0.3705782449791729,0.3497657478801617,0.2986627508429575,UP
0.27020201759004225,0.1036584585365855,0.15378433079053772,0.4298892578668583,0.3237179267823399,0.5991561277056757,0.13800796632692885,0.7831548165495411,0.10576186054627358,0.13831612291539494,0.7475302644235348,0.1359486379725945,0.6120313780055922,0.3280423844582228,0.2909607379745042,0.5440313018207845,0.58988764910449,0.5061728488238573,0.3760164981126793,0.3395960701499349,0.2775475593004426,0.35851256103705803,0.3460936402471411,0.30432074493442485,UP
0.26199502067135094,0.12271328780487795,0.14492763899272712,0.40590401663651693,0.35576921663893063,0.662447295982666,0.1382178580957819,0.783241325256666,0.10588762825331874,0.14613278489637016,0.7639434777580912,0.1307373863320748,0.6233651932171235,0.31640194151284234,0.32344642655690004,0.5342465635253201,0.5543071277735692,0.40329216986655253,0.37524327352685133,0.3392116351459724,0.27770487525995463,0.33811930206814045,0.34223772689926524,0.3167780750989105,UP
0.267045460422405,0.11737818536585352,0.1493559024439793,0.4132841011798581,0.3461538380793889,0.662447295982666,0.1384129748746949,0.7831335439166415,0.10608279480771975,0.14374857001984867,0.7564371297944239,0.1341374184575167,0.6015692573851299,0.3227513922391932,0.2937851276963174,0.4794520482977243,0.5280899072107893,0.4609053635600082,0.37464261408464156,0.3389989354511571,0.2779542786104015,0.35553495823955844,0.3539907751567795,0.31565761132433984,UP
0.2866162700132499,0.11128039024390234,0.15942028746528542,0.40405900365796965,0.291666657919338,0.6877637411837538,0.13842079692819254,0.7823923108413845,0.10651646678854412,0.1372050652746364,0.7350784639766631,0.143852947133234,0.6163905651719909,0.3248678758146435,0.3319207527849049,0.4951076372612695,0.516853946779657,0.4279835166434676,0.37389003831941753,0.3386972169951783,0.27824205170706995,0.34468800021777823,0.35051223948231897,0.320619665183154,UP
0.2929293843485241,0.14024398048780476,0.14291476198846587,0.37269368996915825,0.3076923028476333,0.628692017289792,0.13827174335321016,0.7819720581603237,0.1066799081555828,0.1372050652746364,0.7461585460139306,0.13599510704809611,0.6207497523383896,0.3322749181699313,0.29943506420250915,0.5107632005888078,0.5711610622873089,0.49794235677065085,0.37350840386718476,0.33837055227869656,0.27820368196084727,0.3582043281057292,0.3415999160603875,0.2995222370302836,UP
0.29229791776350156,0.1120427707317073,0.13446057963338495,0.40405900365796965,0.37820511324046746,0.7004219914214332,0.13789237375857505,0.7816411505374412,0.10671389942775707,0.1182524988243557,0.7397975120324427,0.12455055271339104,0.6085438854302625,0.3365078853208319,0.3389828841520034,0.5264187651981465,0.5786516948063162,0.48148150743788826,0.373119394836165,0.3384524810500328,0.2786449340424054,0.3545768923222447,0.35964718317741984,0.32285015362880615,UP
0.2708334841750646,0.10442083902439012,0.14855071866321357,0.40959405830394396,0.34935897126376575,0.6835443520749961,0.13789411199268556,0.781421333330812,0.10687790731599803,0.13497577370896535,0.7491877575018066,0.13194880558359512,0.613775124293257,0.34074085247173247,0.3290963630630917,0.5166340256208817,0.5655430759387842,0.48148150743788826,0.3728078188824098,0.33837580412301294,0.27884829369738484,0.35954826333042994,0.3541229950715528,0.31253979908205454,UP
0.28851015259666707,0.1166158048780489,0.1481482092204838,0.4335793007427724,0.3717948510704316,0.6919831579296469,0.13794886636716908,0.7810738803267854,0.10713425816031295,0.1314176031717486,0.7395073067487569,0.13587691980404565,0.5893633904770027,0.3301588680336732,0.3248586214178068,0.5185910014795821,0.5561797776238269,0.5390946283535727,0.37244941435335643,0.3386181767382161,0.27963487349494603,0.35679464973704716,0.37067677815126016,0.33363374753376157,UP
0.2657827858381852,0.10442083902439012,0.15458934967599725,0.38376379442715836,0.28846152473496117,0.662447295982666,0.13794712813305823,0.7807027910639813,0.10734642035080129,0.14148888478011426,0.751002094351719,0.1361329026303646,0.5937225776434014,0.34285690260799057,0.34604501551910183,0.5009784622933433,0.5561797776238269,0.5020576432293492,0.37213931331535877,0.33892147074748974,0.2803063440538402,0.3614987533910577,0.37349221091981244,0.3330630765429861,UP
0.2714646921742621,0.1135672195121951,0.14492763899272712,0.4132841011798581,0.3012820364788797,0.6202531837980058,0.13799797148079293,0.7804470467440107,0.10736681511410594,0.13673902893899903,0.7532010085852028,0.13055070420794948,0.5937225776434014,0.3470898697588912,0.32344642655690004,0.5068493129614241,0.5280899072107893,0.45679014987908106,0.37205376820142827,0.33903674873023537,0.28061330202362056,0.3706416755502502,0.36934932025691736,0.3209502367936642,UP
0.2765151319253162,0.12804870243902453,0.14895339300124955,0.38929885269859404,0.33333332633547036,0.6202531837980058,0.13807097731343748,0.7802754475052873,0.10752402474791228,0.14376334472251823,0.752798708741559,0.13675875780908767,0.5893633904770027,0.35238086197792085,0.27118653873411563,0.5303326797433374,0.5580524397400017,0.6049382682771938,0.37246748207138497,0.33910265937640655,0.28073608521153226,0.3884917650600363,0.3626143683481551,0.29897244424648844,UP
0.2828282462605904,0.1120427707317073,0.14895339300124955,0.41143907974190097,0.37820511324046746,0.6202531837980058,0.13803186704594927,0.7800286849636521,0.10764186115811665,0.1326856947951676,0.7421599159600943,0.13505148934730016,0.5867479495982689,0.3312168931018023,0.3192092634428974,0.5342465635253201,0.5149812846634821,0.5349794227590645,0.3722466134367111,0.33923684399869125,0.2814382515674033,0.3596377929385652,0.3716576596023336,0.3324610882417422,UP
0.26830813500662487,0.12271328780487795,0.1634460414738078,0.41881915340885817,0.38141024432548537,0.6202531837980058,0.13847989688795265,0.7800107214069812,0.10799168800091093,0.1548038468260139,0.7521208246437897,0.14646783990785697,0.6129030725966612,0.33333337667725255,0.2909607379745042,0.5185910014795821,0.5280899072107893,0.5802468999364947,0.37203385683870305,0.3388584486156927,0.2815341759329606,0.3628139466382392,0.3461139239840665,0.30083756406999757,UP
0.28030315567797576,0.0945120780487805,0.14734302543971806,0.4225091841999012,0.37820511324046746,0.5907173218510249,0.13832215214241705,0.7796944682645407,0.10796307868016436,0.12448615694786708,0.7386508688657581,0.1306533122243751,0.614646818884326,0.3439153611153118,0.31497152179761245,0.5225048762889624,0.6086142432812212,0.6954732495867839,0.37190332679417143,0.33884348085939076,0.28194473221754074,0.36557780162591047,0.350991536673372,0.3040980440599765,UP
0.2720959001734594,0.12804870243902453,0.155394533456763,0.4335793007427724,0.4358974202868186,0.5907173218510249,0.13875627611153565,0.7799019946166057,0.10816079457997844,0.15023761943236427,0.7539480102772547,0.14136403121647445,0.6015692573851299,0.33756591038896094,0.29237293283541066,0.5264187651981465,0.6086142432812212,0.629629609663163,0.3718587105925094,0.3389225211163531,0.28224785321269874,0.3684037657144284,0.35566681282643364,0.3071149449685257,UP
0.2714646921742621,0.1250001170731707,0.15458934967599725,0.4317342793048154,0.45512819839949076,0.624472600543899,0.13912521630150704,0.7801473389827143,0.1083729567704668,0.14855288119366084,0.7536795150071576,0.1401453595658874,0.6181343114596557,0.35661382912882145,0.3248586214178068,0.5459882443526761,0.6385767880763509,0.6707818812460848,0.37200435852355473,0.3390209931972861,0.28247807169003375,0.37334540364242125,0.3519736702069718,0.29893416753369223,UP
0.2815655716763706,0.12652425365853673,0.14452496465469106,0.4409593744097296,0.4839743340781158,0.5570190032943466,0.13931989852189258,0.7804172650579513,0.10834802983753868,0.13750309213420142,0.7498505775085146,0.13360396421505144,0.614646818884326,0.32063490866374295,0.4279662022024685,0.5675146673208976,0.5973782865298641,0.6625513891928784,0.37097118003548124,0.33939019785273095,0.2841893623715573,0.3165743817931002,0.3711525695112396,0.36721982316158697,UP
0.2720959001734594,0.11051832195121951,0.16143316446954667,0.43911436505664364,0.48076922188732774,0.5274261812111699,0.1396684144610649,0.780581300693866,0.108485694489845,0.14561946951218985,0.7456268722117584,0.1434153857228734,0.6181343114596557,0.36190482134785107,0.3432206257972883,0.5890410813165166,0.6310861518775686,0.6172839120154484,0.371304142267719,0.3395409257846125,0.284354352280314,0.3734174237699986,0.3564703993917884,0.3039866936227513,UP
0.27272736675848197,0.1250001170731707,0.15861510368451964,0.45756454318160095,0.528846135678625,0.5907173218510249,0.140186408226019,0.7809878443448358,0.10871598535882604,0.15051285103638207,0.7511926107974974,0.14355210687565018,0.613775124293257,0.33756591038896094,0.3361584944301902,0.5577299290254331,0.6104869053973961,0.6378600478069092,0.37110281626683106,0.3396052608774887,0.28488001780356226,0.35506352373472855,0.3551376827508353,0.3173417866873592,UP
0.267045460422405,0.13643301463414634,0.15901777802255565,0.44280439584768666,0.506410224381576,0.5316455813747817,0.14081869088374416,0.781522496518379,0.10888509193789357,0.1592999999155731,0.7595571688901708,0.1449383895268912,0.6233651932171235,0.344973386183441,0.30932216382270344,0.5890410813165166,0.6741573069540882,0.5473250664973192,0.37126874428954093,0.3396000090331722,0.28469200604707123,0.3660641026708366,0.34320408419303405,0.29491511269012227,UP
0.26893934300582245,0.1250001170731707,0.14895339300124955,0.46678963828651515,0.4615384437746556,0.5316455813747817,0.14127150086955162,0.7818425314622239,0.10884940110211044,0.1462180560374923,0.7577592253158253,0.1352671810676929,0.5980817648098001,0.2931214890612734,0.31497152179761245,0.5909980315392102,0.593632972110248,0.6172839120154484,0.3705626283706756,0.3396464878553726,0.285735663144324,0.32611969163756455,0.35687632454680246,0.34314029111179917,UP
0.26893934300582245,0.13567063414634137,0.1336553958526192,0.4464944266387296,0.4166666421741464,0.48945148577240266,0.14153658157141563,0.7822249661292411,0.10852223510743235,0.14159104129571595,0.7671583320152253,0.12454679221017119,0.6207497523383896,0.35238086197792085,0.2966100959494133,0.5772994056163621,0.6104869053973961,0.4855967130323964,0.37092767002063737,0.33946739996418246,0.2852522043419198,0.37606432864224615,0.3436438155762572,0.28731196564839,UP
0.26452011125396535,0.13567063414634137,0.14855071866321357,0.41697413197090105,0.42307690854290003,0.5232067644652768,0.14188553206911575,0.7825795100109009,0.10849475882909115,0.1534800334668122,0.7651858222091666,0.1360394272646155,0.6015692573851299,0.35238086197792085,0.35875708339239165,0.5577299290254331,0.6329588017278261,0.41563787290521315,0.3709472126544231,0.3399353392927762,0.28552846651472225,0.36487279725779065,0.3713959743543449,0.327937476729498,UP
0.26957080959084473,0.13567063414634137,0.14452496465469106,0.41143907974190097,0.4006410098420043,0.48945148577240266,0.14208542899183282,0.7827945999657746,0.10836927438264754,0.14825189939356156,0.762655497972329,0.13345811041159777,0.6120313780055922,0.3502643784024706,0.34039565754419243,0.5440313018207845,0.6310861518775686,0.4444444414494744,0.37092398273124383,0.3401393734444694,0.28553997743858933,0.36532176676869726,0.35909476436683313,0.31350367630427906,UP
0.2651515778389879,0.1150913560975611,0.15619971723752873,0.4022139906794223,0.3653845972978312,0.5696202712861218,0.1422331788912325,0.7827213275635648,0.10847804645360576,0.14802859031606888,0.7546338694820567,0.13902526682113392,0.6129030725966612,0.33333337667725255,0.34604501551910183,0.5401174193206023,0.5730337244034839,0.45679014987908106,0.37052317437416465,0.3401181034749879,0.28582007658601305,0.3491360690145756,0.35726572221246994,0.324593483911602,UP
0.2733585747576792,0.12728663414634134,0.15942028746528542,0.39852394901199534,0.368589730482208,0.5189873477193836,0.14243655228217092,0.7825866008885342,0.10862675826936824,0.15182822170834398,0.7511903954899883,0.14464963660108535,0.615518513475395,0.33756591038896094,0.3050850007087008,0.5518591039933592,0.5299625570610469,0.4362140113921471,0.37047634579886646,0.3397567765860176,0.2855706732355673,0.3624023086613519,0.34747819310468137,0.3027096432958335,UP
0.2720959001734594,0.13338411707317074,0.14734302543971806,0.41881915340885817,0.3974358787569863,0.5991561277056757,0.1426568734556877,0.7827123457852295,0.10870465493476796,0.14763262828452192,0.7587942169840537,0.1357144123434758,0.6111593263089963,0.3534388870460499,0.30084725906341586,0.5185910014795821,0.591760309994073,0.40329216986655253,0.37063563670066796,0.33969349186200465,0.28509488838240776,0.37790150263058464,0.35207609055762,0.2953848723471627,UP
0.2784090145087336,0.13871953170731696,0.15016108622474506,0.3671586377401581,0.41346152998335833,0.5527426291759712,0.14262297789053133,0.7827988544923545,0.10879529832723267,0.1487892764363755,0.7545953231313992,0.13969033867629224,0.6172622597630598,0.3492063533343415,0.29943506420250915,0.5499021281346588,0.5505618035412193,0.40329216986655253,0.3708229510018604,0.3393849460084145,0.28456922285915953,0.3733698508416905,0.34651008289537577,0.29272290095726633,UP
0.267045460422405,0.13262204878048792,0.1497585767820153,0.392988894366021,0.33333332633547036,0.5654008628313694,0.14278159175312222,0.7827690728062952,0.1088437358900812,0.1514495671856387,0.7616541789782382,0.13687049847619018,0.5954663239310664,0.34074085247173247,0.35451992027838936,0.5518591039933592,0.582397010452524,0.44032922582780676,0.37065407314763577,0.33975152474170117,0.28510256233165254,0.3572062877139344,0.3736261837501224,0.3366854454539446,UP
0.26452011125396535,0.11585373658536573,0.1682769792630961,0.3450184167392867,0.34935897126376575,0.5654008628313694,0.14278767557250902,0.7825648555304591,0.10914087626100541,0.15652657715729654,0.7509560159555307,0.14872145576600648,0.6259806340958574,0.3322749181699313,0.33333352617709433,0.5792563430210522,0.6329588017278261,0.3580246657343924,0.3704129244212974,0.3396551533984948,0.28487234385431753,0.34861673121388,0.3443096730637233,0.31042414077478997,UP
0.2676769270074276,0.1181402536585367,0.1469405159969883,0.38007377572098644,0.3589743498233074,0.5696202712861218,0.1426846852014569,0.7825270375164153,0.10909413826176574,0.1422347961977513,0.7570857718330739,0.13239442521514122,0.6224934986260544,0.33333337667725255,0.3389828841520034,0.5557729788027395,0.5786516948063162,0.40329216986655253,0.37007701235754475,0.3394758029150887,0.2848416480573396,0.3488440240935738,0.3483261033914659,0.31474592961956405,UP
0.2329545395775949,0.13033521951219515,0.14855071866321357,0.41143907974190097,0.3461538380793889,0.5569620395929603,0.1432600406920606,0.7831203076117261,0.10899924596027909,0.16725976544526316,0.7882201466267732,0.1309769841086505,0.6094159371268584,0.34285690260799057,0.3573448885314852,0.5870841439118265,0.5393258553760043,0.4691357828354435,0.3700287088664892,0.3394957599234911,0.2852138345956982,0.3552680212529414,0.36364458185076326,0.32683789116190665,UP
0.2765151319253162,0.11585373658536573,0.1425120876504299,0.4132841011798581,0.317307681407175,0.5105485418647329,0.14314662091634478,0.7828007453930567,0.10880776179369693,0.1336460504686957,0.7508607577326415,0.12962185991265956,0.598953816506396,0.3142854579373921,0.3177964900507083,0.6086105579074456,0.5393258553760043,0.37037039033683705,0.3697989907372708,0.33943247519947817,0.28549009676849957,0.3430133670678253,0.3596907556493338,0.33235669720684374,UP
0.25441923175185693,0.12347566829268292,0.1638487158118439,0.41697413197090105,0.26282050124712414,0.47257384642596567,0.14364983969135914,0.7825710009577411,0.10888820780450933,0.16254832383108866,0.7632195152641331,0.1450409975433168,0.6006975627940608,0.30370347349933274,0.307909390430514,0.5792563430210522,0.5318352191772219,0.5061728488238573,0.3692860887826277,0.33925837656038865,0.28604262111410333,0.336195571779686,0.3549195699747606,0.3325863574836189,UP
0.2828282462605904,0.11051832195121951,0.15217396322900623,0.4077490453253967,0.2660256344315009,0.4978902916270535,0.14350382802606998,0.7818968948574118,0.10884996762331313,0.13404834451567244,0.7404634334696631,0.13740422132602875,0.6129030725966612,0.34074085247173247,0.3375706892910966,0.5557729788027395,0.4662921555043549,0.4197530892816133,0.3691736264561244,0.33890387706902975,0.28606564296183756,0.35762684561487945,0.35653876309772237,0.31684070971984934,UP
0.2796716890929534,0.1006098731707317,0.15619971723752873,0.4132841011798581,0.291666657919338,0.5232067644652768,0.14338258619685681,0.7812445341151576,0.10887092890782085,0.13351729948828858,0.7380868515739539,0.13864733624754425,0.5945946293399973,0.34074085247173247,0.34463282065819506,0.5401174193206023,0.5411985174921793,0.4197530892816133,0.36904678370098615,0.339121040831514,0.28644166647481745,0.3598386564136434,0.3722271067352774,0.3329517261057619,UP
0.25568190633607674,0.1250001170731707,0.14895339300124955,0.392988894366021,0.3269230599667167,0.5696202712861218,0.143560320634664,0.7813655517600975,0.1088530834899293,0.15311024376570856,0.768272188630776,0.13350323645023515,0.6068001391425976,0.3301588680336732,0.37711850924059087,0.5283757384932463,0.5505618035412193,0.4897119186269045,0.3684276878118086,0.33927544505441704,0.2872128983738902,0.33988049151820926,0.3680328806888057,0.3444034226340644,UP
0.2796716890929534,0.13871953170731696,0.15619971723752873,0.4206641748468152,0.3141025482227982,0.5570190032943466,0.1438588623431569,0.7810809712044186,0.109053631995758,0.15207221536957446,0.7513472392616292,0.1447415003225973,0.6024409519761988,0.33862436889628217,0.3474577889112909,0.5166340256208817,0.5561797776238269,0.48148150743788826,0.36812201152108315,0.3394109426377809,0.28762729163309275,0.3556099516751551,0.36643772755034815,0.3297469213343961,UP
0.28977282718088687,0.1135672195121951,0.1409018849842046,0.38929885269859404,0.35256408345455376,0.5654008628313694,0.14341908911317894,0.7806881365835394,0.10894514318540131,0.12453343599641001,0.7400469556579616,0.12969277225909,0.5911071367646675,0.35767185419695047,0.26129943911392167,0.5303326797433374,0.5805243569224912,0.47325101538468173,0.3687602813151071,0.3394860440115057,0.28715150677993434,0.3949230303056731,0.359952941730333,0.2908229841221234,UP
0.2708334841750646,0.1120427707317073,0.1453301484354568,0.38376379442715836,0.41346152998335833,0.5780590909593404,0.1432118046954917,0.7807751180158399,0.10887404477443662,0.13658832697176834,0.7530220117384714,0.13055285306693212,0.615518513475395,0.3513228369097918,0.3644070198985834,0.5420743605706934,0.6273408276452186,0.47325101538468173,0.36864265678345276,0.3397378699464784,0.2873548664349127,0.3595072977532759,0.3615025190648346,0.32095371649482757,UP
0.2714646921742621,0.13109760000000012,0.17632848728014092,0.3874538397200467,0.42628202073368804,0.6033755444515687,0.1436224625041174,0.7807963906487395,0.109435184025915,0.1656801386626951,0.7477274267918402,0.15854254713925084,0.5919791884612634,0.3322749181699313,0.3418078524050992,0.5362035047754113,0.6423221000427835,0.5473250664973192,0.36837643448923824,0.340262004009258,0.2880838916131404,0.3538583428842594,0.3724780240735403,0.3380808056204133,UP
0.2796716890929534,0.10670735609756109,0.15901777802255565,0.39852394901199534,0.4038461430263811,0.5780590909593404,0.1435194721330653,0.7805605007861419,0.10959522626573598,0.1383030367501733,0.7391741244993957,0.14187760851334957,0.6120313780055922,0.3227513922391932,0.3375706892910966,0.5440313018207845,0.636704125960176,0.5555555585505255,0.36789266212080407,0.34038621012734155,0.28858269831403305,0.3423988834105138,0.35475880257838854,0.3272867726119678,UP
0.2784090145087336,0.1036584585365855,0.15579720779479897,0.3911438813874737,0.4423076866555722,0.4852320690265096,0.14331914065182041,0.780480137506299,0.10954423935747437,0.13537975629338997,0.7402897533609539,0.13864303852957854,0.5475152651006805,0.3492063533343415,0.2951979010885065,0.5459882443526761,0.6629213587888731,0.4650205772409354,0.3684652981636229,0.3415129933254311,0.28917359240585955,0.38890142083157736,0.3987514733881128,0.34068710179169864,UP
0.28851015259666707,0.13338411707317074,0.1634460414738078,0.3874538397200467,0.3910256270837449,0.5021097083729466,0.14339779574532432,0.7802201386597484,0.10977792935367311,0.14965380760973168,0.7397345972991856,0.15091409775052084,0.6059284445515285,0.35661382912882145,0.3488699837721977,0.5636007796935139,0.6479400863913083,0.4444444414494744,0.3686795296773883,0.3418937520383721,0.2892157991267046,0.3700331385089771,0.3664945720970404,0.3181629961618901,UP
0.2784090145087336,0.13719508292682916,0.14412245521196138,0.37453871140711525,0.3974358787569863,0.48945148577240266,0.14329219802310644,0.7803397381291616,0.1096430973073814,0.14411413837733228,0.7562873750068121,0.13455295406330442,0.5806450161442054,0.3280423844582228,0.2937851276963174,0.5792563430210522,0.6161048794800036,0.45679014987908106,0.3688299710846452,0.34225350337404736,0.2894843873502623,0.36440532716365304,0.3706394660919775,0.32744335916431494,UP
0.2746212493418991,0.1196647024390245,0.13164251884835795,0.38007377572098644,0.4487179320307371,0.5021097083729466,0.14291630489669235,0.7806555185464267,0.10924738224715169,0.1294783179127649,0.7576502321863801,0.12115562412803323,0.6041846982638637,0.3640213049233015,0.3615820516454875,0.598825819611981,0.6423221000427835,0.4855967130323964,0.36926838979353865,0.34270805049963426,0.2896685621321298,0.3737256567013274,0.3715635029963587,0.32102679021925556,UP
0.26262622867054825,0.09679890731707326,0.1425120876504299,0.3763837328450723,0.41346152998335833,0.5147679309734905,0.14257430733543497,0.780795917923564,0.10895619034885827,0.13169536758193826,0.755193013097341,0.12483339627699439,0.6068001391425976,0.3322749181699313,0.31497152179761245,0.6223091838302938,0.6404494501925259,0.5185184925621118,0.36940666314579684,0.34280022036738755,0.28979518229466394,0.3572878885006849,0.35551681333978746,0.3159568656243806,UP
0.2594696715029113,0.09375000975609768,0.15297914700977197,0.38007377572098644,0.3717948510704316,0.4852320690265096,0.1424065677437634,0.7807486454060093,0.1087921824606169,0.13856560432333123,0.7528563067367944,0.13234177817006376,0.6198780577473205,0.31851842508829264,0.33333352617709433,0.5636007796935139,0.582397010452524,0.52263372511135,0.36889044263069953,0.3425447181413933,0.29007911841671,0.33815696396971756,0.34721625744018747,0.3223107999485001,UP
0.283459712845613,0.1196647024390245,0.17914654806516794,0.39852394901199534,0.3301281931510936,0.5485232234849323,0.14268989990378877,0.7801426117309588,0.10931451500969601,0.15587606810546928,0.7332335558831257,0.16055871407980768,0.6094159371268584,0.3502643784024706,0.3559321151392958,0.5362035047754113,0.5767790339167331,0.4362140113921471,0.3688019476852542,0.34263636282471505,0.2901712058076449,0.3620319666291764,0.3643747963800792,0.32218553070662337,UP
0.2796716890929534,0.13033521951219515,0.1493559024439793,0.3560885211972869,0.37820511324046746,0.5485232234849323,0.14248826474696089,0.7800858847098932,0.10934822302126873,0.14349908861191238,0.750934305941942,0.13786891208104624,0.6233651932171235,0.33862436889628217,0.33474572103800077,0.5557729788027395,0.6104869053973961,0.44032922582780676,0.36866920526708635,0.3425205596575378,0.28999086800039864,0.35427658821230046,0.3474979760085963,0.3093628319199948,UP
0.2550504397510542,0.09832304390243893,0.1280194391778715,0.35977856407320097,0.43269228710244173,0.5780590909593404,0.14185380929659738,0.7806484276687935,0.10890718626480667,0.1272034358359991,0.7669026855286809,0.11240170984709237,0.614646818884326,0.3343914017453816,0.28107363835430993,0.5812132804257423,0.6666666707553057,0.43209879771121995,0.3688465638869162,0.3424297027508636,0.28947671340101755,0.3657684237067002,0.3429406460295086,0.2948594374715102,UP
