xa_S1,ya_S1,za_S1,xgb_S1,ybg_S1,zbg_S1,tilt_x_S1,tilt_y_S1,tilt_z_S1,tilt_accx_S1,tilt_accy_S1,tilt_accz_S1,xa_S2,ya_S2,za_S2,xgb_S2,ybg_S2,zbg_S2,tilt_x_S2,tilt_y_S2,tilt_z_S2,tilt_accx_S2,tilt_accy_S2,tilt_accz_S2,Posture
0.9117177165488929,0.9359376000000001,0.9651130183898461,0.4716049454595326,0.6715329024357554,0.8217391391020805,0.9855844459100102,0.022630510172023468,0.9907206413331495,0.9543372375013508,0.0565996876025523,0.9659882860728753,0.042269913544753374,0.8568937885206223,0.886330967475396,0.26160340666292464,0.5245901111260417,0.4605808464394496,0.9580684133017047,0.9946367985090871,0.9882768355735122,0.8676510374341644,0.9594205913918036,0.9113260589888976,S_LF
0.9004816580714216,0.92343744,0.9745496311942471,0.5037037090946495,0.5863747406494764,0.7956521664839312,0.9857262052149434,0.021839667099604155,0.9908730743297302,0.9569299096292021,0.057976768424425174,0.9670804818376831,0.039953669425430625,0.8638741434500466,0.9035972316927916,0.26160340666292464,0.5035128094683241,0.3983401591949098,0.9573029744530376,0.9944285809842013,0.988251998360744,0.8707981996425185,0.9655904300487189,0.9231465632571079,S_LF
0.9109149530965236,0.9343750400000002,0.9662567828070315,0.5555555555555556,0.7318358216162436,0.8173913055860116,0.9859852577518774,0.02183545408475864,0.9910267366246704,0.9545707900024485,0.0562942866138306,0.9661790180677359,0.034163296301413945,0.9040142223391372,0.9597124430611683,0.2151899458339932,0.5152224146827991,0.4107883129508731,0.956990802388028,0.9947026901308865,0.9890260914920126,0.8941845762950924,0.9869965838865615,0.9577284106278245,S_LF
0.9301766737059138,0.9640623999999999,0.9702602510896127,0.5802469010013735,0.7318358216162436,0.7478260832419656,0.9866048250693774,0.02153031143809457,0.9913215633478957,0.9694487340291806,0.04239743107793791,0.9771158889170583,0.03300517424175257,0.8638741434500466,0.9395683699154339,0.17299584531057363,0.48711938671138466,0.39004141720269314,0.9559396467340983,0.9947341298475736,0.9896180450629831,0.8675787581107189,0.9780367320693141,0.9523587862083119,S_LF
0.9157305476148523,0.9593750400000001,0.9725478970529565,0.5530864161591226,0.6253041805734645,0.7434782497258967,0.98715171375846,0.02089354433716654,0.9915741841607776,0.9705221180715607,0.052290757288949885,0.9755704103249587,0.03821660492308366,0.8848166379065083,0.9553960243449786,0.14346001916358447,0.5269320198972739,0.3568464302089287,0.9549819663312727,0.9948939640958812,0.9901686032793401,0.876560969868055,0.98105794313548,0.9541364434393452,S_LF
0.9165329823352593,0.9773436799999999,0.9651130183898461,0.4814814868724272,0.6788321684373182,0.7130434435916787,0.9875334564552473,0.020677476861520615,0.9917987359944501,0.9732638808150469,0.05922891247818477,0.9755368556221592,0.0283729231773974,0.9092496672447292,0.8834531585470572,0.2151899458339932,0.6065573169482094,0.340248900021172,0.9550395800080542,0.9950903211288432,0.9897546497332068,0.9202633577460094,0.9736500139251867,0.9145295072773987,S_LF
0.9020868562441978,0.9437500799999998,0.9599656685611068,0.39753087677640425,0.7201947039344145,0.7304347776559541,0.9871693437227791,0.020881507151893824,0.9918540544206286,0.9551114144596011,0.0691960902010151,0.9636820379909877,0.01968736349137252,0.8516583436150305,0.8618704756134719,0.2911392328099138,0.6908664468811876,0.228215744516277,0.9547891368824534,0.9952478962358319,0.9892165101232342,0.8862418817520308,0.9673239700728615,0.9186346126356606,S_LF
0.9213485768535881,0.93984384,0.97197607340885,0.40000001617283715,0.6909976223977495,0.7434782497258967,0.9870124730198581,0.02042228853373847,0.992025541541782,0.9603538645245036,0.04487617655730905,0.9717212345932895,0.03937472698274504,0.8987787774335454,0.8647482845418107,0.3375527489131009,0.6604214794593842,0.18257251407774497,0.9552141847223814,0.9952062903832101,0.9880533006586,0.9082408969462488,0.9613412577763176,0.8939453361238274,S_LF
0.9173357457876286,0.9570313599999999,0.9725478970529565,0.4419753228381324,0.7299270655090856,0.7304347776559541,0.9871855345063375,0.02031275014775658,0.9922445615328368,0.9692521122310385,0.05058051175210774,0.9752595878148157,0.04574404254944717,0.8865622627644351,0.9007194227644527,0.33333333333333337,0.6674472364522378,0.18257251407774497,0.9550672110571229,0.9952501553771508,0.9872957656691767,0.8852053761762332,0.9640605432144961,0.9120444524265934,S_LF
0.9149277841624831,0.9437500799999998,0.9679726051262688,0.38024693334704796,0.7469586978663414,0.7478260832419656,0.9869523872230972,0.020359695170320217,0.9923691304332682,0.9598204210373696,0.05336798986735054,0.9696186694441851,0.046322984992132755,0.9301921617011907,0.8820145487592063,0.33333333333333337,0.6744729934450915,0.2157675907603137,0.9558397046417224,0.9953171765696095,0.9861905097010012,0.9243084901602242,0.9645972209052096,0.892695478153142,S_LF
0.9157305476148523,0.94687488,0.9628253724265022,0.3851852121399138,0.7372263346979964,0.7956521664839312,0.9866864985775498,0.020418677378156783,0.9924992311763178,0.9572626279067541,0.056460868971315234,0.967584979737669,0.03705848286342228,0.9005236874573779,0.8848923576875452,0.24894513228649423,0.6323184361483916,0.18257251407774497,0.9559472893646916,0.995358970684008,0.985412277034271,0.9066136082892337,0.9675684960670411,0.9083718492400054,S_LF
0.9285714755331376,0.9664064,0.9674006643531897,0.39753087677640425,0.7274939731233253,0.734782582693759,0.9867152821927645,0.020195387591347272,0.9927260367236495,0.9685470093653527,0.04591842684063787,0.9758818215140982,0.03358435385872849,0.9092496672447292,0.8992808129766021,0.22362874935640042,0.6206088309339166,0.1742737720855283,0.9560895598726621,0.9955269001887079,0.9848534397469917,0.9128115602746815,0.9740550101030464,0.9193090228016607,S_LF
0.9173357457876286,0.9703126399999998,0.9599656685611068,0.4024691393964329,0.725060880737565,0.7260869441398853,0.9866929748909731,0.020283259043838403,0.9928530642208,0.9659307426217243,0.060732040617220984,0.9712991517528113,0.03358435385872849,0.8516583436150305,0.9151078780535098,0.20675103176307466,0.5761123648659843,0.26556009707046463,0.955052513690597,0.9955349954451005,0.9849527885980635,0.8632349715475455,0.9706408869924539,0.9383867668996554,S_LF
0.9205458134012185,0.9671875199999999,0.9599656685611068,0.38024693334704796,0.7737226742678542,0.7260869441398853,0.9865753218637823,0.020553493853211337,0.9929624717747976,0.9641033567273378,0.05752477496111703,0.9710152122501745,0.03821660492308366,0.876090658119157,0.9093528495494692,0.17721517797895767,0.6229507550447272,0.2946057348108613,0.9543105906283711,0.9956063466584204,0.984832742069685,0.8804821231649711,0.969465705016067,0.9264306475437172,S_LF
0.9149277841624831,0.9531251199999999,0.9702602510896127,0.3629629737448544,0.7347932423122361,0.6956521664839312,0.9864270862454256,0.020529419482665904,0.9930858113768696,0.965946814316529,0.053417409300071085,0.9728844642903396,0.03879554736576925,0.8778362829770837,0.8805759389713558,0.32911394539069366,0.6323184361483916,0.24481320132228476,0.9542529769515898,0.995541772869057,0.9841993931441015,0.888274235784188,0.9628123233139755,0.9076754474381576,S_LF
0.9149277841624831,0.925,0.9708321918626918,0.36049383434842147,0.6861314344388809,0.6956521664839312,0.9860266341987486,0.020147238850256405,0.9930794600020121,0.9532662471156438,0.04857819181514256,0.9671328742683701,0.048639229111455504,0.8638741434500466,0.8935251951199246,0.40084389693451744,0.6744729934450915,0.2406637895585381,0.9539008280496301,0.9954600672580258,0.983570183753979,0.8665939523287745,0.9578631598416666,0.9084891379645273,S_LF
0.9197433786808118,0.9539062399999999,0.9613955790582908,0.4148148363785977,0.7201947039344145,0.6521738882797705,0.9859129389186498,0.020087654783156224,0.9930694207320758,0.9590288045805014,0.05514098142551189,0.9688141414823253,0.03590036080376091,0.8795811930009164,0.8791367398308675,0.42616033790257973,0.6744729934450915,0.3526970646485055,0.9542253459025212,0.9955050618226259,0.9832224627752275,0.8921572416603966,0.9645005478377433,0.909302828490897,S_LF
0.8924559959395029,0.9585936,0.9651130183898461,0.434567919204387,0.7104623423597435,0.634782582693759,0.986038867235215,0.020442149889438602,0.9930321320151705,0.9670557612580511,0.07634747080783012,0.9685039076511787,0.03937472698274504,0.9022685974812105,0.8589932560377704,0.3755274476753168,0.6112411498302522,0.29045637740396574,0.9548667389777099,0.9953648067990817,0.9822993463673507,0.9123688494185781,0.9604425892061392,0.8898438960382065,S_LF
0.9020868562441978,0.9531251199999999,0.9736917785991147,0.4567901333401906,0.6836983563961867,0.6260869270529269,0.9862918032539157,0.020321176177447393,0.9930862211429894,0.9699226780504419,0.06193143359111027,0.9731703660562981,0.041111791485091996,0.9877834853308894,0.9194248861223365,0.3459916077097637,0.522248187015231,0.28215763541174904,0.9566686361137812,0.9955536333609809,0.9818853928212175,0.9663886087786249,0.9834214574687551,0.9122900256935612,S_LF
0.9237562097467711,0.9546873600000001,0.9694023984944804,0.4567901333401906,0.6885645284183152,0.6695651938657821,0.986437520305941,0.01990228212995592,0.9931989068259455,0.9650789427970767,0.04683185343417873,0.9738324337010091,0.04284885598743883,0.8865622627644351,0.8258993373908299,0.3080168951289839,0.4683840245040561,0.31535263055904117,0.9568990908209067,0.9949218268388135,0.9805772996154372,0.9052136983372242,0.9490223722803058,0.8688125616223963,S_LF
0.9117177165488929,0.97187488,0.9791250402499073,0.46419753859121976,0.725060880737565,0.6999999715217361,0.9869527470182872,0.019839688766537664,0.9934910700693919,0.9817576005438388,0.05343129116319467,0.981313366388313,0.03242623179906712,0.7958119300091642,0.886330967475396,0.3417721368557406,0.4824355384897633,0.3983401591949098,0.9553876136473868,0.9945117926894451,0.9808753461686528,0.8272519150256165,0.9581297216085772,0.9307263470793274,S_LF
0.9470307614221208,0.9609376000000001,0.9745496311942471,0.434567919204387,0.7469586978663414,0.5913043187287303,0.9871053001789262,0.019283570806936965,0.9936580497632269,0.9694668574297053,0.025108958743658157,0.9807880684971182,0.01910818387439673,0.8917977076700269,0.8215829186746402,0.3713080514415388,0.49648705247547054,0.3443982655815952,0.9563429424715679,0.994251614914226,0.9800929739664619,0.9271780796889579,0.9633468685105537,0.888502406251489,S_LF
0.9309794371582831,0.92656256,0.9599656685611068,0.44444445091357937,0.7737226742678542,0.639130416209828,0.9867498225310224,0.019242042517745857,0.9935078704803054,0.9438902939273613,0.0422130799356548,0.963451864503363,0.03590036080376091,0.9005236874573779,0.8877701666158839,0.3755274476753168,0.5573769903869931,0.402489598137082,0.9568114945164126,0.9942194221504327,0.9799729274380828,0.906796816296578,0.9689450210313679,0.9112857409898435,S_LF
0.9325843065990969,0.9296873600000002,0.9702602510896127,0.4716049454595326,0.8077859421697138,0.5652173603497131,0.9866829006256478,0.019249264828909658,0.9934207951798392,0.9531086077261767,0.03497285540484798,0.9699383221392751,0.040532611868116075,0.9075047572208966,0.8719425121863392,0.4683544384259993,0.571428516644363,0.4398339506912696,0.9576986275599139,0.9940929102365779,0.9795838111047177,0.9126680055072829,0.9632702764295281,0.8958366168067409,S_LF
0.9301766737059138,0.9609376000000001,0.9665428117580575,0.449382727442248,0.8053528641270196,0.5652173603497131,0.9867983948816975,0.019443665371064393,0.9934287856191761,0.9651459651839217,0.04424649524601732,0.9744203277921634,0.04284885598743883,0.8673646783318059,0.936690560987095,0.4810126298910462,0.5526931452332874,0.5269709182693104,0.9574528875916013,0.9941136190320006,0.9804158577324452,0.8633800321341826,0.9716918511854606,0.9406262484834934,S_LF
0.8988764598986454,0.9445312000000001,0.971118103684745,0.5111111111111111,0.8077859421697138,0.5130434435916787,0.9870959455039814,0.020094877094319813,0.9932798356346141,0.964313998514565,0.06486217253378995,0.969541748721978,0.046322984992132755,0.8830717278826757,0.9352519511992442,0.48523204547081367,0.5433254615218949,0.45643148903255404,0.9574452449610079,0.994105523775608,0.980900183381421,0.8736522290391218,0.9711450441476044,0.9338161719159479,S_LF
0.8996792233510146,0.9328124800000002,0.9656849591629252,0.449382727442248,0.7688565022457258,0.5304347491776902,0.9869818904286923,0.020522799030765933,0.9930448347648855,0.9546378123892933,0.06576171726420682,0.9641729962740544,0.04284885598743883,0.8830717278826757,0.9064750406211304,0.42616033790257973,0.5690865925335523,0.5062240225211305,0.957498155480501,0.9940511161221794,0.9811692531864076,0.8832257258174214,0.9667659674407951,0.9190267968082803,S_LF
0.9012840927918285,0.9296873600000002,0.9631112842485554,0.486419749492456,0.7299270655090856,0.5130434435916787,0.986915328318508,0.020735255350829956,0.9927520568722593,0.951038778605907,0.06555459986640108,0.9622900083906379,0.0318470521820912,0.8917977076700269,0.8877701666158839,0.5274261459942333,0.5362997010009383,0.47717838478073393,0.958297104324847,0.9940170407406204,0.9812934392502476,0.9028420330366702,0.9704208846808302,0.9165967210470948,S_LF
0.9269662773603613,0.93671872,0.9591078159659744,0.5629629575720172,0.6763990744578838,0.5086956100756098,0.9870211081044225,0.02028085160678373,0.9925172608855907,0.9484129372355864,0.04775249859654364,0.9647043771815463,0.05095547323077826,0.8900527976461943,0.938129760127583,0.3966245007007394,0.46370016094285643,0.5145227373349216,0.9580472490939074,0.9938376272675497,0.9818191602538363,0.8749989333780395,0.9697498598595937,0.930015284186914,S_LF
0.8956663922850553,0.9374998399999999,0.9608236382852117,0.5555555555555556,0.6788321684373182,0.5782608352674822,0.9872326676762521,0.020375343511174832,0.9922984457775959,0.9535572473768943,0.0729808413630658,0.962027850010871,0.041111791485091996,0.8464221838753443,0.8978422031887513,0.32489455744805396,0.4800936143789527,0.44813274704033734,0.9571671707863385,0.9935153231060625,0.9819888812077512,0.8574435907564785,0.9614459276967912,0.9213139269364548,S_LF
0.9004816580714216,0.9554687999999999,0.9628253724265022,0.4938271515089176,0.6666667144768869,0.6478260547637017,0.9874363117538972,0.02034886170357473,0.9922734500442855,0.9629684215133655,0.07061370606320928,0.967573991063068,0.02895186562008299,0.8603843234023816,0.8964030040482633,0.2784809860706112,0.4754097814969097,0.36099579653034786,0.9566668724297981,0.9933884346686546,0.9821544626262041,0.8781064423464477,0.9703798341687261,0.9297220623756098,S_LF
0.9189406152284424,0.9554687999999999,0.9631112842485554,0.486419749492456,0.7031630763581806,0.600058665223768,0.9875661978175544,0.020197193169138115,0.9922488640770951,0.9611653141366628,0.05497439906802725,0.9699932655122803,0.03937472698274504,0.8795811930009164,0.9510796056287892,0.38799791394959154,0.4590163280608135,0.39004141720269314,0.9563635187847043,0.9934023660401208,0.9828581836546306,0.8724641376599871,0.9786837663315285,0.9511125935102679,S_LF
0.9197433786808118,0.9609376000000001,0.9619674027023972,0.4567901333401906,0.7396594191153866,0.600058665223768,0.9876381568555914,0.020260990251083813,0.9922386199240991,0.9627755611757094,0.055910036642566004,0.9706531746673376,0.04979735117111688,0.9267016268194314,0.9035972316927916,0.3417721368557406,0.49180321959342754,0.3734438951684641,0.9568914481903132,0.9932272825879112,0.9824359510375744,0.9138555949466715,0.9669843703818174,0.9033101077223628,S_LF
0.9085073202033404,0.9531251199999999,0.9662567828070315,0.4567901333401906,0.7591241422647287,0.600058665223768,0.9877259468819968,0.020549280838366036,0.9922134193077289,0.9636006888260003,0.06132451853534137,0.9699263523330135,0.04574404254944717,0.8830717278826757,0.824460727602979,0.3122362830716236,0.5175643387936097,0.3817426942353744,0.957024312383707,0.9926709690381482,0.9811858113282529,0.9007148123924907,0.946483282596559,0.8656640924235146,S_LF
0.9141253494420761,0.9523436799999999,0.9639691368436879,0.4370370456625502,0.7007299823787465,0.5999999678480401,0.98769320551969,0.02044576104502029,0.9921732622279844,0.9608780753358984,0.05795955491415183,0.9691971752827033,0.04748110705179413,0.9005236874573779,0.8676260934701495,0.44725738816428945,0.5573769903869931,0.37759332867495116,0.9576151465180468,0.9924194513046514,0.9804448344806749,0.9030121906106148,0.9571036365138156,0.8874651340939995,S_LF
0.9028892909646048,0.92656256,0.9676865761752431,0.4123456808093276,0.6618005424547584,0.5782608352674822,0.9874096869098234,0.020178535531965427,0.9920091508969883,0.9529030952032488,0.06080977905071382,0.9643136905542138,0.006948495183677921,0.8726008380714919,0.8776981300430169,0.5400843927335358,0.5784542736372166,0.36099579653034786,0.9586075127058733,0.9927180344822906,0.9808049740658102,0.9082915928606099,0.9810279105097415,0.9370049591138833,S_LF
0.8996792233510146,0.9460937600000001,0.9631112842485554,0.48395061009602297,0.5790754746479135,0.5565216933175754,0.9874913604179958,0.019647695661437387,0.9918524153561493,0.9588786881120067,0.06957090050535533,0.9656156522681018,0.03821660492308366,0.8656197683079734,0.9251799146263768,0.5147679545291863,0.4590163280608135,0.340248900021172,0.95856577218494,0.9925986765159455,0.9811319973672555,0.8683517453197884,0.9717602687056344,0.9380568923619379,S_LF
0.8988764598986454,0.9624998399999999,0.9705462800406386,0.4938271515089176,0.6009732885893418,0.6086956243147419,0.9878860557416297,0.01921736628793681,0.9919101923790468,0.9722913723038877,0.06811941289713938,0.97308971703378,0.03705848286342228,0.8935426176938593,0.9237413048385262,0.45569619168669667,0.4168617707641135,0.39419080178801424,0.9588920537218142,0.9924870372824397,0.9814755788105463,0.8919288590758988,0.9756032008452638,0.9337795191895347,S_LF
0.9109149530965236,0.93984384,0.9682585169483222,0.4666666666666667,0.5401460028504453,0.6304347491776903,0.9878972093925255,0.018193001821226327,0.9918925724358936,0.9586492390223487,0.0559078155444661,0.9684462171095234,0.024319614555727686,0.9057591323629699,0.9510796056287892,0.3417721368557406,0.5435151625596479,0.4149376975361942,0.9591642489498731,0.9929379242373237,0.9824856254631109,0.9050977502558638,0.9912640600669574,0.9613203778163038,S_LF
0.9085073202033404,0.9335936,0.9716900444578241,0.5358024565569292,0.506082814632286,0.6999999715217361,0.9881332350372874,0.01697483867162451,0.9919538324708098,0.9586075210060471,0.054745625963748344,0.9686736434284978,0.024319614555727686,0.8987787774335454,0.9064750406211304,0.26160340666292464,0.5435151625596479,0.4647302310247706,0.9593135741937759,0.993144259144444,0.9829575325057024,0.9096603825483581,0.9801491452181591,0.9343476364489371,S_LF
0.9269662773603613,0.9492188800000001,0.9748356601452729,0.5308641939369004,0.49878346894702286,0.600058665223768,0.9884926704322831,0.01550449649055883,0.9920603716619685,0.9663044950136712,0.03988148220539504,0.9759701233635706,0.02605667905807465,0.8813268178588431,0.8589932560377704,0.2827004569246344,0.40749407432087087,0.42738585129215745,0.9594235104953894,0.9928234610771695,0.9827091603780225,0.9054721973064909,0.9662642981954692,0.906125037110885,S_LF
0.9269662773603613,0.9656249599999999,0.9734058667770614,0.5308641939369004,0.0,0.6565217217958395,0.988984150662077,0.011554494143307562,0.9922789818869033,0.9729099615783907,0.043348616339175035,0.97876144293856,0.024319614555727686,0.8917977076700269,0.912230658477808,0.35864979917481066,0.45433249517877056,0.4937759231220183,0.9596833599355666,0.9928812574425764,0.9833632069809127,0.9027963565197706,0.9806175830965436,0.9390171937939601,S_LF
0.9213485768535881,0.9554687999999999,0.9756935127404053,0.4567901333401906,0.6690998084563212,0.569565193865782,0.9891895937156733,0.01116328562194342,0.9923705646146878,0.9704715093304737,0.045006666070672,0.9771049002424572,0.039953669425430625,0.8935426176938593,0.8762589309025286,0.4388185293676266,0.49648705247547054,0.402489598137082,0.9601354509299024,0.9926457419600879,0.9829409743638571,0.9009356658807963,0.9629742151604126,0.9013308604960577,S_LF
0.9293742389855069,0.9562499200000001,0.9745496311942471,0.46913580606309957,0.6569343544958899,0.5565216933175754,0.9893989945163615,0.010613186254978865,0.9924605082779927,0.9691228547706945,0.039151296205087435,0.9776329453023024,0.03590036080376091,0.8917977076700269,0.9223021056980379,0.5358650047908962,0.5620608355406986,0.3443982655815952,0.9606769019127152,0.992798798784439,0.9831520906723848,0.8917461530083005,0.9757791316114248,0.9342633351781869,S_LF
0.9261638426399543,0.9406249599999998,0.9694023984944804,0.4419753228381324,0.6520681824737613,0.6260869270529269,0.9892906961641157,0.010093781710460142,0.9924822258823444,0.9582395817803061,0.04259233243619485,0.9710750612814835,0.0283729231773974,0.8900527976461943,0.9338133414113933,0.4810126298910462,0.5925057876229237,0.28215763541174904,0.9610549181797605,0.9931478361181988,0.9835619046830567,0.8933900056769385,0.9828503044561877,0.9489794048330281,S_LF
0.8996792233510146,0.96171872,0.9825565677594092,0.4074074181892989,0.6569343544958899,0.6304347491776903,0.9895558652192825,0.010008919554287298,0.9926815770996468,0.9808309134604206,0.05964758946999607,0.9794762954666224,0.04342779843012442,0.914485112150321,0.8748203211146781,0.40928269216578633,0.571428516644363,0.24481320132228476,0.9617380517758829,0.9930356320993634,0.9826180905978732,0.9154678254113019,0.9629283665365039,0.8936374532219575,S_LF
0.9253614079195474,0.96328128,0.9619674027023972,0.4049382787928659,0.6982968883993123,0.6826086659357247,0.9894288575171469,0.009952946642769018,0.9927750037749704,0.9632693383522615,0.05156556875936684,0.9718507439725158,0.046322984992132755,0.8795811930009164,0.8848923576875452,0.3881856403840345,0.571428516644363,0.23651448650849363,0.9615804960067255,0.9928447346579219,0.9818978114276019,0.882988308317493,0.9592700728474213,0.9027566515535255,S_LF
0.9117177165488929,0.9523436799999999,0.9694023984944804,0.3481481535390939,0.705596170337615,0.6086956243147419,0.9891834771974402,0.010055262717587322,0.9927877065246855,0.9652759065461723,0.056515285874760124,0.9718591817047987,0.03126810973940574,0.8865622627644351,0.9280577235547156,0.39240510446696136,0.5409835476886017,0.228215744516277,0.9615969570572345,0.9930309255549492,0.9820675323815161,0.8897323707467509,0.9793187164603099,0.9431479560607114,S_LF
0.9205458134012185,0.9789062399999999,0.9722619852309032,0.3382716282990364,0.6909976223977495,0.6869564994517935,0.9891762812936364,0.009956557798350703,0.99305897169602,0.9789806168521636,0.05153558393501956,0.9802433441990395,0.03300517424175257,0.8952882425517861,0.9769787072785638,0.40928269216578633,0.484777462600574,0.1742737720855283,0.9615328765391818,0.9933509705751173,0.982750555732636,0.8840243119535445,0.9906042308399312,0.9712642624921652,S_LF
0.9197433786808118,0.9570313599999999,0.9756935127404053,0.3530864323319598,0.6642336204974525,0.5999999678480401,0.989057548880875,0.009604470129122997,0.9931702231975568,0.9713728920433485,0.04658919846677603,0.9772477530122705,0.023161492496066312,0.9930196450705756,0.8733817113268272,0.42194094995994,0.49882897658628117,0.15767631527952058,0.9640602356869696,0.9935591881000032,0.9818150207183749,0.9932403774386115,0.9841674750004158,0.9006234628762858,S_LF
0.9309794371582831,0.9429686400000001,0.9648269894388202,0.3703703757613161,0.6545012764531957,0.6130434492873316,0.9886776051600388,0.009130205029376856,0.9931337540128908,0.9553111138163229,0.041798289865518194,0.9696740052698544,0.03126810973940574,0.8743457480953244,0.8287771463191687,0.38396624290658565,0.46604210039324545,0.2157675907603137,0.9643177335485027,0.9930911693234514,0.9806186949700506,0.9032476003515586,0.95550035633977,0.8838621710875959,S_LF
0.9261638426399543,0.9578124800000001,0.9628253724265022,0.3580247272976629,0.7031630763581806,0.6260869270529269,0.9883724988387611,0.009073028399331344,0.9931452274642464,0.9612637960112105,0.04946940742768531,0.971226744236244,0.04342779843012442,0.9109945772685618,0.8805759389713558,0.3544303835950432,0.4309132847498207,0.24896258590760584,0.9646669429771574,0.9927457089634464,0.979836322767859,0.9113162817709037,0.9638359204989126,0.8977718807613503,S_LF
0.9646872838587346,0.9437500799999998,0.9696883103165336,0.3950617373799713,0.7080292483803092,0.5956521408534936,0.98808034514433,0.008202138044848317,0.9932345564783716,0.9558360085296247,0.010623512211319772,0.9765005231394016,0.03126810973940574,0.8656197683079734,0.938129760127583,0.38396624290658565,0.4683840245040561,0.3360995317429062,0.9641495956754469,0.9928051996848423,0.980511067048056,0.8706591623328351,0.9790032850361322,0.9528096147431924,S_LF
0.9293742389855069,0.9554687999999999,0.9636832250216345,0.38765433536350963,0.6739659964151896,0.569565193865782,0.987881018608967,0.007944542280011499,0.9931935798663877,0.9604711537014822,0.04585568081931867,0.9715752422021618,0.01910818387439673,0.9127402021264884,0.8776981300430169,0.4894515163248369,0.564402744311931,0.31535263055904117,0.9653859381476028,0.9930152998274939,0.9803661833069093,0.9310274556021745,0.9784156051940164,0.9193676671639215,S_LF
0.9197433786808118,0.9273436799999999,0.9636832250216345,0.4098765575857318,0.6666667144768869,0.5304347491776902,0.9874899212372348,0.007707409730138428,0.992958578996659,0.9483551475244804,0.04941610107329028,0.9643185962125179,0.0283729231773974,0.876090658119157,0.8359713739636969,0.6329113973027821,0.5526931452332874,0.2863069928186446,0.9664365059068716,0.9927905152662698,0.9795134390018752,0.9050194476554645,0.959088810845922,0.8907308920174027,S_LF
0.9558588582744465,0.94843744,0.9659708709849784,0.46172838949108447,0.6642336204974525,0.4869564709735295,0.9874388303202285,0.006846750983137273,0.9928940408327841,0.9560938395484059,0.021051012515332555,0.9744680107908784,0.03126810973940574,0.8359512940641606,0.9165470771939978,0.5611814429952456,0.5784542736372166,0.3734438951684641,0.9659708933353321,0.9928532064378675,0.980072276289155,0.8522690939134284,0.9704484293967444,0.9439982993134943,S_LF
0.9189406152284424,0.9414064,0.9728339260039823,0.5259259151440345,0.725060880737565,0.5086956100756098,0.9877065179417267,0.006897307161282811,0.9928137266732954,0.9619924934926734,0.04659141956487594,0.9722324041885688,0.004632251064355169,0.876090658119157,0.9007194227644527,0.5147679545291863,0.5386416251117488,0.5228215336839893,0.9667004706096761,0.993218999069742,0.9811568345800238,0.9075893791557474,0.988002410287038,0.9527656314714968,S_LF
0.9052972525897504,0.9460937600000001,0.9785530994768282,0.4913580282853218,0.7372263346979964,0.5521738882797705,0.9880396882878391,0.0071952274967830784,0.9928254050077109,0.9699537955871912,0.05506824046274359,0.9746691427813434,0.042269913544753374,0.8743457480953244,0.9453239877721116,0.4683544384259993,0.5035128094683241,0.5062240225211305,0.9663283332892413,0.9932363191531864,0.9820178579559803,0.8673624220801287,0.974897878410018,0.9455303832775598,S_LF
0.9205458134012185,0.9421875199999998,0.97197607340885,0.5061728484910825,0.8053528641270196,0.5565216933175754,0.9882375756424413,0.007667085159474764,0.9927883211738652,0.9615332533624037,0.045915650468013235,0.9721309551748417,0.034163296301413945,0.8586386985444548,0.9107914593373201,0.49367090426747656,0.5035128094683241,0.5518671714243859,0.9662436764580522,0.9931195968517134,0.982903718544705,0.8693526131736093,0.9701735153611372,0.9340140966385783,S_LF
0.9213485768535881,0.9585936,0.9831283914035158,0.486419749492456,0.7688565022457258,0.6086956243147419,0.98875747969226,0.00791264373903865,0.993012668124478,0.9775235638401911,0.040835443839256996,0.9817605661993078,0.04458592048978579,0.9877834853308894,0.8877701666158839,0.5232067580515937,0.5152224146827991,0.48132774218762947,0.9684523966995594,0.9931382347675938,0.9823779975411162,0.9710054505637035,0.9737099014688193,0.8888689335156192,S_LF
0.9277690408127306,0.9539062399999999,0.9679726051262688,0.4716049454595326,0.7956204882092826,0.4869564709735295,0.9888582223455121,0.008256305378575541,0.9929321490819293,0.9631923993877709,0.04424982689316689,0.9733744414417456,0.051534415673463715,0.8987787774335454,0.8877701666158839,0.5443038083133034,0.5269320198972739,0.43153523587747855,0.9689009603259288,0.9928609251707068,0.981935067246754,0.8937734876429965,0.9589151902817408,0.8962617884331323,S_LF
0.9245586444671781,0.94843744,0.9648269894388202,0.45925926141563755,0.7931874101665883,0.5173912486294836,0.9888236820072541,0.008686032892812504,0.9928090143629171,0.9585678546954653,0.04805068101644128,0.9700870616990532,0.048060286668769915,0.8551481636626955,0.9151078780535098,0.5147679545291863,0.5456673851725181,0.3983401591949098,0.9683354056620136,0.9926884773833691,0.9820509742396709,0.8547828081621426,0.9620131711367772,0.9240188981457383,S_LF
0.9213485768535881,0.9406249599999998,0.9722619852309032,0.449382727442248,0.8029197701475854,0.4999999430434722,0.988807851018886,0.009090482317976805,0.9927106704941555,0.9609358650470045,0.0448206491048143,0.9720446155886908,0.03705848286342228,0.8691103031897326,0.8546762479689434,0.5274261459942333,0.5316158635170217,0.3734438951684641,0.9685887882609193,0.9923908355146128,0.981450741597778,0.8888108093728213,0.9570618751703329,0.8948506584662298,S_LF
0.9406099687310158,0.9476563200000001,0.9796969810229864,0.3950617373799713,0.8004866761681511,0.4217391106238164,0.9887715117046771,0.009024277798976651,0.9927080070143766,0.9678272026086755,0.025255551218244604,0.9798793443528809,0.03763742530610787,0.8830717278826757,1.0,0.6160337349837122,0.571428516644363,0.4522821316256585,0.9685870245769362,0.9928987657877972,0.9830486022858517,0.8650635380427664,0.9914826407158243,0.9836858714735491,S_LF
0.9502408290357108,0.9203126399999999,0.9676865761752431,0.4049382787928659,0.8077859421697138,0.4130434151134147,0.9882728355710794,0.008918952427840274,0.9924476006452178,0.9448792160842785,0.020328045083849413,0.968585930258022,0.04342779843012442,0.8638741434500466,0.9035972316927916,0.6202531505634796,0.615925013391452,0.4398339506912696,0.9686217103619372,0.9928733504479604,0.9831272534596167,0.8681369151084366,0.9634133312444368,0.9198111651535196,S_LF
0.9157305476148523,0.9242188800000001,0.9811267743911978,0.38024693334704796,0.7980535981254568,0.404347748081277,0.9880504821435445,0.00919279839279511,0.9922810307175025,0.9606305028457157,0.041390718364205846,0.9726119059149682,0.04342779843012442,0.8481678087332709,0.9482017967004504,0.5864979088367229,0.601873468726588,0.4522821316256585,0.9680508646460727,0.9930032510737934,0.9839427419454988,0.8447455190584012,0.9715072127349138,0.9505224846150179,S_LF
0.9157305476148523,0.9421875199999998,0.971118103684745,0.3925926141563755,0.7956204882092826,0.4130434151134147,0.9878738227051633,0.009669470929595709,0.9920812697340803,0.9613978407849005,0.050466125199968286,0.9710852650507559,0.03358435385872849,0.8656197683079734,0.8992808129766021,0.5696202465176529,0.5854800306300701,0.3858920597957976,0.9681813772608224,0.9930384560260119,0.9840420907965711,0.8780627735885328,0.968797523520344,0.9262657102748586,S_LF
0.9213485768535881,0.9296873600000002,0.971118103684745,0.41728395960219355,0.7834550501855913,0.4782608324196558,0.9876536280487694,0.009905399760941552,0.9919208462981627,0.9549701887158921,0.04380394144963314,0.9690645262821626,0.041111791485091996,0.8586386985444548,0.9352519511992442,0.5063290957325235,0.571428516644363,0.3983401591949098,0.9676810789042819,0.9931071715744598,0.9845388350519307,0.858099124064949,0.9713586489768221,0.942792424614505,S_LF
0.9398075340106088,0.93671872,0.9754074837893794,0.4148148363785977,0.810219020212408,0.4999999430434722,0.9875183450572596,0.0099372983019144,0.9919042507703091,0.9595516475880832,0.026873065909420464,0.9751035878807478,0.039953669425430625,0.8638741434500466,0.9035972316927916,0.43459914142498696,0.5409835476886017,0.4730290273738384,0.9672548552750319,0.9929974149587197,0.9847375327540742,0.8707981996425185,0.9655904300487189,0.9231465632571079,S_LF
0.9149277841624831,0.9390623999999999,0.9676865761752431,0.4098765575857318,0.8223844901095794,0.5608695268336443,0.9873341299198845,0.010565037513888,0.9918161510545433,0.9574127443752488,0.05279827820475318,0.968451907673156,0.040532611868116075,0.8586386985444548,0.8791367398308675,0.3713080514415388,0.5409835476886017,0.4647302310247706,0.9666787185072179,0.9927522981256263,0.9845926490129281,0.8720891886696137,0.9591117351578763,0.9082545605154838,S_LF
0.959069254619999,0.9429686400000001,0.9588219041439211,0.42469136161865517,0.7761557841840285,0.5869564909083143,0.986986927561355,0.010286376674824033,0.9917817307004768,0.947635340767803,0.021891142871579988,0.969744058070436,0.03647954042073669,0.8499127187571037,0.9050364308332798,0.3966245007007394,0.5316158635170217,0.4522821316256585,0.9659579596527895,0.9926491306720662,0.9849031141725276,0.8620348336145033,0.9663723445649904,0.9296340958322181,S_LF
0.9382023358378325,0.9453126399999998,0.9708321918626918,0.4148148363785977,0.8272506780684479,0.5652173603497131,0.9868797085946795,0.010524712943224334,0.9918202487157418,0.9602382851022913,0.03237694700071255,0.9743120108568105,0.034742238744099534,0.8446772738515117,0.9424461788437727,0.44725738816428945,0.5409835476886017,0.2946057348108613,0.9651213855501372,0.9927519216020732,0.9854536723888846,0.8502427631582249,0.9751859428261263,0.9556172135864323,S_LF
0.9398075340106088,0.9429686400000001,0.9688304577214013,0.3654321131412873,0.8637470240130017,0.5608695268336443,0.9865728032974509,0.010901476842261303,0.9918270098567191,0.9574380487457923,0.03190718475260593,0.9729093850345241,0.03532141836107532,0.8935426176938593,0.9208634959101875,0.5738396344602925,0.6697891759026269,0.2987550922177568,0.9657327959976132,0.9931024650300455,0.985495067743498,0.8939205559886181,0.9760233021899151,0.9336365735565237,S_LF
0.8988764598986454,0.9523436799999999,0.964541077616767,0.35061730910836403,0.7956204882092826,0.5086956100756098,0.9863216662547012,0.011774774633798788,0.9916655620055019,0.9629838093062636,0.07033995572240945,0.9676416891476636,0.05790396841445618,0.8830717278826757,0.936690560987095,0.6033754882444095,0.6487118895844877,0.340248900021172,0.9656845886354083,0.9931433178355611,0.9854039979633488,0.8642584266899433,0.9641259397013116,0.9234837683401077,S_LF
0.9189406152284424,0.90312512,0.9636832250216345,0.4024691393964329,0.7956204882092826,0.4999999430434722,0.9857136123832869,0.012083528436044757,0.9913252512429743,0.9372027591338519,0.046186069161663304,0.9590094965695712,0.04574404254944717,0.8534032536388629,0.9395683699154339,0.518987342471826,0.5971896358445451,0.3443982655815952,0.9650661234519998,0.9932013024627445,0.9857393003357164,0.8492092692209042,0.96876766860245,0.9419750688154938,S_LF
0.8691814442641531,0.9492188800000001,0.9539605832662076,0.44691357898902623,0.7931874101665883,0.5521738882797705,0.9856643204422314,0.013595398906301329,0.9910076825000979,0.9567944970516989,0.10151473337660787,0.9574805009893732,0.04342779843012442,0.8708552132135652,0.8820145487592063,0.5147679545291863,0.5035128094683241,0.3734438951684641,0.9651419618632734,0.9928908587931814,0.9853005095768156,0.8789065343018093,0.9594015766524306,0.9052270453137656,S_LF
0.9213485768535881,0.9203126399999999,0.9619674027023972,0.44691357898902623,0.6520681824737613,0.5826086630878982,0.9853379862047328,0.013133772851091732,0.9908241072784093,0.9435832219713063,0.048016809270419306,0.9620531632077197,0.04169073392777745,0.8691103031897326,0.9050364308332798,0.45569619168669667,0.46604210039324545,0.5145227373349216,0.9648862276857232,0.9926566611431289,0.9855323235626501,0.8732948479398636,0.9654660345574939,0.9215228474770093,S_LF
0.9149277841624831,0.9164064,0.964541077616767,0.4888888888888889,0.5961071006304733,0.5956521408534936,0.9851660041038239,0.012488579720472672,0.9906542592217353,0.9444572486079177,0.05113356517895668,0.9618581142335517,0.03358435385872849,0.8394418289459199,0.8848923576875452,0.32911394539069366,0.36768141045582475,0.46887958843166616,0.9639620572785769,0.9921756523039937,0.9856813468392577,0.860831182103238,0.9624128360792986,0.9215888223845529,S_LF
0.9478331961425276,0.9289062399999999,0.9779811587037491,0.565432080795613,0.5766423966052193,0.639130416209828,0.9855204023661571,0.010967079501997629,0.9908234926292294,0.9570410436890214,0.017407856357143755,0.9757375951599598,0.029531045237058778,0.8656197683079734,0.8834531585470572,0.29535870366393696,0.33489459562110263,0.585062166571678,0.9635134936522075,0.9917582759453392,0.9860580445662389,0.8848454853782441,0.9677518905626756,0.9203206380506613,S_LF
0.9221510115739948,0.9421875199999998,0.9734058667770614,0.5753086383813448,0.630170368532333,0.6652173603497131,0.986013681571902,0.010342349586342316,0.9909615838116157,0.9624483141134099,0.04368344687771929,0.9730969774080699,0.03821660492308366,0.8673646783318059,0.9064750406211304,0.14767932419484064,0.3255268684987032,0.46887958843166616,0.9624129548467505,0.991358596193682,0.9862815794811506,0.8742138996150624,0.9677495803606958,0.9260421286437389,S_LF
0.9293742389855069,0.9804687999999999,0.9791250402499073,0.5753086383813448,0.6520681824737613,0.600058665223768,0.9869228840175017,0.009802481826859633,0.9912840697479304,0.9839495061544333,0.04004584346477976,0.9853544514728357,0.07353802328415898,0.9092496672447292,0.8561154471094317,0.30379750718634424,0.4145198466533028,0.4398339506912696,0.9622271801338635,0.9904867559063886,0.9847954862505329,0.8936158785627055,0.938756723220885,0.8527036883638586,S_LF
0.9101125183761166,0.9609376000000001,0.9714041326357709,0.48395061009602297,0.649635088494327,0.6608695553119082,0.9872693667856509,0.009618914751450172,0.9914399857565297,0.9709929845342423,0.057952891619852495,0.9746016409230801,0.025477736615389063,0.8499127187571037,0.9266191137668651,0.3417721368557406,0.4707259332752884,0.3734438951684641,0.9615117123313845,0.9905742976324934,0.9854660909952684,0.8653882930585246,0.9780035007023724,0.953487690181834,S_LF
0.9020868562441978,0.9570313599999999,0.971118103684745,0.4913580282853218,0.6885645284183152,0.7086956385538739,0.9875992989750515,0.009806694841705148,0.9915942627006498,0.9698108600887158,0.06420028530005104,0.972618970062926,0.030689167296720152,0.8499127187571037,0.9223021056980379,0.43459914142498696,0.49414514370423823,0.39419080178801424,0.9610214081840817,0.9906049843020741,0.9859959515343186,0.8623771565213768,0.973828965724706,0.9459005758143315,S_LF
0.9317818718786901,0.9578124800000001,0.9722619852309032,0.434567919204387,0.6982968883993123,0.7043478050378049,0.987705078760966,0.00947807968375926,0.991840532138674,0.9678644752625841,0.03881479984296841,0.9770315115942291,0.04284885598743883,0.8813268178588431,0.9007194227644527,0.3670886552077608,0.5362997010009383,0.24896258590760584,0.9608215239993299,0.9905302443767762,0.9855281840271887,0.8832051462878293,0.9652476316164718,0.9157097250678992,S_LF
0.9117177165488929,0.9312499200000002,0.9736917785991147,0.4271605171879253,0.7347932423122361,0.6826086659357247,0.9875964206135299,0.009609886862495741,0.9918987189276913,0.9586912989896034,0.05044946696421986,0.9696396656617262,0.03763742530610787,0.8900527976461943,0.8748203211146781,0.32489455744805396,0.559718911429888,0.3236513725512578,0.9608879560960267,0.990465105802083,0.9849403699916797,0.9002048416104034,0.9636832694603951,0.9032624591780257,S_LF
0.9069021220305641,0.95,0.9708321918626918,0.43209876363511684,0.7420925115011469,0.7260869441398853,0.9876500300968677,0.009971002420678091,0.9920472591461335,0.9657830198099026,0.059246125988458125,0.971541295046698,0.03937472698274504,0.876090658119157,0.964028861777358,0.3628691898811632,0.5081966576899455,0.29045637740396574,0.9602836003844831,0.9906797242273723,0.9855695793818021,0.8665703611607055,0.98120721772495,0.959945900575814,S_LF
0.8964688270054622,0.95,0.97197607340885,0.4370370456625502,0.7007299823787465,0.6652173603497131,0.9877612068106352,0.01026771903765113,0.9921148705559072,0.9677765938675884,0.06719432553857464,0.9708837406076266,0.040532611868116075,0.8848166379065083,0.9280577235547156,0.45569619168669667,0.4402809811930634,0.2738588390626813,0.9603112314335517,0.9906134560820198,0.9855861375236474,0.881250090976579,0.9733487991285775,0.9345565569894911,S_LF
0.9165329823352593,0.9445312000000001,0.9765513653355375,0.4123456808093276,0.6788321684373182,0.6652173603497131,0.98777092128077,0.010013734428396214,0.992254395919713,0.9665223177709175,0.04675689137331052,0.9746200861983032,0.041111791485091996,0.8848166379065083,0.9107914593373201,0.3670886552077608,0.42857137597858846,0.340248900021172,0.9601619061896489,0.9904238764730143,0.9854826491371137,0.8849137491837206,0.9690486247047739,0.9231319021665426,S_LF
0.9414127321833851,0.9210937600000001,0.964541077616767,0.4271605171879253,0.6253041805734645,0.7130434435916787,0.9873413258236882,0.009079648851231317,0.9922662791371883,0.943753513546045,0.02976604618440348,0.9660053577637734,0.029531045237058778,0.9162307370082478,0.964028861777358,0.29957809160657667,0.42857137597858846,0.3526970646485055,0.9603124072228737,0.9907328140483649,0.9863064166939187,0.9066221412649182,0.9923971252841726,0.9630173990492282,S_LF
0.9414127321833851,0.9539062399999999,0.9699743392675595,0.40000001617283715,0.6788321684373182,0.6565217217958395,0.987242382146387,0.0085006602396122,0.9924293660528849,0.9632672866465418,0.03156458037071249,0.9761070893434189,0.03821660492308366,0.9057591323629699,0.9093528495494692,0.270042182548204,0.4121779225424922,0.3443982655815952,0.9603112314335517,0.990596324260352,0.9861656724882335,0.904232406133503,0.9730694423968552,0.9216657931100203,S_LF
0.9325843065990969,0.9437500799999998,0.9671147525311365,0.4716049454595326,0.6545012764531957,0.600058665223768,0.9872531760020925,0.00796199619865696,0.992428751403705,0.957260234250081,0.03914685400888782,0.9712822762882456,0.01679217692936418,0.9162307370082478,0.9093528495494692,0.37974684667280767,0.44730673818591693,0.3817426942353744,0.9612218802634943,0.9908431354494346,0.9865340911442918,0.928424396078646,0.9874920333573262,0.9406445748466995,S_LF
0.9494383943153039,0.9570313599999999,0.97740921793067,0.4666666666666667,0.6666667144768869,0.600058665223768,0.9875028738640815,0.0071266155407284665,0.9926467469794603,0.9695581583342338,0.020728953290862235,0.981757034125329,0.0318470521820912,0.8813268178588431,0.9165470771939978,0.43037975348234725,0.4754097814969097,0.3858920597957976,0.9613194707772261,0.9908741986425685,0.9868073004847399,0.8877999027240772,0.9756932987224797,0.9361912685875136,S_LF
0.9157305476148523,0.9445312000000001,0.9791250402499073,0.4716049454595326,0.6861314344388809,0.5608695268336443,0.9877460954126472,0.006935826154155418,0.9926967384460809,0.9685483771691658,0.045812369406372726,0.9759051724476252,0.03763742530610787,0.8726008380714919,0.8561154471094317,0.5400843927335358,0.5058547335791348,0.4232364938852619,0.9618285875536821,0.9905726032765042,0.9862194864492309,0.8907964830085867,0.9574293749929804,0.8945977546539796,S_LF
0.9558588582744465,0.9312499200000002,0.9751215719673262,0.540740735349795,0.7323601494483736,0.5608695268336443,0.987927432188501,0.0062900311642727445,0.9927403785378439,0.9551042334895822,0.012806296368893378,0.9756541989687915,0.030689167296720152,0.9040142223391372,0.9453239877721116,0.49789029221011627,0.49882897658628117,0.4937759231220183,0.9623917906389533,0.9908711864541435,0.987076370289726,0.9001692038884268,0.985808962361052,0.9518823007649421,S_LF
0.9414127321833851,0.9429686400000001,0.9631112842485554,0.5506172767626897,0.725060880737565,0.6043477964943257,0.9880684719030539,0.006081185999790621,0.9927106704941555,0.9528641127945736,0.03411273516570236,0.9699887523066405,0.02895186562008299,0.8813268178588431,0.9007194227644527,0.42194094995994,0.4496486469571492,0.4647302310247706,0.9625769774571793,0.9908169670624914,0.9873537191656354,0.893671091934782,0.9738881424369602,0.9290733091180986,S_LF
0.9382023358378325,0.9476563200000001,0.9702602510896127,0.5209876525240057,0.7420925115011469,0.5739130102948925,0.9883008995959138,0.0059463695247358546,0.9927440664329225,0.960897566540236,0.03309880388314584,0.9745129466209433,0.03242623179906712,0.9284472516773581,0.9525182154166397,0.43459914142498696,0.4590163280608135,0.47717838478073393,0.9633430042005074,0.9911104671721633,0.9881485099742108,0.9169354972290417,0.9894532171304107,0.9510099658763116,S_LF
0.9317818718786901,0.9624998399999999,0.97740921793067,0.5135802505075441,0.7761557841840285,0.5869564909083143,0.9887794271988612,0.00607336182936342,0.9929223146950531,0.9739618027107135,0.03632716997119803,0.980819464710264,0.03300517424175257,0.8778362829770837,0.9525182154166397,0.42616033790257973,0.4707259332752884,0.44398333527659073,0.9631013794948221,0.9912770788444273,0.9890219519565517,0.8756891005289943,0.982746523074937,0.9583551722494877,S_LF
0.9486356308629346,0.9437500799999998,0.9631112842485554,0.5333333333333333,0.763990314286857,0.5826086630878982,0.9888600213214629,0.0059529899766358274,0.9928878943409865,0.952454113601578,0.028161302807301548,0.9710220801718001,0.046902164609108545,0.980803130401465,0.9309355324830545,0.5063290957325235,0.49882897658628117,0.44398333527659073,0.9649220892600464,0.9914747537098253,0.9888812077508665,0.9538777606058613,0.9817158175762156,0.9148777081783228,S_LF
0.9245586444671781,0.96171872,0.9668287235801106,0.5135802505075441,0.7737226742678542,0.5434782212476328,0.9891528946062744,0.006323735283036437,0.9928801087847094,0.9663352705994674,0.04890302741223752,0.9740606449253124,0.04458592048978579,0.8673646783318059,0.9064750406211304,0.4599155796293364,0.49882897658628117,0.4356845932843741,0.9646052140377486,0.9912825384359478,0.9888522310026369,0.8693370530414788,0.96376021695711,0.9199211233327588,S_LF
0.9165329823352593,0.9585936,0.9688304577214013,0.5283950545404674,0.7931874101665883,0.5217390821455524,0.9895216846762149,0.006917168516982729,0.9928336003301077,0.9672530669581002,0.053854965625730514,0.973488252714399,0.03126810973940574,0.9109945772685618,0.912230658477808,0.4641350504833595,0.484777462600574,0.44398333527659073,0.9653136271042955,0.9913919185281348,0.9890426496338585,0.9129440723676647,0.9786732815686968,0.9293701962020443,S_LF
0.9221510115739948,0.9445312000000001,0.9734058667770614,0.5135802505075441,0.7785888622267227,0.5304347491776902,0.989742598922989,0.007188607044883106,0.992804506935599,0.9635418732620343,0.044052149162285115,0.9736036337977095,0.0318470521820912,0.9197205570559128,0.8690647032580004,0.4810126298910462,0.5175643387936097,0.4356845932843741,0.9664417969588208,0.9913587844554587,0.988562463520344,0.929374568018106,0.9694404705021327,0.9006234628762858,S_LF
0.9309794371582831,0.94843744,0.9659708709849784,0.4790123474759943,0.7615572362441629,0.4565216648393114,0.9897526731883143,0.007320414223619801,0.9926588350799956,0.9587511404064292,0.041950435085354114,0.9714859592210285,0.03590036080376091,0.8708552132135652,0.8618704756134719,0.5147679545291863,0.5292739409401689,0.4398339506912696,0.966734568500016,0.9911356942502236,0.988098835548675,0.8893343325280546,0.9595942119559847,0.9000883330706552,S_LF
0.9261638426399543,0.9437500799999998,0.9676865761752431,0.4938271515089176,0.7737226742678542,0.46086949835538027,0.9898095208283636,0.007576204410665561,0.9924965676965388,0.9583886723959409,0.04416209351822495,0.970820751955003,0.0318470521820912,0.8394418289459199,0.9007194227644527,0.548523196255943,0.5316158635170217,0.4896264841798461,0.9663683101261916,0.9910794039790293,0.9884838123465786,0.8583641482509156,0.9670010749192104,0.9330318035707086,S_LF
0.9165329823352593,0.93984384,0.9699743392675595,0.4814814868724272,0.725060880737565,0.5173912486294836,0.9898386642387687,0.007689353952229353,0.9923873650256012,0.9593478448199219,0.05014406597549797,0.9700568428439004,0.03647954042073669,0.8045379097965153,0.9309355324830545,0.518987342471826,0.49414514370423823,0.4730290273738384,0.9650496624014909,0.9909436672381228,0.9892993008324606,0.8199040190817414,0.9664500028930836,0.9532787696412794,S_LF
0.9261638426399543,0.9476563200000001,0.973977690421168,0.5086419717146782,0.7104623423597435,0.504347776559541,0.9900815259921443,0.007514212906510922,0.9923652376551299,0.9650085009006988,0.0408415518590314,0.9750725841202664,0.02895186562008299,0.9162307370082478,0.8935251951199246,0.5358650047908962,0.4894612954826169,0.5269709182693104,0.9661966448851695,0.99102010151941,0.9894234868963006,0.9231108619259127,0.9764263435814841,0.9191220938969542,S_LF
0.9221510115739948,0.92656256,0.9656849591629252,0.5111111111111111,0.7518248762631659,0.539130387731564,0.9899836617004136,0.007677918626220251,0.9921855552115798,0.9492681565697669,0.04602726064752785,0.9655312749452725,0.034742238744099534,0.9092496672447292,0.8906473861915857,0.4177215620173003,0.48711938671138466,0.41908705494308973,0.9667674906010341,0.990976801310799,0.9891833938395437,0.913952469317678,0.9713581158532884,0.9128104944086262,S_LF
0.9357947029446494,0.9507811199999999,0.9602516975121326,0.47407406868312835,0.7445256038869073,0.5521738882797705,0.9898987500355299,0.007714632041302015,0.9921009385078327,0.954931206307217,0.04187047555376156,0.9694548204568306,0.03590036080376091,0.8970331525756187,0.8762589309025286,0.451476803744057,0.45433249517877056,0.4647302310247706,0.9672624979056252,0.990759923744191,0.9888687891444821,0.9066999419255715,0.9659138583259039,0.9047175724166239,S_LF
0.942215166903792,0.9070313599999998,0.9696883103165336,0.5111111111111111,0.7883212222077197,0.5478260547637016,0.9896458140168292,0.007600880640474609,0.991938056475196,0.9411259624209581,0.023735764843459774,0.965852693677352,0.02895186562008299,0.8621292334262141,0.9136692682656589,0.3966245007007394,0.49648705247547054,0.41908705494308973,0.9668421532229855,0.9908103779003116,0.9892537659423862,0.8754260841020122,0.9744715572908055,0.9401864157665367,S_LF
0.9558588582744465,0.9507811199999999,0.9662567828070315,0.540740735349795,0.7420925115011469,0.600058665223768,0.9898181559129282,0.007174764281819546,0.9920275903723811,0.9574151380319219,0.02123980585381509,0.9751381237152081,0.02895186562008299,0.9075047572208966,0.8892087764037349,0.3628691898811632,0.4824355384897633,0.36514516404761765,0.9673030626372365,0.9908275097219793,0.9890095333501673,0.9171367750672473,0.9744024289392533,0.9178062610187256,S_LF
0.9165329823352593,0.9562499200000001,0.964541077616767,0.538271595953362,0.705596170337615,0.6130434492873316,0.9901139075592609,0.007316201208774286,0.9920353759286581,0.9628870371864822,0.05620766378793852,0.9706486614616978,0.03705848286342228,0.8952882425517861,0.9223021056980379,0.37974684667280767,0.46370016094285643,0.39419080178801424,0.9672583826429979,0.990833345837053,0.9891709752331592,0.8936670764168128,0.9754875130384245,0.9325956361263928,S_LF
0.9245586444671781,0.95,0.971118103684745,0.5308641939369004,0.7931874101665883,0.6260869270529269,0.9904049818681213,0.007683937218856609,0.9921234756444238,0.964102330874478,0.044340336640733655,0.9738422450176173,0.02895186562008299,0.9075047572208966,0.9179856869818486,0.4599155796293364,0.4590163280608135,0.4107883129508731,0.9678451015147107,0.9909575986095889,0.9894276264317621,0.9105523294772649,0.9810028537036518,0.9357514358705569,S_LF
0.9558588582744465,0.9445312000000001,0.9705462800406386,0.4790123474759943,0.8004866761681511,0.5739130102948925,0.9903815951807593,0.00748050878774723,0.9922035849208526,0.9577885484729154,0.017636074186897735,0.9760915874631781,0.03821660492308366,0.8900527976461943,0.8848923576875452,0.5400843927335358,0.5807961824084489,0.43153523587747855,0.9686322924658359,0.9909986396768811,0.9892165101232342,0.8974045197666382,0.9656034027213753,0.9089326359541254,S_LF
0.9261638426399543,0.9374998399999999,0.9536746714441544,0.486419749492456,0.8077859421697138,0.5652173603497131,0.9901747129464024,0.008317093164202951,0.9919523982893904,0.9446542123570131,0.051982579927603356,0.9617823708693377,0.05500878185244784,0.9005236874573779,0.9223021056980379,0.5274261459942333,0.5199062629044203,0.4356845932843741,0.9687716235005013,0.9908794699723126,0.989038510098397,0.8841964772864735,0.9648294850581112,0.9142656076472248,S_LF
0.9197433786808118,0.9531251199999999,0.9659708709849784,0.545679014142661,0.7591241422647287,0.5478260547637016,0.9904517552428456,0.008633671136876122,0.9919065044839682,0.962162785067412,0.05210973779381674,0.9711419744607505,0.04516510010676158,0.9005236874573779,0.9251799146263768,0.5822784379826997,0.43325520886063135,0.5186721762770938,0.9692683944890755,0.9907497576082562,0.9893241380452289,0.8910374140867383,0.97172152839551,0.9257195846513042,S_LF
0.9237562097467711,0.96015616,0.9736917785991147,0.567901220192046,0.6472019945148928,0.6130434492873316,0.9910000831126888,0.008178665533566285,0.9920564788838299,0.9708992899730405,0.04499278420754841,0.977336251088075,0.03647954042073669,0.8342063840403281,0.9223021056980379,0.48523204547081367,0.395784469106396,0.585062166571678,0.9683642125004043,0.9904997459689718,0.9901065102474198,0.8454311687516408,0.9682802159846927,0.9429940146097766,S_LF
0.9365971376650564,0.9273436799999999,0.9674006643531897,0.5950617212071341,0.5766423966052193,0.5739130102948925,0.9911425620080024,0.007139254585264798,0.9919761647243411,0.9493902330600916,0.03301939962607821,0.9683530096017469,0.03937472698274504,0.8446772738515117,0.8949643942604125,0.44725738816428945,0.362997623592517,0.5477178140174903,0.9676757878523327,0.9900379398310468,0.9903383242332544,0.8580971163059645,0.9616787249732265,0.9214678683873899,S_LF
0.9309794371582831,0.93828128,0.9837003321765949,0.6419752727023371,0.6350365405544616,0.6173912742599212,0.9918477605807671,0.00630808694218182,0.9921603545952096,0.9674896970177772,0.029360140506665914,0.9788338504551274,0.02895186562008299,0.8307158491585688,0.9064750406211304,0.37974684667280767,0.3864168647006236,0.5726140671725659,0.9666552027207765,0.9897826568620184,0.9910586034035263,0.8523559294895122,0.9689928244415672,0.9407325413900911,S_LF
0.9093100836557099,0.9562499200000001,0.9656849591629252,0.6740739878189426,0.6107056485703389,0.6217391020803372,0.9925817427687462,0.006055306051454345,0.992169369449846,0.9645441315061299,0.06152275154074807,0.9703876804399237,0.025477736615389063,0.8743457480953244,0.9453239877721116,0.2531646031405174,0.362997623592517,0.5477178140174903,0.9659168070265169,0.9898355584212345,0.9921721384426241,0.8804093419017793,0.9852943204430697,0.961430335995543,S_LF
0.9269662773603613,0.97187488,0.9748356601452729,0.6716048807681838,0.659367448475324,0.6217391020803372,0.9935539093726287,0.005685764463580965,0.9923971994124774,0.9769292530833718,0.043426354772667874,0.9808899099635098,0.03821660492308366,0.876090658119157,0.938129760127583,0.240506328764087,0.3583136833334254,0.5435684566105948,0.9650255587203885,0.9897043399629655,0.9928468827228211,0.8736411863647064,0.9760071307760558,0.9445517554823311,S_LF
0.944622799796975,0.97187488,0.9736917785991147,0.5851851797942395,0.6909976223977495,0.6782608608979198,0.99413713737592,0.005209091926780364,0.9927071874821367,0.9742110849556627,0.02935070083974175,0.9824310715763018,0.022003370436404934,0.7801048804582944,0.938129760127583,0.40084389693451744,0.40749407432087087,0.5145227373349216,0.9631478231730438,0.9895960894414381,0.9941591154640629,0.8106683277526,0.9738273663541046,0.9750028405862969,S_LF
0.9470307614221208,0.9531251199999999,0.9819846269863302,0.5530864161591226,0.6982968883993123,0.6478260547637017,0.9945750081223765,0.004550056033097532,0.992997301894984,0.9714470954002127,0.01933632478229079,0.9830605656498742,0.017950298989025556,0.8726008380714919,0.823021528462491,0.4599155796293364,0.47775169026814196,0.4522821316256585,0.9638832793939983,0.9893705518331077,0.9934636735065592,0.9127237208191055,0.9622047401932636,0.8934908423163056,S_LF
0.9574640564472228,0.9703126399999998,0.9825565677594092,0.5037037090946495,0.7153285143818721,0.6043477964943257,0.9949988468564154,0.00385851973917845,0.993346832395208,0.9788626437732783,0.012873484586412198,0.9883798690620931,0.034163296301413945,0.9092496672447292,0.9208634959101875,0.42194094995994,0.5152224146827991,0.3526970646485055,0.9643530072281649,0.9895691680073886,0.9934388362937909,0.90739613235348,0.9786603088960404,0.9322694268613168,S_LF
0.9309794371582831,0.9593750400000001,0.9802688046670929,0.5209876525240057,0.7761557841840285,0.6086956243147419,0.9953683565167365,0.003976484154851158,0.9935511008059486,0.9747380313746837,0.034730200437445284,0.9815731700520942,0.006369315566702132,0.8883071727882675,0.9165470771939978,0.45569619168669667,0.5667446684227416,0.36099579653034786,0.9650284981936936,0.9901337650753206,0.994034929400223,0.9123909347674086,0.9920292700458359,0.9591212142315204,S_LF
0.9125201512692999,0.9976563200000002,0.9819846269863302,0.46419753859121976,0.7956204882092826,0.5434782212476328,0.9960037548226048,0.004631307033688475,0.9938319954810994,0.9959454875468301,0.05496440412657816,0.988518797305263,0.02605667905807465,0.8935426176938593,0.9251799146263768,0.41350209116327713,0.5245901111260417,0.3568464302089287,0.9652812928979385,0.9904167225255046,0.9942957201342866,0.8999167281961139,0.9827259089649626,0.9452041740124838,S_LF
0.9269662773603613,0.9593750400000001,0.9788390112988814,0.4419753228381324,0.810219020212408,0.5739130102948925,0.9960962221864826,0.005030339725480033,0.9939643499378078,0.9740804596915055,0.038964723964704615,0.9803216385055716,0.07237990122449761,0.8987787774335454,0.902158621904941,0.48523204547081367,0.5456673851725181,0.39419080178801424,0.9651554834404771,0.9900130892765396,0.9932649758044152,0.8744061425378374,0.9487911743744719,0.8845219201630309,S_LF
0.9277690408127306,0.9476563200000001,0.9782670705258023,0.44444445091357937,0.7493917822837317,0.5565216933175754,0.9960692375472185,0.005038163895907234,0.9940182341825669,0.9680881111860364,0.03683191451437648,0.9775725075919969,0.025477736615389063,0.876090658119157,0.938129760127583,0.3881856403840345,0.5128805059115668,0.2946057348108613,0.9649403139945384,0.9903016945800207,0.9936623712087032,0.8834651510763345,0.9838746124725033,0.9566178330175086,S_LF
0.9133229147216692,0.9562499200000001,0.9725478970529565,0.45432098424005535,0.7420925115011469,0.639130416209828,0.9961005397287647,0.005372797646489694,0.9940960897453366,0.9693153731573971,0.05380332509491046,0.9746008560177515,0.023740672113042233,0.9005236874573779,0.9338133414113933,0.30379750718634424,0.4730678573860991,0.3319501689003255,0.9649767634635227,0.9905786276533545,0.9940225107938391,0.9052628884323468,0.9869836112139052,0.9517540162224962,S_LF
0.9494383943153039,0.9578124800000001,0.9702602510896127,0.4370370456625502,0.7907543161871541,0.5956521408534936,0.9959728124362488,0.005352334431525947,0.9941993508075364,0.964472663756892,0.025259993414444223,0.9780815186976224,0.0,0.8778362829770837,0.886330967475396,0.2911392328099138,0.49648705247547054,0.31120327315214563,0.9652125092225974,0.9909078975005745,0.9942460457087507,0.9155054708922631,0.9877312281161674,0.9479641243113867,S_LF
0.9253614079195474,0.9570313599999999,0.9776952468816957,0.43950617373799716,0.7737226742678542,0.600058665223768,0.9960203054013533,0.005571411203489944,0.9943245343571477,0.9722900045000744,0.040652758520548865,0.9790057447221004,0.030109987679744363,0.7870859502218129,0.9093528495494692,0.3417721368557406,0.5011709006970918,0.3858920597957976,0.9632859784183869,0.9907254718390787,0.9946434411130382,0.8166323758163423,0.96347979397832,0.9485432373887129,S_LF
0.9205458134012185,0.9507811199999999,0.9731198378260356,0.4024691393964329,0.7469586978663414,0.5826086630878982,0.9958220582515608,0.005765811745644679,0.9943368273407429,0.9664163129753973,0.046554771446229326,0.9746067428077162,0.041111791485091996,0.8917977076700269,0.9107914593373201,0.4767932419484065,0.5737704254155953,0.3319501689003255,0.9635511189105135,0.9908135783505132,0.9943164178115933,0.8905093734737896,0.9698987790333745,0.9219993329203792,S_LF
0.9285714755331376,0.9523436799999999,0.971118103684745,0.42469136161865517,0.6982968883993123,0.5434782212476328,0.9956659071390201,0.005573216781280787,0.9943122413735526,0.9647718708410216,0.04135684661818387,0.9748361313900124,0.0283729231773974,0.8848166379065083,0.9553960243449786,0.5738396344602925,0.5550350678101402,0.3858920597957976,0.9639279593882368,0.9912302016620617,0.9950449760527876,0.8842080219006351,0.9871430151505178,0.9634645623114673,S_LF
0.9173357457876286,0.9421875199999998,0.9814126862132511,0.5061728484910825,0.7128954363391778,0.5217390821455524,0.9958565985898187,0.005500993669644274,0.9943122413735526,0.9690100109561084,0.04268728437996104,0.976819194702831,0.03358435385872849,0.8900527976461943,0.936690560987095,0.5021097077898838,0.5316158635170217,0.39004141720269314,0.9642172035614658,0.9914523505584135,0.9953761388896938,0.888746059145568,0.98029575418996,0.9458382661794293,S_LF
0.9141253494420761,0.9531251199999999,0.9825565677594092,0.538271595953362,0.763990314286857,0.534782582693759,0.9962926703603241,0.005786274960608425,0.9943743209407083,0.9752988309380809,0.04633654855792444,0.9793972162547615,0.0028951865620083384,0.8900527976461943,0.9410075690559219,0.40084389693451744,0.48711938671138466,0.44398333527659073,0.9647028045514804,0.9920118645583783,0.9965186506770214,0.910966931707584,0.999889643428499,0.9773376192588084,S_LF
0.9261638426399543,0.9453126399999998,0.9825565677594092,0.5308641939369004,0.7323601494483736,0.5956521408534936,0.9965754693798102,0.005647245470708144,0.9944947921799415,0.9703990157283761,0.03514165886043232,0.9791670427671367,0.06427328398115831,0.8952882425517861,0.9482017967004504,0.37974684667280767,0.46370016094285643,0.46887958843166616,0.9640696420015461,0.991755263756914,0.9964689762514849,0.8663510134916385,0.9642172815334396,0.9225454585439335,S_LF
0.9494383943153039,0.9859376000000001,1.0,0.4962962909053506,0.7420925115011469,0.639130416209828,0.9973796116298757,0.005047191784861878,0.9950936653640885,1.0,0.01122043232563978,1.0,0.0318470521820912,0.8848166379065083,0.9223021056980379,0.3417721368557406,0.46604210039324545,0.3983401591949098,0.9638668183434893,0.991788021306037,0.9966428367408613,0.8892394659160325,0.9774321699819606,0.9392517712430035,S_LF
0.9277690408127306,0.9874998399999999,0.9679726051262688,0.47407406868312835,0.763990314286857,0.639130416209828,0.9976537755647975,0.005411316639362301,0.995277650351897,0.97903532900469,0.0495682462931262,0.9806958421210026,0.03300517424175257,0.8813268178588431,0.9280577235547156,0.3122362830716236,0.44262288996429566,0.4107883129508731,0.963474104709918,0.9917934808975576,0.9968994879394635,0.8842230800930194,0.9775976159852898,0.9423196044437765,S_LF
0.9253614079195474,0.97187488,0.9796969810229864,0.43950617373799716,0.8126521301285824,0.6086956243147419,0.997848424762688,0.0058386367165448065,0.9954792552828585,0.9807546583978366,0.041704448470801854,0.9832976070591246,0.03647954042073669,0.8638741434500466,0.9395683699154339,0.40928269216578633,0.4519905710679599,0.39004141720269314,0.9629232474125287,0.9917673125106145,0.9972637670600608,0.8648712951199913,0.9758823798691415,0.9490747019217021,S_LF
0.9398075340106088,0.9585936,0.9722619852309032,0.4716049454595326,0.8126521301285824,0.5173912486294836,0.997859938208774,0.006081185999790621,0.9954741332063605,0.9673826663693972,0.0322181384865771,0.9781727639420772,0.0283729231773974,0.8883071727882675,0.9107914593373201,0.40084389693451744,0.484777462600574,0.39004141720269314,0.9631149010720258,0.9918396050328172,0.9972968833437514,0.8973181861303006,0.9773783245050446,0.9348057955291004,S_LF
0.9341895047718731,0.9679686400000002,0.9776952468816957,0.4370370456625502,0.8175182862139708,0.5304347491776902,0.9979531251630321,0.006374291461181974,0.9955769845024405,0.9764925817160193,0.03498507144439678,0.9824559923204863,0.024319614555727686,0.9179756470320803,0.8920865853320736,0.48523204547081367,0.5503512318601816,0.2987550922177568,0.9642924540780783,0.9920591182642973,0.9968498135139277,0.9281980212531328,0.9791463398510409,0.9224355003646945,S_LF
0.9518460272084871,0.97656256,0.9771233061086166,0.45432098424005535,0.8053528641270196,0.534782582693759,0.9981355413244565,0.0063411892016818966,0.9957552327645711,0.9782717525259917,0.021876150459406545,0.9861772284835866,0.024319614555727686,0.9040142223391372,0.8992808129766021,0.5147679545291863,0.559718911429888,0.3983401591949098,0.9652136850119196,0.9922887976317121,0.996779441411085,0.9154602963151098,0.9791339003019185,0.9290586480275334,S_LF
0.9349922682242425,0.9664064,0.97740921793067,0.46419753859121976,0.763990314286857,0.504347776559541,0.9982841367380032,0.006335772468309153,0.9958185416300865,0.9754592059351742,0.03425155379693942,0.9820598113558533,0.025477736615389063,0.8726008380714919,0.9338133414113933,0.5147679545291863,0.564402744311931,0.2738588390626813,0.9653518402572627,0.9925949112804141,0.9970071158614581,0.881688284374967,0.9824575701196059,0.9544406610685733,S_LF
0.9277690408127306,0.96171872,0.9705462800406386,0.375308654554182,0.781021956206157,0.434782582693759,0.9980024171040877,0.006645128129818737,0.9956835236935991,0.9688209120789386,0.043864466372852434,0.976466968436602,0.01852924143171114,0.8551481636626955,0.9568346341328294,0.47257385400576685,0.5362997010009383,0.3360995317429062,0.9650149766164899,0.9929985445293792,0.9979136741274895,0.8678889568738389,0.9897069839325097,0.9781439792398953,S_LF
0.9414127321833851,0.93671872,0.9631112842485554,0.3654321131412873,0.8296837561111422,0.469565193865782,0.9973152082908324,0.006949668917219192,0.9954333614774363,0.9499373545853572,0.03312212541319379,0.9686253717507862,0.030109987679744363,0.8830717278826757,0.902158621904941,0.5232067580515937,0.5362997010009383,0.39419080178801424,0.9654682434001476,0.9930542700152437,0.997806046205495,0.8938553038216187,0.9737113231315762,0.9285858278568049,S_LF
0.9229534462944018,0.9421875199999998,0.9702602510896127,0.4049382787928659,0.7956204882092826,0.5130434435916787,0.9969636883900209,0.007352312764592436,0.9952850261420542,0.959968827751098,0.04498278926609932,0.9714922384636577,0.023740672113042233,0.8743457480953244,0.9050364308332798,0.4683544384259993,0.5199062629044203,0.402489598137082,0.9656757702154927,0.9931536722332724,0.9979260927338733,0.8910479548214073,0.9772180320292089,0.9378076538223292,S_LF
0.9309794371582831,0.9437500799999998,0.9796969810229864,0.43209876363511684,0.7956204882092826,0.5130434435916787,0.9968557498329651,0.007479906928483615,0.9952729380415187,0.9670109656831701,0.032669576675360516,0.9778782282175036,0.03763742530610787,0.8638741434500466,0.965468060917846,0.42616033790257973,0.5316158635170217,0.3983401591949098,0.9649597145183527,0.9933547358106487,0.9986339532977608,0.8577738671094445,0.9810501239903173,0.9644615164699021,S_LF
0.9317818718786901,0.9578124800000001,0.9814126862132511,0.47407406868312835,0.7956204882092826,0.5913043187287303,0.9970460814885733,0.00759125089225635,0.995429263816238,0.9747845367043315,0.03310990937364478,0.9819416831038924,0.030109987679744363,0.8813268178588431,0.8892087764037349,0.4388185293676266,0.583138121858838,0.3568464302089287,0.9651784113322575,0.99341667393514,0.9982531160353187,0.8954851021773644,0.9705698038546111,0.9208227804025202,S_LF
0.9149277841624831,0.90312512,0.9782670705258023,0.44444445091357937,0.8296837561111422,0.5782608352674822,0.9965956179104607,0.008037228606611544,0.9952463032437291,0.9488198588700024,0.04051060824216204,0.9664627613440405,0.03300517424175257,0.8848166379065083,0.9165470771939978,0.3544303835950432,0.5737704254155953,0.34854763114201837,0.9650038066179303,0.9935676598799489,0.9981703253260917,0.889706269879951,0.9754045234749931,0.9345309000810023,S_LF
0.9004816580714216,0.9796873600000001,0.9765513653355375,0.41728395960219355,0.7956204882092826,0.5782608352674822,0.996819050723566,0.008865988812640065,0.9953528424348878,0.9846983787421403,0.06566287839876594,0.9802254876028128,0.0318470521820912,0.9057591323629699,0.8964030040482633,0.31645569865139106,0.5807961824084489,0.30705388856682453,0.9652354371143779,0.9936996313853241,0.9976611624643482,0.9119667956819127,0.9740537661481341,0.9197488555186174,S_LF
0.9149277841624831,0.9640623999999999,0.9776952468816957,0.4024691393964329,0.7518248762631659,0.600058665223768,0.996820849699517,0.009105528799567808,0.9954602011582859,0.9766830483970023,0.05044058257182062,0.9792545597112804,0.03126810973940574,0.9162307370082478,0.9223021056980379,0.40084389693451744,0.564402744311931,0.21161815181814153,0.9657939370423607,0.9939599974223198,0.9972927438082899,0.9148378910298849,0.9816322948892503,0.9348754357092849,S_LF
0.9349922682242425,0.95156256,0.9622534316534231,0.41975309899862645,0.7834550501855913,0.6043477964943257,0.9964635730756625,0.009319790697422461,0.9953897213856733,0.9569292257272956,0.04141181879615389,0.9706235444911812,0.02605667905807465,0.8865622627644351,0.912230658477808,0.43459914142498696,0.5807961824084489,0.31535263055904117,0.9660267433281304,0.994182522842225,0.9972472089182156,0.8973352520816696,0.9789163859001194,0.9381815116317422,S_LF
0.9438203650765683,0.9539062399999999,0.9679726051262688,0.37777781012345213,0.7615572362441629,0.5565216933175754,0.9960879468971082,0.009167520303722447,0.9953708721441606,0.9614792251117836,0.030788861859359043,0.9753125689244992,0.029531045237058778,0.8813268178588431,0.9453239877721116,0.5611814429952456,0.6721310846738592,0.31120327315214563,0.9663212785533087,0.9946710621524228,0.9975990694324286,0.882857302043748,0.9836837542473951,0.9565225359288346,S_LF
0.9181381805080355,0.9492188800000001,0.9628253724265022,0.3925926141563755,0.7469586978663414,0.5739130102948925,0.9956810185370079,0.009468449935541001,0.9952231514579583,0.9580990399385034,0.05482225384819133,0.968384798267557,0.03705848286342228,0.8987787774335454,0.9294963333425665,0.5274261459942333,0.615925013391452,0.30705388856682453,0.9667545569184913,0.9949101546086663,0.997491441510434,0.8947859001109788,0.9775686496066187,0.9365761222148509,S_LF
0.9510435924880801,0.9562499200000001,0.9705462800406386,0.41975309899862645,0.8126521301285824,0.5565216933175754,0.9954975229900132,0.009419699335186308,0.9952655622513616,0.9637887618503101,0.02349255460153235,0.978086031903262,0.03532141836107532,0.8795811930009164,0.9064750406211304,0.45569619168669667,0.5854800306300701,0.3319501689003255,0.9667816000728989,0.9949598557176806,0.9972099530990636,0.8861435015617856,0.9710405519349754,0.9268448233521849,S_LF
0.9109149530965236,0.9703126399999998,0.9674006643531897,0.38765433536350963,0.8321168500905765,0.6217391020803372,0.995384907095485,0.010330312401069386,0.9952993679562484,0.9722869269414948,0.061342287320139646,0.9745586673563369,0.026635858675050438,0.8883071727882675,0.9251799146263768,0.4177215620173003,0.5386416251117488,0.34854763114201837,0.9668980032157838,0.9951511296826752,0.9974003717302846,0.8953054077482431,0.9817270131704259,0.9454680736426576,S_LF
0.9197433786808118,0.9226563200000001,0.9571060818246838,0.34074075152263217,0.7007299823787465,0.5652173603497131,0.9944886572767319,0.010319478934323898,0.9949647939193986,0.9410893736689557,0.05278939381235394,0.9596939340161487,0.01679217692936418,0.8743457480953244,0.9136692682656589,0.48523204547081367,0.6042153928373987,0.34854763114201837,0.9672054721235049,0.9954916952364895,0.9976777206061935,0.8942814506660991,0.9834003102352468,0.9497161246339305,S_LF
0.9277690408127306,0.9210937600000001,0.9728339260039823,0.434567919204387,0.6642336204974525,0.539130387731564,0.9941141104837483,0.00973146243375035,0.9947992484069831,0.9516016298750236,0.03604231413989925,0.9689032282371263,0.017950298989025556,0.8586386985444548,0.9438853779842606,0.44725738816428945,0.5925057876229237,0.31120327315214563,0.9669144642662928,0.9958926928205826,0.9983234881381614,0.8740838972208099,0.9875752006286024,0.9699704212497842,S_LF
0.9494383943153039,0.9453126399999998,0.9708321918626918,0.5061728484910825,0.7469586978663414,0.6086956243147419,0.9941382167614907,0.00933062416416795,0.9948516984703225,0.9590496635886521,0.022966709626405856,0.9756540027424592,0.023161492496066312,0.8586386985444548,0.9985613902121491,0.32489455744805396,0.5690865925335523,0.48132774218762947,0.9658680117696511,0.9964363928313154,1.0,0.8573427008675024,0.9968247162325595,1.0,S_LF
0.9253614079195474,0.9359376000000001,0.9728339260039823,0.5234567919204387,0.725060880737565,0.6217391020803372,0.9941965035823009,0.00919640954837701,0.9948351029424691,0.9587572955235883,0.040381784552373866,0.9718226836070167,0.040532611868116075,0.8708552132135652,0.8690647032580004,0.21940927850237724,0.5409835476886017,0.43153523587747855,0.9651284402860695,0.9961056168898828,0.9992879999006511,0.884184430732566,0.9583120498571442,0.9000296887083944,S_LF
0.9333870700514663,0.9710937600000001,0.9837003321765949,0.45925926141563755,0.7956204882092826,0.5478260547637016,0.9945598967243885,0.009281271704549853,0.9950432641313481,0.9825553721178664,0.032389718314786285,0.9862417869468675,0.03126810973940574,0.8568937885206223,0.9107914593373201,0.33333333333333337,0.601873468726588,0.3692945296080409,0.9644429551113032,0.9961690611085866,0.9992879999006511,0.8701888447906937,0.9717515610212485,0.937037946567655,S_LF
0.9357947029446494,0.9976563200000002,0.9705462800406386,0.4098765575857318,0.7785888622267227,0.6913043329678623,0.99481427192385,0.009477477824495432,0.9953731258578199,0.9849538161042485,0.04276613336250374,0.9853071609267848,0.07353802328415898,0.8534032536388629,0.9151078780535098,0.4177215620173003,0.6885245074307986,0.2863069928186446,0.9631595810662644,0.9958367790729414,0.9982531160353187,0.8332882424128043,0.9454264540446803,0.8995128852659703,S_LF
0.9245586444671781,0.9414064,0.9837003321765949,0.3703703757613161,0.8175182862139708,0.6173912742599212,0.9946027123520207,0.009738082885650536,0.9954876554883153,0.969610134879134,0.03516220401785544,0.9787408391736832,0.01910818387439673,0.8429323638276791,0.8877701666158839,0.40506329593200824,0.7049178995085813,0.2157675907603137,0.9628121353215929,0.996111641266733,0.9979178136629511,0.8738489894196122,0.9723722945224613,0.9364148502186332,S_LF
0.9269662773603613,0.9554687999999999,0.9665428117580575,0.3851852121399138,0.8175182862139708,0.7260869441398853,0.9943026431634057,0.010229801904042138,0.9955915311996948,0.9629202064289515,0.04607112733499892,0.9728399209129391,0.04748110705179413,0.9162307370082478,0.9151078780535098,0.3417721368557406,0.7330210808757796,0.228215744516277,0.962999085823802,0.996355628529167,0.9971395809962209,0.9043769647803939,0.9698543520722228,0.9145478336406053,S_LF
0.9165329823352593,0.96171872,0.9754074837893794,0.3827160565706437,0.8321168500905765,0.7130434435916787,0.9942421975714545,0.010844902071479406,0.9957734673569041,0.9736937131633336,0.05018182464319463,0.9777161452671387,0.027214801117736026,0.8691103031897326,0.9251799146263768,0.30379750718634424,0.7845431965595168,0.25726138225667355,0.9624729201021761,0.9969042233460906,0.997176836815373,0.8795931878745411,0.9790007971263077,0.9479274715849735,S_LF
0.9277690408127306,0.9656249599999999,0.9636832250216345,0.3629629737448544,0.8540146640320048,0.6869564994517935,0.9939295355511828,0.011577364795325767,0.9958459959601159,0.9654273908184802,0.04882528897874467,0.973592056444112,0.039953669425430625,0.9057591323629699,0.902158621904941,0.2742616534022272,0.7494144882931406,0.228215744516277,0.9624746837861592,0.9971700489746068,0.9964358599677944,0.9046183977982916,0.9703339855448174,0.9154714823462142,S_LF
0.9205458134012185,0.95156256,0.9731198378260356,0.40000001617283715,0.8199513961301451,0.7652173888279771,0.9937838184991575,0.012026351805999248,0.996012770770891,0.9667818585444652,0.046678597665292754,0.974775889906039,0.03821660492308366,0.8586386985444548,0.886330967475396,0.35864979917481066,0.7236533537533801,0.2240663055741048,0.9619614517470759,0.9972141022303241,0.9956907435847548,0.8721107720786982,0.9621672438380515,0.9149290219953007,S_LF
0.9229534462944018,0.9562499200000001,0.9691163695434545,0.3925926141563755,0.705596170337615,0.7565217502741034,0.9935952858195001,0.011901165079162739,0.9961498375379777,0.9656804345239154,0.047931296993577274,0.97391877328716,0.004053308621669714,0.8883071727882675,0.9266191137668651,0.26160340666292464,0.634660360259202,0.228215744516277,0.9618697401799546,0.9979168834422582,0.9959763715315867,0.9118854814430367,0.9957024911938654,0.9675366802159578,S_LF
0.9317818718786901,0.95,0.9731198378260356,0.3827160565706437,0.6982968883993123,0.7652173888279771,0.9932293741110809,0.011393195860652905,0.996436878704926,0.9648566746774376,0.03705569014793084,0.9757956781542795,0.042269913544753374,0.7870859502218129,0.9467625975599621,0.13080174478715406,0.6182669221626843,0.2697094816557858,0.9589026358257128,0.9978176694860059,0.9963572087940293,0.7975139928252732,0.9640665852812127,0.9607999091012384,S_LF
0.9181381805080355,0.9507811199999999,0.9596797567390535,0.32839510305897895,0.7445256038869073,0.7304347776559541,0.9926342728665134,0.01168569946278043,0.9964043022983987,0.956418692954032,0.05707555787043352,0.9670008139468259,0.03590036080376091,0.9197205570559128,0.9035972316927916,0.18143464883298085,0.6135830739410629,0.228215744516277,0.9590302089671573,0.9979325091697134,0.9956907435847548,0.9185045608755034,0.9748634030881642,0.91809948283003,S_LF
0.9285714755331376,0.9273436799999999,0.9596797567390535,0.34320990709190236,0.7688565022457258,0.6956521664839312,0.9918679091114174,0.01182111779709881,0.996249205822039,0.9442972155617776,0.04453579327351552,0.963177736317334,0.03705848286342228,0.9040142223391372,0.9050364308332798,0.2531646031405174,0.6627634035701949,0.36514516404761765,0.959041378965717,0.9980797298789909,0.9953802784251553,0.9047042294948829,0.9725894535085713,0.9203646213223569,S_LF
0.9325843065990969,0.94687488,0.9682585169483222,0.40000001617283715,0.7372263346979964,0.6739130273818509,0.9916124545263855,0.011668847403398583,0.99627215272475,0.9595995207215439,0.03892641002248322,0.9725828644178083,0.041111791485091996,0.8917977076700269,0.8935251951199246,0.35021099565240343,0.65105379835572,0.34854763114201837,0.9590913500119048,0.9980767176905657,0.9948255806733368,0.8945996804651576,0.9659630833988601,0.9112051049917347,S_LF
0.9301766737059138,0.9406249599999998,0.9759794245624585,0.46172838949108447,0.6569343544958899,0.7565217502741034,0.9916203700205695,0.010994163168861348,0.996439747067765,0.9628224084563104,0.03515276435093127,0.975109867123377,0.04342779843012442,0.8900527976461943,0.8791367398308675,0.29957809160657667,0.5620608355406986,0.30290447680307786,0.9589884684462238,0.9978090094442839,0.9939397200846121,0.8948948210358932,0.9610363111149717,0.9002899230659268,S_LF
0.9341895047718731,0.9476563200000001,0.9725478970529565,0.45925926141563755,0.6618005424547584,0.7478260832419656,0.9916254071532321,0.010357396067933105,0.9965983265561432,0.9630696389955397,0.03503338032806747,0.9752676330944343,0.034163296301413945,0.8726008380714919,0.9280577235547156,0.2869198448672741,0.5433254615218949,0.39004141720269314,0.9584352595701902,0.9978253882188454,0.9942129294250601,0.8763667191862954,0.9757986794743316,0.9426054957097979,S_LF
0.9125201512692999,0.9562499200000001,0.9751215719673262,0.48395061009602297,0.695863810356618,0.7173912771077475,0.9918779833767426,0.010321284512114955,0.9967261735855334,0.9713438262123186,0.052842144892224045,0.9758904554727132,0.040532611868116075,0.8848166379065083,0.8992808129766021,0.24894513228649423,0.5292739409401689,0.4149376975361942,0.9580278485700932,0.9976254542121286,0.993952138690996,0.888088518078113,0.9667940452802432,0.9164867628678557,S_LF
0.9317818718786901,0.9328124800000002,0.9668287235801106,0.4790123474759943,0.7201947039344145,0.7043478050378049,0.9917103188181159,0.0100925779919327,0.9966950313604256,0.9520167583323188,0.0382645227887443,0.9686557868322713,0.034742238744099534,0.8568937885206223,0.9525182154166397,0.240506328764087,0.5386416251117488,0.31120327315214563,0.9568873329276859,0.997705277205394,0.9944488829463556,0.8575675698737771,0.9790114595969842,0.9600448629371293,S_LF
0.9157305476148523,0.94687488,0.9782670705258023,0.43209876363511684,0.7153285143818721,0.7130434435916787,0.991749176698656,0.010023966035878087,0.9968259516357147,0.9689942812122572,0.046716911607514344,0.9759499120513581,0.034742238744099534,0.9040142223391372,0.9280577235547156,0.24894513228649423,0.564402744311931,0.36113686266931816,0.9568444166174306,0.9978340482605677,0.9945275341201212,0.9010862478046411,0.9793194272916883,0.9370709340214268,S_LF
0.9285714755331376,0.9546873600000001,0.9714041326357709,0.44444445091357937,0.7153285143818721,0.7434782497258967,0.9917682458437358,0.009850630567950498,0.9969669111809399,0.9660876981092847,0.04154675050571626,0.9754997688453807,0.03647954042073669,0.9057591323629699,0.9352519511992442,0.20253169909469063,0.583138121858838,0.3236513725512578,0.9566298350661528,0.9980085669274474,0.9945854876165799,0.899502627905541,0.9801164469747514,0.9396696123241127,S_LF
0.9189406152284424,0.9546873600000001,0.9665428117580575,0.40000001617283715,0.7542579702426002,0.7478260832419656,0.9915948245620664,0.010123874673641934,0.9970298102803353,0.9634191128698028,0.05266889924044008,0.9716939591331191,0.020266305934058104,0.8970331525756187,0.964028861777358,0.20253169909469063,0.571428516644363,0.32780081149343,0.9563511729968224,0.9984918349079015,0.9954382319216141,0.8982608289735683,0.9956266099442183,0.9746986229570684,S_LF
0.9060996873101573,0.9578124800000001,0.971118103684745,0.4419753228381324,0.705596170337615,0.7608695553119083,0.9916844135644227,0.010310451045369467,0.9971488473381491,0.9697434957509175,0.06098246942797286,0.9732802528023082,0.034742238744099534,0.8848166379065083,0.8805759389713558,0.26160340666292464,0.5854800306300701,0.30705388856682453,0.9562300666966492,0.9983666408264827,0.994775906247801,0.8968328103957744,0.9661669142966245,0.9104683851908324,S_LF
0.9197433786808118,0.96484384,0.9636832250216345,0.4148148363785977,0.695863810356618,0.734782582693759,0.9916030998514405,0.010318877075060283,0.9972203515260613,0.9659276650631446,0.05544305076708402,0.9724382456110057,0.023161492496066312,0.8917977076700269,0.9539568252044907,0.29535870366393696,0.6229507550447272,0.36113686266931816,0.9561730409145289,0.9988258112995358,0.9955127435599176,0.8941383978384467,0.9908823436167413,0.966378454061305,S_LF
0.9285714755331376,0.9445312000000001,0.9745496311942471,0.40000001617283715,0.7153285143818721,0.600058665223768,0.9914397528350961,0.010062485028750909,0.9972012974014887,0.9637278945806246,0.03798799607531983,0.9749937011347376,0.03763742530610787,0.876090658119157,0.8992808129766021,0.32911394539069366,0.6370022843700128,0.34854763114201837,0.9559496409433359,0.9988160216871542,0.995173301652089,0.8833140672127436,0.9675469934178436,0.9206944958600743,S_LF
0.9157305476148523,0.95156256,0.9814126862132511,0.39753087677640425,0.695863810356618,0.6304347491776903,0.9914670972695502,0.009859658456905143,0.9972908312986738,0.9735446225476986,0.04547920469140346,0.9786446882709242,0.0028951865620083384,0.8621292334262141,0.8374099837515477,0.3544303835950432,0.6416861172520557,0.3568464302089287,0.9564905040314877,0.9989244604704582,0.9947966039251077,0.9120732069080965,0.9732702522612613,0.917978528832867,S_LF
0.9470307614221208,0.9273436799999999,0.9662567828070315,0.3679012525377203,0.7372263346979964,0.5999999678480401,0.990864440325989,0.009444977424259184,0.9971443399108308,0.9473884521795268,0.02499124054436894,0.9689630772684352,0.024898556998413274,0.8830717278826757,0.9223021056980379,0.3417721368557406,0.6042153928373987,0.30290447680307786,0.9565304808684381,0.9991492450316823,0.9949414876662545,0.8931129349370642,0.9814913725684768,0.9461278227180927,S_LF
0.8988764598986454,0.9492188800000001,0.9593938449170002,0.41728395960219355,0.7323601494483736,0.6217391020803372,0.9906320126331286,0.010057068295378165,0.9969232710891769,0.9575939783804929,0.07314686844602551,0.9641510189248523,0.041111791485091996,0.8883071727882675,0.8805759389713558,0.29957809160657667,0.5878219394013025,0.3319501689003255,0.9564969708727591,0.9989342500828399,0.9942005108186758,0.8948822725422395,0.9626081370005218,0.9037242835308299,S_LF
0.9317818718786901,0.96015616,0.9765513653355375,0.4716049454595326,0.7104623423597435,0.6869564994517935,0.9908853084470197,0.009748314493132194,0.9970974216901091,0.9722147752903506,0.03649874979940721,0.9798495179503924,0.0017370645023469628,0.9057591323629699,0.9165470771939978,0.270042182548204,0.5948477117337344,0.32780081149343,0.9571648192076944,0.9994685370047443,0.9947469294995719,0.9295251499419508,0.9969069949646127,0.9608548881908576,S_LF
0.9357947029446494,0.9453126399999998,0.9714041326357709,0.45925926141563755,0.7420925115011469,0.6695651938657821,0.9908597629885163,0.009560534402877432,0.9971404471326923,0.9609307357827052,0.03403610728125937,0.9743328108480196,0.023161492496066312,0.8795811930009164,0.8906473861915857,0.2869198448672741,0.5948477117337344,0.3526970646485055,0.9571554128931178,0.9995268981554808,0.9946103248293475,0.898930416594931,0.9749554557516706,0.9286151500379353,S_LF
0.9181381805080355,0.95,0.9754074837893794,0.45925926141563755,0.7274939731233253,0.6739130273818509,0.9909849717147011,0.009576182743732049,0.9972092878408255,0.9680392121997159,0.04700010161523815,0.9753788934247697,0.030689167296720152,0.8987787774335454,0.8920865853320736,0.31645569865139106,0.60889924105902,0.3360995317429062,0.9574722881154156,0.9995590909192741,0.994233627102367,0.9082509357411718,0.9729503781409684,0.9192870311658132,S_LF
0.9317818718786901,0.9109376000000001,0.9653989302118993,0.44691357898902623,0.7858881441650255,0.600058665223768,0.990493131689717,0.00965081329242302,0.9969427349798692,0.9407429773532723,0.03567583295343313,0.9631406495405558,0.03705848286342228,0.9075047572208966,0.9453239877721116,0.3417721368557406,0.6065573169482094,0.3360995317429062,0.9576092675714365,0.9997923472604439,0.9944447434108947,0.8981253052421081,0.9823036751261761,0.9452298309209727,S_LF
0.9205458134012185,0.9578124800000001,0.9488133505664409,0.4567901333401906,0.7664234082662914,0.600058665223768,0.9902603442016668,0.010231005622569367,0.9966751577036134,0.9510685283388434,0.06316136666387177,0.9628231553351192,0.03126810973940574,0.8830717278826757,0.8935251951199246,0.39240510446696136,0.6042153928373987,0.28215763541174904,0.9578291401746635,0.999778227627201,0.9940100921874547,0.8950007303223306,0.9710400188114415,0.9221129563722598,S_LF
0.9301766737059138,0.9554687999999999,0.9659708709849784,0.4567901333401906,0.8077859421697138,0.6434782212476329,0.9902650215391391,0.010608973240133563,0.9966696258609955,0.9621374806968688,0.04373952960473896,0.9729186076721356,0.030689167296720152,0.8795811930009164,0.8892087764037349,0.4810126298910462,0.6487118895844877,0.36113686266931816,0.9582900495889147,0.999822845668248,0.9937244642406229,0.8936715938745281,0.9700034489538482,0.9205442196817806,S_LF
0.9213485768535881,0.9539062399999999,0.9613955790582908,0.434567919204387,0.781021956206157,0.5478260547637016,0.9901275797764879,0.011047728643324957,0.9964813383289287,0.9588533837414632,0.05379333015346137,0.9690097791354896,0.04342779843012442,0.8708552132135652,0.9956835812838103,0.5527425841985828,0.5435151625596479,0.3692945296080409,0.9579443675282263,1.0,0.9947469294995719,0.8515081532582666,0.9852683750977571,0.9773669414399387,S_LF
0.9052972525897504,0.95156256,0.9659708709849784,0.45925926141563755,0.7153285143818721,0.6043477964943257,0.9901592417532243,0.01133963038618908,0.996356974311557,0.9630009068539283,0.06393597462617537,0.9690409791223031,0.051534415673463715,0.8970331525756187,0.8964030040482633,0.4430380002216498,0.6697891759026269,0.34854763114201837,0.9582053927577255,0.9998804537718784,0.9939976735810709,0.8902860102867531,0.9606768081453314,0.9019466262997972,S_LF
0.9349922682242425,0.96171872,0.9633971960706088,0.4987654303017835,0.6982968883993123,0.6521738882797705,0.9903125145042436,0.011056154673015987,0.9963784870328488,0.962588172053306,0.04230803187942119,0.9734649017808717,0.048060286668769915,0.8987787774335454,0.9064750406211304,0.33333333333333337,0.6112411498302522,0.37759332867495116,0.9581671796047583,0.9997492353136094,0.9935423246803247,0.8918942252334147,0.9653899756000021,0.9113883686237998,S_LF
0.9197433786808118,0.9539062399999999,0.9679726051262688,0.5333333333333333,0.6107056485703389,0.7391304162098279,0.9905888372103064,0.010524712943224334,0.9964592109584575,0.9640554835938772,0.050966982821472044,0.9723993927972379,0.03763742530610787,0.8499127187571037,0.9928057723554715,0.3459916077097637,0.522248187015231,0.3319501689003255,0.9569420071311622,0.9998936320962382,0.9946393015775773,0.8399946593611011,0.985455679165973,0.9842796456414405,S_LF
0.9221510115739948,0.9359376000000001,0.9539605832662076,0.5135802505075441,0.4939173447351146,0.7391304162098279,0.9904035426873606,0.009396226823904489,0.9963127195706143,0.9445895836268412,0.054922758537207,0.9611185371876372,0.03879554736576925,0.8586386985444548,0.9323741422709053,0.2742616534022272,0.5152224146827991,0.24481320132228476,0.9559996119895238,0.9997405752718872,0.9945937666875023,0.8606043053379786,0.9721549578285067,0.9431736129692003,S_LF
0.9085073202033404,0.9320313599999999,0.9791250402499073,0.5061728484910825,0.5158150630561026,0.7086956385538739,0.9905956733189198,0.008301444823348336,0.9963715210088115,0.9635063103628919,0.04983366751605172,0.9723487664035403,0.0318470521820912,0.9005236874573779,0.9050364308332798,0.23206755287880762,0.46604210039324545,0.32780081149343,0.9560354735638468,0.9995797997146968,0.9943495340952839,0.9057934387440262,0.9754011470259455,0.9259578273729887,S_LF
0.9093100836557099,0.9609376000000001,0.9785530994768282,0.45925926141563755,0.5182482845294574,0.600058665223768,0.9909007796401975,0.0074137024094834605,0.996439542184705,0.9764573607678303,0.05407818598475995,0.9783511336780114,0.022003370436404934,0.8743457480953244,0.851799028393242,0.20675103176307466,0.484777462600574,0.3236513725512578,0.9559308283141826,0.9992546716265613,0.9936623712087032,0.9045927988712378,0.966327739895994,0.9067261418240593,S_LF
0.9293742389855069,0.97187488,0.9762654535134844,0.5209876525240057,0.5766423966052193,0.6086956243147419,0.9914314775457219,0.006494061454645738,0.9965905409998662,0.9777543807336626,0.04051227406573682,0.9819524755521613,0.030689167296720152,0.8446772738515117,0.8935251951199246,0.1856539815013649,0.4121779225424922,0.27800819646957686,0.9548367563499972,0.9988139508076119,0.9933850223327937,0.8650901408493121,0.9667572597564095,0.928816740033207,S_LF
0.9237562097467711,0.9171875199999999,0.9656849591629252,0.4790123474759943,0.5036497525263319,0.6826086659357247,0.9911191753206404,0.005246407201125743,0.9964354445235065,0.9447352547329433,0.04318925255051485,0.963699305908218,0.02895186562008299,0.8394418289459199,0.9323741422709053,0.23206755287880762,0.4590163280608135,0.2863069928186446,0.953660379133267,0.9986693657632065,0.9937451619179296,0.8530506140981824,0.9758454166374633,0.9555219164977583,S_LF
0.9325843065990969,0.97656256,0.9699743392675595,0.44691357898902623,0.5523114727476167,0.7217391106238165,0.991342967928936,0.0043454238834609235,0.9966563084621007,0.9748669468840745,0.04252347839510124,0.9799823631772654,0.0318470521820912,0.8481678087332709,0.8848923576875452,0.22784808202478446,0.49648705247547054,0.2033194098259249,0.9528355629238353,0.998345555507507,0.9931407897405753,0.8690138038449589,0.9645439085518275,0.9218160692883135,S_LF
0.9438203650765683,0.96484384,0.9811267743911978,0.38765433536350963,0.5693430668566963,0.8260869441398854,0.9914044929064579,0.0030959640521500847,0.9970918898474912,0.9766146582063442,0.02432879803610509,0.9847755837929608,0.0283729231773974,0.8708552132135652,0.8359713739636969,0.240506328764087,0.5292739409401689,0.15767631527952058,0.952845557133073,0.9979609366979754,0.9917913011801814,0.9009196038089197,0.9584883360389944,0.8915702394522613,S_LF
0.9269662773603613,0.9554687999999999,0.980840745440172,0.375308654554182,0.6934307163771837,0.7956521664839312,0.9913807464239057,0.0028522110503768267,0.9973844628570574,0.9737607355501785,0.03711066232590066,0.9805453365242351,0.03532141836107532,0.9267016268194314,0.9035972316927916,0.26160340666292464,0.5995315446157773,0.09128618909280858,0.9534434460033451,0.9980812359732033,0.9908806033786891,0.924543899901168,0.976056355849012,0.9175643530243993,S_LF
0.9197433786808118,0.9531251199999999,0.9814126862132511,0.35061730910836403,0.7153285143818721,0.8260869441398854,0.9912620140111443,0.0028347571317313665,0.9976946558097768,0.9738520364547073,0.04239243360721336,0.979468642639668,0.034163296301413945,0.9930196450705756,0.9107914593373201,0.240506328764087,0.6370022843700128,0.36113686266931816,0.9552353489301787,0.9984724439449149,0.9904873475098626,0.9775196245892251,0.9862909060356266,0.9129900927680503,S_LF
0.9414127321833851,0.9687500799999998,0.9794109520719605,0.32345682426611305,0.7542579702426002,0.8260869441398854,0.9911598321771316,0.0027131815604767586,0.9980859824542246,0.9774028551536795,0.02800027319506639,0.9844217877160747,0.025477736615389063,0.9249567167955989,0.9050364308332798,0.240506328764087,0.6042153928373987,0.36113686266931816,0.9558473472723158,0.9987222673224226,0.990445952155249,0.9300160470136845,0.9822505404806385,0.9282962713181415,S_LF
0.9518460272084871,0.96484384,0.9679726051262688,0.3259259474897088,0.7177616099549802,0.8043478335160689,0.990794999854283,0.0023514641430307935,0.9983427009283047,0.9657751549379768,0.02574641389829927,0.9786770656157308,0.027214801117736026,0.9040142223391372,0.9035972316927916,0.23206755287880762,0.559718911429888,0.1410787225813851,0.9560395888264741,0.9988020903156881,0.9899657660417347,0.9123437524312706,0.9783462991346197,0.9289670162115008,S_LF
0.9285714755331376,0.9640623999999999,0.9659708709849784,0.3728395151577491,0.6885645284183152,0.7652173888279771,0.9906201393918526,0.0022997042463580274,0.9984557963773807,0.9663527100980852,0.046451490384588824,0.9745947730014545,0.0318470521820912,0.9284472516773581,0.8705039023984884,0.1856539815013649,0.5269320198972739,0.1659750572717372,0.9566468840113229,0.9986648474805688,0.9888894868217889,0.9360082037032111,0.9707812761896937,0.9001396468876335,S_LF
0.9662921532995485,0.94843744,0.9691163695434545,0.3925926141563755,0.695863810356618,0.7086956385538739,0.990321149588808,0.0015034444405659698,0.9985697113586964,0.9574236868057542,0.010341988027170755,0.9774123869049535,0.03821660492308366,0.8743457480953244,0.9151078780535098,0.1856539815013649,0.571428516644363,0.27800819646957686,0.9558344135897731,0.9986038506649604,0.9887446030806422,0.8777204506816594,0.9705564757662656,0.9303158365435011,S_LF
0.9277690408127306,0.9773436799999999,0.9734058667770614,0.3925926141563755,0.7347932423122361,0.6999999715217361,0.9904557129899376,0.0016671501602752992,0.9987633258503211,0.9783418524714163,0.044513582292517624,0.9814104984227328,0.03763742530610787,0.790575770269478,0.8791367398308675,0.24894513228649423,0.5807961824084489,0.2738588390626813,0.953933750150648,0.9981778142645835,0.9884217193146588,0.8208843074059703,0.9526870634517943,0.9223145463675315,S_LF
0.9269662773603613,0.9585936,0.9696883103165336,0.3728395151577491,0.7493917822837317,0.6260869270529269,0.9902966835158755,0.0019036808508845421,0.9987438619596286,0.9667863039068579,0.044583546882661085,0.9752258368856841,0.04400697804710021,0.9092496672447292,0.833093565035358,0.35021099565240343,0.5854800306300701,0.3734438951684641,0.9546962495260098,0.9977689096858745,0.9870970679670327,0.9206694270006439,0.952475946532401,0.8682994234526131,S_LF
0.9205458134012185,0.9374998399999999,0.9722619852309032,0.3925926141563755,0.7080292483803092,0.5999999678480401,0.9900365515933709,0.0019211347695302164,0.9986166295794182,0.9595649836752614,0.04499500530564812,0.9712732498769661,0.03532141836107532,0.9005236874573779,0.8964030040482633,0.4683544384259993,0.5901638788516914,0.30290447680307786,0.9554346452202694,0.9977692862094276,0.9867534865237426,0.9052147022167164,0.9712749485820122,0.9172161521234756,S_LF
0.9285714755331376,0.9476563200000001,0.9811267743911978,0.41728395960219355,0.7080292483803092,0.5826086630878982,0.99009267964304,0.0017171044791570087,0.998640191131309,0.9701623856686987,0.034390372428176684,0.9792000087909398,0.029531045237058778,0.914485112150321,0.8920865853320736,0.4767932419484065,0.5854800306300701,0.36514516404761765,0.9565851550719142,0.997857016197309,0.9865630678925209,0.921622610578581,0.975532117707421,0.9179382108338129,S_LF
0.9245586444671781,0.9554687999999999,0.9708321918626918,0.4888888888888889,0.7956204882092826,0.5956521408534936,0.9902963237206852,0.0022334997273578726,0.9985856922373701,0.9664470885611935,0.045383697473112335,0.9748734143931229,0.04458592048978579,0.8656197683079734,0.9237413048385262,0.3881856403840345,0.5339577876278324,0.4398339506912696,0.9560801535580854,0.997679861865557,0.9868279981620467,0.8637584947027788,0.9674476547327082,0.9310598868896859,S_LF
0.9133229147216692,0.9531251199999999,0.9648269894388202,0.5012345696982164,0.7542579702426002,0.5956521408534936,0.9904312469170048,0.002778784220213085,0.9984250639183926,0.9619870222774207,0.05821053899942863,0.9697362090171494,0.04342779843012442,0.8708552132135652,0.8820145487592063,0.3881856403840345,0.5058547335791348,0.4356845932843741,0.9559402346287592,0.9972839473494314,0.9865092539315237,0.8789065343018093,0.9594015766524306,0.9052270453137656,S_LF
0.961476887513182,0.95156256,0.97197607340885,0.4419753228381324,0.7420925115011469,0.634782582693759,0.9903726003010046,0.0022774354536034373,0.9985039438964619,0.9615934367301828,0.013127245044313842,0.9790740314856924,0.03358435385872849,0.8848166379065083,0.902158621904941,0.40084389693451744,0.4800936143789527,0.4398339506912696,0.9561642224946133,0.9971114995620937,0.9866499981372094,0.8926375979974611,0.9717739522096691,0.9249828648504018,S_LF
0.9317818718786901,0.975,0.9674006643531897,0.45432098424005535,0.7396594191153866,0.6782608608979198,0.9905798423305517,0.0024537802178490977,0.9986078196078416,0.9722585450123716,0.04458132578456137,0.9781501979138786,0.03126810973940574,0.8499127187571037,0.9079136504089813,0.39240510446696136,0.5152224146827991,0.36514516404761765,0.9557180104468882,0.9969736919416448,0.9868776725875825,0.8653511495173097,0.9702485080715614,0.9363635364016548,S_LF
0.9406099687310158,0.97812512,0.9785530994768282,0.4098765575857318,0.7445256038869073,0.634782582693759,0.9908266618310192,0.002352066002294408,0.9988258151835967,0.9812491194762952,0.030645045757397234,0.9859154625564838,0.041111791485091996,0.8987787774335454,0.8978422031887513,0.3755274476753168,0.5035128094683241,0.30290447680307786,0.9560201883026599,0.9967652861549824,0.9864306027577586,0.8991688379743519,0.9677838779747049,0.9127665111369306,S_LF
0.9253614079195474,0.9570313599999999,0.9659708709849784,0.41975309899862645,0.7347932423122361,0.600058665223768,0.9907251995873867,0.002574753929840091,0.9987260371334156,0.9633900470387731,0.0480268042118684,0.9726735209832665,0.026635858675050438,0.8900527976461943,0.9251799146263768,0.4177215620173003,0.5316158635170217,0.3319501689003255,0.9563905619391116,0.9969117538171535,0.9867866028074331,0.896696784724568,0.9819416842467114,0.9451968434672009,S_LF
0.9221510115739948,0.9570313599999999,0.9736917785991147,0.375308654554182,0.7761557841840285,0.5521738882797705,0.9906115043072882,0.0029749903401588775,0.9986569915422225,0.9696046636638812,0.045841243681670155,0.976463240136291,0.03532141836107532,0.8900527976461943,0.9007194227644527,0.4599155796293364,0.5269320198972739,0.40663895554397755,0.9568508834587018,0.9968168698817623,0.9867659051301264,0.8958454949150993,0.9710012785013171,0.9215778265666291,S_LF
0.9157305476148523,0.9523436799999999,0.9831283914035158,0.38024693334704796,0.8077859421697138,0.5521738882797705,0.9906485632118773,0.003486570714250612,0.9986608843203609,0.9751941939463737,0.04452690888111628,0.9797290349824456,0.041111791485091996,0.8952882425517861,0.886330967475396,0.49789029221011627,0.5690865925335523,0.340248900021172,0.9574881612712633,0.9966624952249754,0.9862567422683829,0.8990925431329373,0.9647434744613212,0.9061616898372983,S_LF
0.9317818718786901,0.9507811199999999,0.9705462800406386,0.39753087677640425,0.7396594191153866,0.534782582693759,0.9904870151714837,0.003510645084796045,0.9985397984319481,0.9632621573822423,0.038784259744096196,0.9745751503682383,0.04574404254944717,0.9005236874573779,0.8920865853320736,0.49789029221011627,0.5503512318601816,0.37759332867495116,0.9583047469554404,0.99646632645379,0.9858179515094814,0.8984726475464432,0.9637696354728741,0.9043657062430589,S_LF
0.9301766737059138,0.9492188800000001,0.9659708709849784,0.4123456808093276,0.7664234082662914,0.4869564709735295,0.9902128512365622,0.0038741680800328535,0.9982392349830449,0.9592038834685863,0.042747254028655604,0.9715589554165924,0.030109987679744363,0.8586386985444548,0.9223021056980379,0.4767932419484065,0.5433254615218949,0.25726138225667355,0.9581824648659453,0.9964985192175834,0.9860166492116255,0.8697386048383979,0.9752705317601592,0.9450538978341899,S_LF
0.9221510115739948,0.9539062399999999,0.9708321918626918,0.38024693334704796,0.7445256038869073,0.5217390821455524,0.9900487846298373,0.004101069022424265,0.9981011438006586,0.9659721186870724,0.0471489151879245,0.9742419580562292,0.03647954042073669,0.8394418289459199,0.9093528495494692,0.4388185293676266,0.5292739409401689,0.27800819646957686,0.9575451870533839,0.9963091278703544,0.9860125096761645,0.8527087931310551,0.9660466060858254,0.9340360882744263,S_LF
0.8635634150254177,0.9445312000000001,0.9699743392675595,0.434567919204387,0.77128959622516,0.48260866593572466,0.990094478618991,0.0055070122622806325,0.9977227247889859,0.9673327415302168,0.09485976819509698,0.9645738866706592,0.024898556998413274,0.8656197683079734,0.8820145487592063,0.4177215620173003,0.5339577876278324,0.3319501689003255,0.9576903970346593,0.9962229039766856,0.9859007422187084,0.8886361343411614,0.9702796069443677,0.9238392997863141,S_LF
0.9277690408127306,0.95156256,0.9731198378260356,0.42469136161865517,0.7761557841840285,0.5869564909083143,0.9900844043536656,0.005720070441608271,0.997694246043657,0.9660131528014673,0.040651647971499005,0.9756504706684803,0.041111791485091996,0.9005236874573779,0.9453239877721116,0.43037975348234725,0.564402744311931,0.3858920597957976,0.9578949843766994,0.9963750194921538,0.9863271143712256,0.8893739857680005,0.978907500507889,0.9424332278956565,S_LF
0.9133229147216692,0.9273436799999999,0.9676865761752431,0.42469136161865517,0.7956204882092826,0.5434782212476328,0.989777139261247,0.006304475786600133,0.9974125318362665,0.9521268665392785,0.05225744081745304,0.9657349578780555,0.030689167296720152,0.8743457480953244,0.9093528495494692,0.3881856403840345,0.5573769903869931,0.3983401591949098,0.957856771223732,0.9964057061617345,0.9865796260343668,0.8848073379575369,0.9739231508823478,0.9339041384593391,S_LF
0.9221510115739948,0.9374998399999999,0.9668287235801106,0.3654321131412873,0.7956204882092826,0.5478260547637016,0.9893475438041649,0.0067648981232825015,0.9971992485708895,0.9552444333804312,0.04705896071488266,0.9685178397207621,0.046322984992132755,0.8656197683079734,0.8848923576875452,0.39240510446696136,0.5316158635170217,0.39419080178801424,0.9575287260028749,0.9960449965978273,0.9861615329527721,0.8718547828081621,0.9575978420296681,0.9050694385901894,S_LF
0.9365971376650564,0.9562499200000001,0.9662567828070315,0.3950617373799713,0.7615572362441629,0.5913043187287303,0.9891784400647775,0.006826287768173527,0.9971515108179281,0.9620348954108815,0.03829450761309138,0.9740221845642087,0.02779374356042161,0.9162307370082478,0.8877701666158839,0.43459914142498696,0.5573769903869931,0.43153523587747855,0.9585904637607033,0.996122560449774,0.9861035794563133,0.925261673738161,0.9758176942137046,0.9166700264999208,S_LF
0.9269662773603613,0.9453126399999998,0.9702602510896127,0.4271605171879253,0.7761557841840285,0.569565193865782,0.9890838139297585,0.007061614740255754,0.9970527571830464,0.96099878402241,0.04212645710976291,0.9726525247657254,0.04921840872843129,0.914485112150321,0.8733817113268272,0.5611814429952456,0.5503512318601816,0.34854763114201837,0.959670426253024,0.9958275542458895,0.9851928816548209,0.911569761342709,0.9589482439408378,0.8870106402864776,S_LF
0.9349922682242425,0.9374998399999999,0.9622534316534231,0.4049382787928659,0.8004866761681511,0.539130387731564,0.9887038702089223,0.007337266283001433,0.9968216490914563,0.9503340176911744,0.03917017553893557,0.9675602552198167,0.042269913544753374,0.9354276066067827,0.8719425121863392,0.5991561003017698,0.5971896358445451,0.39419080178801424,0.9614041276084151,0.9957610978387604,0.9844601838781653,0.9338021785188864,0.9654292490336602,0.8896313102250111,S_LF
0.8964688270054622,0.9476563200000001,0.97197607340885,0.4222222383950594,0.7518248762631659,0.539130387731564,0.9887222197636216,0.007962598057920574,0.9966497522041832,0.9666820088661044,0.0668172941361345,0.9703815974236267,0.03705848286342228,0.8795811930009164,0.8892087764037349,0.5274261459942333,0.5433254615218949,0.44398333527659073,0.9617986049259695,0.9956119945117173,0.9844022303817065,0.8889137070207819,0.9660519373211637,0.914423214370801,S_LF
0.9069021220305641,0.96484384,0.958249963370842,0.4666666666666667,0.7153285143818721,0.5521738882797705,0.9888085706092663,0.008441678031775845,0.9964463033256824,0.9631824828101255,0.06972137990161648,0.967882458857225,0.053850659792786464,0.8900527976461943,0.9208634959101875,0.48523204547081367,0.49414514370423823,0.3858920597957976,0.9618021322939355,0.9953326140352882,0.9842656257114827,0.8769519809303051,0.963951075182218,0.9162265285103232,S_LF
0.9390050992902018,0.9359376000000001,0.9679726051262688,0.4962962909053506,0.7226277883518047,0.5999999678480401,0.9887913004401375,0.008127507496157132,0.9963555401301377,0.9535791322379048,0.03200602361804681,0.970817219881024,0.04516510010676158,0.8586386985444548,0.8949643942604125,0.43459914142498696,0.4590163280608135,0.40663895554397755,0.9613606234034985,0.9949063893731348,0.984120741970336,0.8647307519910695,0.9597440196689886,0.9136131891170721,S_LF
0.9502408290357108,0.9414064,0.9754074837893794,0.46172838949108447,0.630170368532333,0.6608695553119082,0.988810009790027,0.007022493888119319,0.9964674062808542,0.9606431550309876,0.018886552417082352,0.9773631340955811,0.03763742530610787,0.9005236874573779,0.9007194227644527,0.39240510446696136,0.3934425603351636,0.4896264841798461,0.9616804380991013,0.994604982268847,0.9842573466405603,0.902484149997666,0.9708207273311963,0.9176633153857147,S_LF
0.9333870700514663,0.9203126399999999,0.9662567828070315,0.486419749492456,0.5985401946099077,0.6173912742599212,0.9885923336999647,0.006119704992663443,0.9962903873170831,0.9455829511461512,0.035296025178368155,0.9658258106698462,0.040532611868116075,0.8656197683079734,0.8892087764037349,0.32067514186828644,0.5435151625596479,0.42738585129215745,0.9611448660628988,0.9943978943146204,0.9841414396476428,0.8752012150957376,0.9622050956089528,0.9133456242142568,S_LF
0.9165329823352593,0.9046873600000002,0.9802688046670929,0.5432098747462281,0.620438008551336,0.5956521408534936,0.9886560174486276,0.005460067239716995,0.9961408226833413,0.9508879782355057,0.038202887316474955,0.9680625946301487,0.03937472698274504,0.876090658119157,0.8906473861915857,0.32067514186828644,0.5435151625596479,0.531120275676206,0.9608127055794142,0.9942438961813866,0.9842780443178665,0.8840564360972981,0.9645131650947104,0.9136461765708439,S_LF
0.9036920544169741,0.95,0.97740921793067,0.567901220192046,0.6690998084563212,0.5608695268336443,0.9892442825845815,0.005466687691616968,0.9960957484101587,0.9710866790954439,0.05773966620227215,0.9746975955995069,0.027214801117736026,0.8952882425517861,0.8805759389713558,0.3122362830716236,0.39812640855678505,0.5435684566105948,0.9611007739633212,0.994008004175345,0.9844684629490882,0.9106813279920252,0.9720597064237974,0.9160579259688227,S_LF
0.9109149530965236,0.9695312000000001,0.9754074837893794,0.567901220192046,0.7104623423597435,0.6217391020803372,0.989940126482401,0.005674930996835477,0.9961981899401189,0.9779568156980107,0.0560960536084239,0.9787145448451736,0.04284885598743883,0.8883071727882675,0.9064750406211304,0.39240510446696136,0.4121779225424922,0.43153523587747855,0.9610731429142526,0.993686076537411,0.984480881555472,0.8874204362759885,0.9674016284009549,0.9181764535554973,S_LF
0.9309794371582831,0.9570313599999999,0.973977690421168,0.5037037090946495,0.6885645284183152,0.639130416209828,0.9902463121892494,0.0053637697575350494,0.9962971484580604,0.9688858827600638,0.038290065416891964,0.9776892622596326,0.03300517424175257,0.8638741434500466,0.8719425121863392,0.48523204547081367,0.5105385818007561,0.42738585129215745,0.9612465718392579,0.9934507493166992,0.9842987419951733,0.8835901340731257,0.962819787043449,0.9101898244700928,S_LF
0.9598716893404058,0.9554687999999999,0.9771233061086166,0.4938271515089176,0.6763990744578838,0.6043477964943257,0.9904859357859134,0.004420054432151894,0.9964579816600978,0.9675293633283591,0.011929517893999333,0.9825081885248411,0.03532141836107532,0.8813268178588431,0.9266191137668651,0.5274261459942333,0.5526931452332874,0.3858920597957976,0.9615005423328249,0.9935710485919271,0.984679579257616,0.8827890382382719,0.9758343987510977,0.9392041226986666,S_LF
0.9277690408127306,0.95156256,0.9814126862132511,0.45925926141563755,0.6934307163771837,0.5782608352674822,0.990705770647117,0.00411430992622421,0.9965393202348862,0.9722831654810087,0.035483707967800836,0.9801016687872193,0.0283729231773974,0.8883071727882675,0.8791367398308675,0.48523204547081367,0.559718911429888,0.31120327315214563,0.9621583964585225,0.9935830973456277,0.9843484164207091,0.9046354637496606,0.9701953734260238,0.9151562688990619,S_LF
0.9430179303561613,0.9507811199999999,0.971118103684745,0.43209876363511684,0.7785888622267227,0.5608695268336443,0.9906280548860367,0.0041329675633969,0.9965182172797145,0.9625067877264228,0.02902142304644717,0.9762362062699808,0.005790373124016545,0.9162307370082478,0.9151078780535098,0.4767932419484065,0.559718911429888,0.25726138225667355,0.963472928920596,0.9941277386652432,0.9848120443923782,0.9351599255322193,0.9954291765288596,0.9546312552459212,S_LF
0.9357947029446494,0.91015616,0.9665428117580575,0.4049382787928659,0.7883212222077197,0.5565216933175754,0.990017482448291,0.00423829293453349,0.9962422397980017,0.940830858748268,0.03150127907486836,0.9640668378283553,0.030689167296720152,0.9214661819138396,0.9266191137668651,0.4388185293676266,0.5620608355406986,0.31120327315214563,0.96427070197562,0.9944174735393838,0.9849776258108317,0.9184945220805805,0.9836267100292763,0.9373421641968835,S_LF
0.9454255632493446,0.9726563200000001,0.9736917785991147,0.4222222383950594,0.7323601494483736,0.6043477964943257,0.9901739933560221,0.003992734354969389,0.9964081950765372,0.9744952461978474,0.028797647412892806,0.9826999016513623,0.07180072160752182,0.8656197683079734,0.8920865853320736,0.44725738816428945,0.5199062629044203,0.2987550922177568,0.9634858626031388,0.9937619460333686,0.9839220442681921,0.8504776709594227,0.9428752802275001,0.8845512423441613,S_LF
0.9309794371582831,0.9742188800000001,0.9668287235801106,0.45432098424005535,0.6861314344388809,0.6130434492873316,0.9903700817346732,0.003857917879914622,0.9964727332404121,0.9715397641085545,0.04549530765262696,0.9775707415550074,0.040532611868116075,0.8830717278826757,0.8892087764037349,0.44725738816428945,0.5081966576899455,0.39419080178801424,0.9636087325872951,0.9935567406969078,0.9836778116759737,0.8890898878716801,0.9643009819282495,0.9104977073719628,S_LF
0.9157305476148523,0.9570313599999999,0.9676865761752431,0.46419753859121976,0.6569343544958899,0.5739130102948925,0.990469745002355,0.0037971300942874248,0.9963893458350246,0.9657371983821617,0.05500327334332468,0.97243137768938,0.041111791485091996,0.8848166379065083,0.8892087764037349,0.3459916077097637,0.4754097814969097,0.36099579653034786,0.9634470615555104,0.9932888441888494,0.9833549279099898,0.8900475889073325,0.964147442350509,0.9096510293918212,S_LF
0.9205458134012185,0.9460937600000001,0.961681490880344,0.449382727442248,0.7761557841840285,0.5913043187287303,0.9903060381908203,0.004329173683342692,0.9962186782461109,0.9554926897725204,0.05302594075998203,0.9673744288832603,0.03532141836107532,0.9301921617011907,0.9395683699154339,0.2827004569246344,0.43325520886063135,0.39419080178801424,0.9637721673030626,0.9933889994539844,0.9837895791334298,0.9191269661607281,0.9848484514609505,0.9396952692326016,S_LF
0.9373999011174255,0.96484384,0.9591078159659744,0.4716049454595326,0.7445256038869073,0.6130434492873316,0.9903236681551394,0.004468203173242974,0.9961727844406888,0.9605032970910915,0.0434874349704123,0.9720972042457099,0.0318470521820912,0.8778362829770837,0.8719425121863392,0.3628691898811632,0.4215456036461565,0.41908705494308973,0.9637874525642495,0.9930493752090529,0.9835784628249019,0.8954685381657415,0.9651902319826636,0.9090535899512884,S_LF
0.9245586444671781,0.9671875199999999,0.971118103684745,0.48395061009602297,0.7128954363391778,0.6086956243147419,0.990626975500466,0.004505518447588353,0.9962375274876236,0.9721679280097497,0.04705340796963318,0.9775729000446611,0.06543140604081968,0.8883071727882675,0.8532376381810928,0.4767932419484065,0.4402809811930634,0.5186721762770938,0.9638579999235737,0.9922492626586326,0.9825270208177238,0.8834350346915656,0.9409531921802293,0.8627685270368836,S_LF
0.9566616217268158,0.9093750400000001,0.9837003321765949,0.5135802505075441,0.6520681824737613,0.569565193865782,0.9905715670411774,0.00329397574988672,0.9962203173105902,0.9514576685236882,0.003663146041086987,0.9755825763575526,0.024319614555727686,0.8952882425517861,0.8791367398308675,0.5400843927335358,0.4215456036461565,0.4647302310247706,0.9648386082181796,0.9921088193733116,0.9826429278106414,0.9131257745557708,0.9735105132671701,0.917952871924378,S_LF
0.9373999011174255,0.95156256,0.9754074837893794,0.5530864161591226,0.6423358224927643,0.5260869156616214,0.9909817335579895,0.0026198933746128853,0.9962067950286355,0.9667336434600512,0.031184772595647513,0.9780438432418475,0.04284885598743883,0.8743457480953244,0.8302157561070193,0.4388185293676266,0.46370016094285643,0.46887958843166616,0.9650379045082702,0.9915287848397009,0.9817487881509938,0.8945414554546044,0.9485948072061811,0.8734527967862888,S_LF
0.9357947029446494,0.96171872,0.9822705388083834,0.567901220192046,0.7080292483803092,0.5782608352674822,0.9916192906349989,0.002303315401939714,0.9963688575290326,0.9768410297374227,0.029836566049071866,0.9837336219691862,0.025477736615389063,0.8726008380714919,0.9208634959101875,0.3628691898811632,0.4449648140751063,0.44813274704033734,0.9647751155947877,0.9915722733100885,0.9824856254631109,0.8846913898761765,0.9795205925717837,0.9463147516227992,S_LF
0.9470307614221208,0.97812512,0.9731198378260356,0.5358024565569292,0.7372263346979964,0.6130434492873316,0.9921564648539464,0.0021203501857940807,0.9965643159681964,0.9764737744135884,0.028651054938306362,0.9837879766631948,0.03647954042073669,0.8935426176938593,0.9194248861223365,0.3755274476753168,0.44262288996429566,0.4149376975361942,0.964760418228262,0.9915144769446815,0.9828002301581719,0.8933804688217617,0.9749746481988882,0.9316170083311646,S_LF
0.9269662773603613,0.9671875199999999,0.97197607340885,0.4938271515089176,0.7518248762631659,0.6608695553119082,0.9924637299463653,0.0023653069060943534,0.9966923678806466,0.972562197458894,0.04449581350771915,0.9783305299131345,0.034742238744099534,0.8708552132135652,0.9064750406211304,0.39240510446696136,0.4496486469571492,0.4149376975361942,0.9644764651069822,0.9913834467481891,0.9830403232149287,0.879636856632456,0.9703373619938649,0.9288020789426418,S_LF
0.9470307614221208,0.9445312000000001,0.9791250402499073,0.46172838949108447,0.763990314286857,0.6521738882797705,0.9925040270076662,0.0021257669191668245,0.996832712776692,0.9652680416742466,0.019774436382475346,0.9796583935028677,0.039953669425430625,0.9755669706617791,0.9467625975599621,0.47257385400576685,0.46370016094285643,0.4730290273738384,0.9661231580525402,0.9916690398632451,0.9834998116511364,0.9510844659185421,0.9892184650676846,0.93272758594148,S_LF
0.9349922682242425,0.9539062399999999,0.9722619852309032,0.4888888888888889,0.7493917822837317,0.6130434492873316,0.9926436275414584,0.002163082193512203,0.9968679526629983,0.9656927447582339,0.03551813498834773,0.9765695948083223,0.0283729231773974,0.8883071727882675,0.9352519511992442,0.4177215620173003,0.49648705247547054,0.36099579653034786,0.9661672501521178,0.991881210885439,0.984091765222107,0.8916628310104397,0.9829633266453578,0.9501596226235286,S_LF
0.9727129459906535,0.9624998399999999,0.9776952468816957,0.4938271515089176,0.7396594191153866,0.5608695268336443,0.9928764150295087,0.0014131655510203822,0.9970447667437096,0.9699479824209853,0.0018696093255025233,0.9858909342649637,0.02605667905807465,0.9179756470320803,0.9467625975599621,0.45569619168669667,0.5339577876278324,0.36514516404761765,0.9668721358506982,0.9923157190657615,0.9847954862505329,0.914581901759349,0.9907224065565949,0.9550637574175951,S_LF
0.9317818718786901,0.9609376000000001,0.9831283914035158,0.46913580606309957,0.7688565022457258,0.5086956100756098,0.9931930347968722,0.001507657455411271,0.9971109439720638,0.9775351901726032,0.03252520529887378,0.9835348446947072,0.01910818387439673,0.876090658119157,0.8661874836822987,0.5105484836751631,0.5316158635170217,0.3360995317429062,0.9675047105059715,0.9923302152225573,0.9845802304065436,0.9047659680836593,0.9715155650036104,0.917978528832867,S_LF
0.9486356308629346,0.96015616,0.9785530994768282,0.4222222383950594,0.7591241422647287,0.5130434435916787,0.9932329720629829,0.001300617868720205,0.9971683112288414,0.9719740418192337,0.021174838734396174,0.9829569581464932,0.03126810973940574,0.8534032536388629,0.9525182154166397,0.5738396344602925,0.5620608355406986,0.32780081149343,0.9671772531797753,0.9925920873537656,0.985391579356965,0.85752289723637,0.9807153224110774,0.9638567464840869,S_LF
0.9454255632493446,0.9453126399999998,0.9702602510896127,0.3728395151577491,0.7761557841840285,0.4565216648393114,0.9928551871132877,0.001295201135347461,0.9970060438453846,0.9590346177467073,0.02668260674736295,0.9748663502451652,0.034742238744099534,0.8848166379065083,0.8561154471094317,0.5274261459942333,0.571428516644363,0.4232364938852619,0.9678051246777601,0.9924427957649459,0.9848493002115303,0.9025699816942575,0.9606560163275124,0.8954224409982736,S_LF
0.9173357457876286,0.9460937600000001,0.9716900444578241,0.4074074181892989,0.7542579702426002,0.45217385980150654,0.9926749297230045,0.0016761780492297296,0.996781287128652,0.9634840835509281,0.049388892621567634,0.9724321625947087,0.03821660492308366,0.8848166379065083,0.8719425121863392,0.5021097077898838,0.5878219394013025,0.36099579653034786,0.9681702072622628,0.9923503592326504,0.9843235792079414,0.8962947309879028,0.9620547547724152,0.9017706932130144,S_LF
