xa_S1,ya_S1,za_S1,xgb_S1,ybg_S1,zbg_S1,tilt_x_S1,tilt_y_S1,tilt_z_S1,tilt_accx_S1,tilt_accy_S1,tilt_accz_S1,xa_S2,ya_S2,za_S2,xgb_S2,ybg_S2,zbg_S2,tilt_x_S2,tilt_y_S2,tilt_z_S2,tilt_accx_S2,tilt_accy_S2,tilt_accz_S2,Posture
0.931446614437086,0.8322927080227535,0.9395275602740901,0.6183006833662275,0.5736196051535639,0.4040561767212398,0.9623139461425375,0.011543791747300042,0.9621085588968527,0.8906891185305189,0.05803543027722729,0.9595472012082432,0.07635260777385078,0.46090513129106536,0.8861629564839197,0.47911233985847895,0.490453429616771,0.602693637964948,0.48815614631759413,0.9532578007840168,0.9726460736881283,0.49429950460311695,0.9359796426178977,0.9216159060813883,S_LF
0.9503144903597164,0.8055305873686797,0.949921208442533,0.6130719252522542,0.5598159329545251,0.3884555489022364,0.962640641267105,0.011403541627650445,0.9622827570374318,0.885801068461092,0.038162176710954544,0.96151781784334,0.09636744568001897,0.4279837575978236,0.8851817655247041,0.46214099841842293,0.5059665576380855,0.6010101445609305,0.48874907638285414,0.9535839952047536,0.9726298927201826,0.449219191946045,0.9188355425720904,0.9158497539379806,S_LF
0.9144654745847067,0.8189118303897668,0.9451968111834343,0.5764706150296047,0.570552125791337,0.3900156035094101,0.9628025127971993,0.011962461243939494,0.962384276483597,0.8925144389880414,0.06908781717193967,0.9579332271970793,0.09636744568001897,0.4094649581466535,0.8743866551598143,0.4464752105577111,0.4928400683044637,0.569023589042842,0.4888874771506382,0.9536954763904532,0.9723763908890364,0.43943428433295767,0.9119509278361139,0.9103108879973123,S_LF
0.9327045243539397,0.820695655097018,0.919999896793703,0.5921568927963612,0.5828220733782798,0.3931357331605741,0.9624556452327114,0.01242774205630812,0.9622368425606435,0.8642082131995261,0.06137659350608045,0.945593170891848,0.07931788140156457,0.4053495757355097,0.8390581531502018,0.40992168559725056,0.460620494715721,0.5841751112783284,0.4892149500055586,0.9535884733073501,0.9718316316348711,0.46852007213641395,0.9085673976418251,0.8943860307923394,S_LF
0.9358491703410448,0.8162353625526892,0.9319684730563836,0.5843137513443554,0.5475459954135938,0.4321372924896743,0.9622716332197775,0.012531368999313296,0.9623665105805181,0.8742546826523798,0.05527294526413666,0.9519801751004525,0.09043720205695138,0.43827179222670587,0.8518156454335228,0.37989557794602935,0.4677804027280828,0.5976431246720865,0.4894274670315001,0.9535908302034537,0.9713704740484242,0.47822769956679834,0.9120360086068834,0.8953223511275373,S_LF
0.920754766558917,0.8180195526480409,0.9382676694018486,0.5934640759032856,0.5260735996939584,0.45241810456701537,0.9623916838378413,0.01273113178101001,0.9626000053066983,0.88395172488197,0.06586614141117557,0.9544111043892961,0.07561144118310224,0.43827179222670587,0.830225826666447,0.3929504125645081,0.4665870841658594,0.5606061043796565,0.49037887777397104,0.9536028503735822,0.9706126653829767,0.5016769799646492,0.9127248814124517,0.8873253354941992,S_LF
0.9433963722321087,0.8305085179274018,0.9303936739700173,0.5947712675723019,0.524539861017446,0.47425898146993845,0.9623970959558688,0.012607944732297028,0.9629158692198807,0.8784862463261004,0.05068552366504358,0.9551150859165373,0.06819856074617776,0.4567897488799216,0.9303237849772872,0.4007833150457782,0.49164674896061733,0.5656565956186453,0.4908825658141027,0.9546594468968208,0.9713569899084696,0.47997855938611117,0.9556192287824308,0.9546267565270667,S_LF
0.9276728846865245,0.8278324154784247,0.9325984184925044,0.5830065656688034,0.5122699204627114,0.49297972565617504,0.962377415526678,0.012655804565411908,0.9632661113091509,0.8817944485623473,0.06260123810222912,0.954081929892921,0.07857671481081605,0.46913589611335293,0.8665359215979787,0.37336816063679,0.48687347940146125,0.5370370644001754,0.4916880129053044,0.9550947656071539,0.9709443752258594,0.5073178150604858,0.9290144934118798,0.907089353123703,S_LF
0.9333333505073371,0.8305085179274018,0.9458267566195551,0.5660130936644031,0.5214723726138085,0.48520047495161583,0.9625373190138533,0.012597124248288495,0.9637693247457111,0.8961039301390155,0.05469752950484068,0.9629953372853471,0.06597475734157233,0.44444444444444436,0.865554730638763,0.37336816063679,0.48687347940146125,0.5488215733629797,0.49228472441230725,0.9555713299992994,0.9707286289865862,0.4999477585964932,0.9316714814517101,0.913534893373125,S_LF
0.9257861486162732,0.8305085179274018,0.9388976148379693,0.5673202938955112,0.529141089102197,0.48205929027023603,0.962571759764937,0.012742368437480469,0.964151637750929,0.8899797812672939,0.06262366749043692,0.9581529722175397,0.07931788140156457,0.4465017142510391,0.8920513081273242,0.3785901013249129,0.4689737205086833,0.5454545755280082,0.49239892395293766,0.9560179618109296,0.9707609909224771,0.47742398566669,0.9340255992668419,0.9255612981006781,S_LF
0.9446540245389036,0.8394291030160597,0.9451968111834343,0.5620915272194461,0.5061349496830433,0.47737910192453503,0.9627419954774376,0.01242025095199448,0.9646714634604979,0.8982210223279627,0.04643413508201004,0.9658921171568805,0.06671592393232086,0.4403290620333006,0.8812561977624345,0.3772846161528821,0.46181381382508047,0.5505050998478062,0.4927831184339991,0.9564709572420395,0.9707771718904228,0.48923301582512685,0.9361742675871642,0.9238690040911518,S_LF
0.9396226424815474,0.8073147774640314,0.9401573767023396,0.5398693030945368,0.486196297662926,0.48205929027023603,0.9622652370802905,0.012043198701541899,0.9649725609087836,0.8779712779558159,0.04939155186897975,0.9551458768014607,0.07857671481081605,0.44855982685558815,0.8802750068032188,0.3759791395317656,0.4737469900678393,0.535353570996158,0.4930372313191106,0.9568457037225098,0.9706045748990041,0.48492943701077795,0.9305771219192941,0.9178780362472083,S_LF
0.9446540245389036,0.8349688104717309,0.9398424684882147,0.5464052528775264,0.48159507359657977,0.49297972565617504,0.9621338702154418,0.011607466133965905,0.9654418576212839,0.8904401516339435,0.047509522294811916,0.9617781005036636,0.08154168480617,0.45473247907332687,0.9048088004106452,0.3955613743576553,0.4809068983146881,0.5117845310166769,0.49332915862164933,0.9574224361990581,0.9706719955987769,0.47627096534076563,0.9387275566722907,0.9325108207996523,S_LF
0.9446540245389036,0.826048225383073,0.9426771584468226,0.5516340109914996,0.49386501113751097,0.5085803463222928,0.962017755683216,0.011226252158894652,0.9659457632358862,0.8890345806283664,0.04609606303065895,0.9613904454776497,0.07190500096464009,0.4218102625821307,0.8763494390409492,0.382506556841005,0.5095465078533953,0.49326603741086644,0.493316301719724,0.9578770814574403,0.9704184937676308,0.47184126526824577,0.9284977305624483,0.9201632507856197,S_LF
0.9515724002765702,0.8465654980093659,0.9411023593604563,0.5241830287526171,0.5030674693162153,0.48520047495161583,0.9618691684428254,0.010839211769357168,0.9664558984528666,0.896486989732518,0.042457200649228824,0.965905186669186,0.059303043495396376,0.4094649581466535,0.8959764739268903,0.3537859275210831,0.5131264658849343,0.5101010596665322,0.49280051306601547,0.9586103118352668,0.9706234526949403,0.4656977998641106,0.9403036075913784,0.9389316560270371,S_LF
0.9503144903597164,0.8251559476413467,0.967559035614558,0.516339895862703,0.5168711465382599,0.5195007898829583,0.962011851554459,0.01038849699315397,0.9672798210489035,0.913526808274961,0.03507589289355423,0.9760014956838491,0.07635260777385078,0.46502051370220915,0.8920513081273242,0.32245431588581996,0.5274462667461733,0.4915825109260399,0.49263715478272957,0.9593392998001067,0.9704751271554399,0.4950308842522154,0.9387838442051153,0.9251808407613101,S_LF
0.9471698443726111,0.8305085179274018,0.9388976148379693,0.47581701405784155,0.5184048902377781,0.5429017213930551,0.9612664552988571,0.01016542855359256,0.967829179688266,0.8869048217025755,0.045392595855049046,0.9604842187854081,0.06819856074617776,0.47530854833109143,0.9057899913698607,0.3211488563665319,0.4988066572074661,0.483164999798207,0.4926757254885055,0.9601906106727233,0.9705344573712402,0.5051508787375015,0.9499965372342788,0.9366785580172736,S_LF
0.9182389467252093,0.8367530005670826,0.9436220120970681,0.4248366074629418,0.5352760478266508,0.5023400972383729,0.9603222867084288,0.010510019352019466,0.9682659440327908,0.8990544062554462,0.0678860097710571,0.9614633246225404,0.05633776986768258,0.5411521385155293,0.9077527752509956,0.33028723546891847,0.4892601102729247,0.48653199763317834,0.4941814955904607,0.9614496645712601,0.970469733499458,0.5684087268491756,0.9683389122577166,0.9373974741585468,S_LF
0.9364779964944422,0.871543428568088,0.9496063002284084,0.46143792282284624,0.5552146988421671,0.4617784833020991,0.9596570882017798,0.010821316353496849,0.9687970753170463,0.91977063597065,0.05425057296891699,0.9748671063191535,0.05707924009079095,0.6172837633288497,0.9087343681729148,0.3485639851227775,0.44988064227205893,0.483164999798207,0.49758554944726674,0.962719088812653,0.9704238874236124,0.6293722808967717,0.9810984299870014,0.9318734312311008,S_LF
0.9371070802578985,0.9268511291953863,0.9618896556973424,0.4183006491178605,0.6242331502514668,0.3634945321297411,0.9600585689572719,0.011421853215972692,0.96944541541642,0.9598036393718872,0.054522580276819464,0.9946674174621533,0.07042236415078319,0.5987649638776796,0.9421000863013925,0.40208879166689465,0.5346061671767929,0.45454546857973716,0.5005819638842062,0.9643696231539963,0.9707097511906498,0.5886035841930497,0.9835187938984575,0.9506344249659071,S_LF
0.9000001545660352,0.9045496664737417,0.9543306974875072,0.3464052785638016,0.6487729449652353,0.29329171716263414,0.9596679124378347,0.012723640676696369,0.9696030012839902,0.9462170353633456,0.0848344711150261,0.9808859490116238,0.08969603546620285,0.5823042770310589,0.8851817655247041,0.43211490786903006,0.5596658499488779,0.4259258932535218,0.5037500557762656,0.9653517417603616,0.9698764313414564,0.5805948842992018,0.9482258613459246,0.9054192936340099,S_LF
0.8559748531365055,0.8340765327300046,0.9162204821927209,0.3045751794036486,0.6472392203531394,0.20592820955094185,0.9572870725164777,0.014877749339326155,0.968521357730302,0.8789496741809535,0.1256351594933405,0.937506465532041,0.1156411169954388,0.46913589611335293,0.8635919467576282,0.5548303430216331,0.5835321586635123,0.4461280125865863,0.5058313613114643,0.9655164887980026,0.9687950033170984,0.4735340103901661,0.9067438980688203,0.8900132418918119,S_LF
0.9276728846865245,0.7082960637470697,0.9140157376702339,0.3777778101234577,0.7914110417121458,0.11076447999542219,0.9538917064703347,0.016487920594294245,0.9667060054520557,0.8043530769906106,0.058096601335975905,0.9164027474330039,0.1297257112785394,0.36831281963112417,0.8390581531502018,0.7075718174181439,0.5811455512407364,0.5505050998478062,0.5078415757419,0.9649432916656101,0.9678349325523322,0.3911712646314571,0.8734807805461454,0.8774013281419846,S_LF
0.9364779964944422,0.6681534308481097,0.907716541324769,0.5346405449805636,0.7745398700588566,0.07020281496710694,0.9512781454737965,0.017787211020246736,0.9645487172210436,0.7772357773292492,0.04948086161475285,0.9047104072969524,0.11786492040004423,0.3209880288978564,0.8469088867120376,0.7950392042314028,0.472553670723993,0.8063973212483991,0.509855571614078,0.9639425535800261,0.9680695565875418,0.36190309559682254,0.8755813879730558,0.8917870624740597,S_LF
0.9528303101934239,0.7109721661960468,0.9206298422298237,0.7699347114819105,0.7039877342215081,0.14196567432297935,0.9513106181819615,0.01828911500925978,0.9631394427274582,0.8089821141307931,0.03648812873653219,0.9234680371785537,0.0845069584338838,0.27572050797118297,0.830225826666447,0.716710264927844,0.39379471908980324,0.8956228796579709,0.5113341153354858,0.9627577419087521,0.968816577941026,0.3678641797697795,0.8820858453719558,0.8981955451904262,S_LF
0.9415093785517986,0.735057819013043,0.9319684730563836,0.8810457464855395,0.5874232974446262,0.26209052283507694,0.9529593461374207,0.01831200449466255,0.9623083676249871,0.8342478862928874,0.04451703410082625,0.9343804154022652,0.06226831712311017,0.20370342277105222,0.8420021279905523,0.5613577688817867,0.33054887984446946,0.8821549103719584,0.509835908117016,0.961422560266069,0.9699870012890839,0.32997154234552156,0.8869687888444865,0.9203559499575075,S_LF
0.974213748339703,0.7457625941970526,0.9439369203111927,0.9019607960656162,0.48159507359657977,0.4243369785801726,0.9550494077174836,0.01711259545955842,0.9622956776942164,0.8474597296044792,0.01624784881776733,0.9470157540787401,0.07635260777385078,0.2716051255600392,0.8488716705931724,0.4190600646996372,0.3711216750054107,0.8063973212483991,0.5072962918425983,0.9604338423506135,0.9706531178028402,0.36391361683001655,0.8921788494789322,0.913567009901773,S_LF
0.9949686179426436,0.763603764374368,0.947716463920046,0.8444445167465524,0.5122699204627114,0.5865834649804931,0.956680915297401,0.01579374492789813,0.9629705512852015,0.8572489332642051,0.0,0.955228502701291,0.06893972733692628,0.30864188166442474,0.8537784293146576,0.33942561457130505,0.465393765603636,0.7070707583069771,0.5046341568557161,0.960112361722084,0.9710684293134415,0.39702848423886133,0.9039396964816028,0.9162845623258297,S_LF
1.0,0.8073147774640314,0.9417321757887057,0.7607843184262464,0.5138036641622294,0.7129485625765103,0.9580428009974041,0.014516095469962706,0.9642194711990484,0.8713863219334159,0.0003335861737095429,0.9622355334343601,0.06893972733692628,0.3477367503733594,0.878312222922084,0.27023505437013284,0.588305451671356,0.6531986826780724,0.5015900962528181,0.9606612828246099,0.9715538583518066,0.41602518963011254,0.9185935061809449,0.928822361009546,S_LF
0.9553458724170726,0.8251559476413467,0.9401573767023396,0.6901961224170202,0.5490797401177132,0.7706708180653283,0.9590760235299212,0.014249328921905237,0.9656068267213025,0.8844557736515277,0.03806919670165652,0.9608670004339521,0.07635260777385078,0.3662547070265751,0.919529076575101,0.21148822162875078,0.6264916394095214,0.5976431246720865,0.497569667391947,0.9616521219465587,0.9723305448131908,0.4048282185186813,0.9316197402196136,0.9516843884024746,S_LF
0.9396226424815474,0.8215879328387442,0.9527558984011409,0.5869281346823879,0.5015337246120959,0.8112324830936435,0.9595222772618226,0.01388351332792304,0.9672002205740694,0.8980393201718657,0.047162478488177666,0.9656402521485504,0.0956262790892706,0.46296324389561444,0.9018648255702947,0.1984334554175856,0.6288782468322973,0.4764310151552008,0.49506635295825974,0.962622456072406,0.9720554683581173,0.47046444153321426,0.9311068741993775,0.9242939304701858,S_LF
0.9308175306736296,0.8429974832067629,0.9445668657473135,0.5006536215207833,0.45552145381059794,0.8081122921320301,0.9593033324870751,0.013466508521131145,0.968734548567249,0.9012798208836054,0.05800566036196956,0.9648255120424482,0.09043720205695138,0.4732512785244967,0.8989204487672408,0.16710179418702012,0.6121718385482823,0.4242425211458045,0.4927294219612522,0.9635336321060533,0.9716158853955978,0.48510625406880165,0.9347298428986816,0.9235033697650058,S_LF
0.9446540245389036,0.8287243278320501,0.9244093858386769,0.45751639918834797,0.43098157872873555,0.8174726606487054,0.9581111904888422,0.012801881099527585,0.9699144814029065,0.8710779524088859,0.051115760111576,0.9513244843135947,0.10378032611694361,0.5205760692577648,0.9273798101369367,0.15404702797585496,0.5966586558133634,0.4006734370585779,0.4904212299214896,0.9646409018955194,0.9712841755527152,0.4980874700384733,0.9456829638053195,0.9334940806767201,S_LF
0.9176101205718117,0.8349688104717309,0.9250393312747976,0.4326797403528558,0.40644174383092,0.7971918792265891,0.9568408187845763,0.012421083296918184,0.9710524221040137,0.8788426620938292,0.07337346154787247,0.9501367093138884,0.11934755721390113,0.514403417040026,0.9430816792233117,0.1383812401151432,0.516706416100244,0.39225591490380873,0.4872788518332806,0.9652796207395921,0.9710414610335326,0.47044094835767264,0.9414503578274234,0.9386228432515763,S_LF
0.9088050087638943,0.8626224780913296,0.9212597876659445,0.4562091390225978,0.3757668497485333,0.7472698456815985,0.9560432693916191,0.012074411636182015,0.9720650785795122,0.889869711691966,0.08382677987390606,0.953175038649206,0.1252778008369687,0.5781888946199149,0.9156035088128314,0.11227153667452895,0.367541763871247,0.46632997754254135,0.4855356071898821,0.9652136276486915,0.9705047922633399,0.5301952221063364,0.9387751845846806,0.9115807261300078,S_LF
0.8767297227394458,0.8858162185547,0.9338581803568744,0.4666667066230947,0.32975460908507054,0.7176286957428067,0.9560791861748922,0.012024054768295947,0.9730920400678796,0.919500703440679,0.10805663624426017,0.9620173390340037,0.10896940314926268,0.5493829033378171,0.9038276094514295,0.11357700474473129,0.2637230903838261,0.4966330242189015,0.483557913158434,0.9646625853396726,0.9700894807527387,0.5272140617783964,0.9388388327948746,0.912806095223037,S_LF
0.8955975986620763,0.8804640136567459,0.9436220120970681,0.5045751965278321,0.2745399202889153,0.6801872216761051,0.9564737787801678,0.011185883430093413,0.9741656082110773,0.9239738086824804,0.08954219579632486,0.9687441505625539,0.06375065030460707,0.5534974429510066,0.9018648255702947,0.1684073477663644,0.1885440967811752,0.48148152844806236,0.48347547772844235,0.9643408690215325,0.9699923949450658,0.5739623898989239,0.9641716864141013,0.9295486886574305,S_LF
0.9396226424815474,0.8465654980093659,0.9414172675745811,0.507189562741681,0.23926375191012358,0.6068643179314672,0.9563089551856949,0.009383440497742248,0.9748917029771731,0.8985014376746319,0.05202680107987308,0.9647876326084776,0.03928820558922802,0.5082307648222876,0.9116783430132652,0.23890339313956732,0.2219569915114969,0.5640303320144382,0.48398067834527136,0.9644452795189215,0.9706234526949403,0.5561700188749119,0.9734043572309053,0.9491620056525091,S_LF
0.9471698443726111,0.84567358565574,0.9385825776159732,0.5228758456456926,0.27147237060460616,0.5335413426579715,0.9562085849968218,0.007801985142643084,0.9753282365956838,0.8940274588647721,0.04661357018767279,0.9637637803054856,0.04373581239843888,0.45473247907332687,0.9116783430132652,0.31592689857658063,0.3031025818333794,0.46296297970757005,0.4842332786536856,0.9645874003539681,0.9709308910859048,0.509584288258791,0.9619494113200853,0.9515830978121232,S_LF
0.9503144903597164,0.8314004302810276,0.9492912630064123,0.5620915272194461,0.32975460908507054,0.4789391647064354,0.9564959192630075,0.00637742680566828,0.9756533295494267,0.8977567209050514,0.04021956332020196,0.96702805714168,0.031134158561555002,0.4259256449932745,0.9293425940180715,0.3485639851227775,0.353221884847716,0.5151515288516483,0.4844699969067807,0.9651231228383137,0.9718262379788895,0.49180551854693483,0.9699636735417486,0.9701415103662272,S_LF
0.9547170462636752,0.7983941923753735,0.9552755511377526,0.6196078750352437,0.4325153234328549,0.44305773605033993,0.9570277828618888,0.005455188630168299,0.9757779215969931,0.8873031687370959,0.032768112750495515,0.9634337197404793,0.03409912855690896,0.39917692351777123,0.8842001726027849,0.38120105456714587,0.4176610668855836,0.5959596202411326,0.48499712988571725,0.9654594519122958,0.9723683004050637,0.4865158446012992,0.9481706562656543,0.941545447358539,S_LF
0.9566037823339263,0.794826177572771,0.9511810993147747,0.6339869577081472,0.5567484535922982,0.439937606399176,0.9575296338062541,0.00529288137003971,0.9758282198680478,0.8810597778254358,0.032036099080802884,0.9604766872020457,0.0,0.44238717463784966,0.891069715205405,0.4046997705618703,0.47136035138014676,0.6397306803112507,0.4872947338886003,0.9666218730705859,0.973341855309785,0.5484321087412543,0.9756313951161603,0.9553160266418957,S_LF
0.9257861486162732,0.7760927296537292,0.9543306974875072,0.5759542729504086,0.6779141144355262,0.3978159174189118,0.957498145119549,0.006261314688807013,0.9756394859885859,0.8796000456002527,0.054359865260547965,0.954849708361586,0.05411396646307715,0.5061726522177384,0.9008832326483756,0.45953006227801824,0.5274462667461733,0.6767677447114261,0.4902177883557306,0.9676968533834327,0.9740322432754597,0.5451405911995802,0.9611306442079989,0.9364339782991088,S_LF
0.9477986705260087,0.7707405247557747,0.9480315011420423,0.6862745131616046,0.7223926304868931,0.3978159174189118,0.9581239827678165,0.007215598143870814,0.9753831493870186,0.8673735870582642,0.03809896661691424,0.9523361531729121,0.0800590479923131,0.4053495757355097,0.8940136900457555,0.4856396802094906,0.46071715622445797,0.7289562497477589,0.49092794311501536,0.9677201866548583,0.9747576900050163,0.4432166855951595,0.9273944949190869,0.930035377591557,S_LF
0.9389938163281497,0.809098967559383,0.9411023593604563,0.725490263232092,0.7546011487212583,0.4056162313284135,0.9593510575278629,0.008585221715879027,0.9752347925600089,0.8799197715095388,0.04978345445202967,0.9560303948122454,0.0845069584338838,0.38065812406660116,0.8321886105475818,0.42689298428273564,0.587112147959968,0.7508417411885405,0.49090752332960486,0.9676549006327889,0.9746309390894432,0.44754252110212683,0.8993297475432712,0.8900651224380892,S_LF
0.9106917448341454,0.820695655097018,0.928818874883651,0.6954249062172687,0.7392638021401823,0.42121686936582514,0.9601643512641724,0.010293609671847991,0.9749952989574645,0.8768701454185068,0.07676437723784123,0.9483652366035838,0.08598959524774069,0.41563761036439223,0.865554730638763,0.3994778298737474,0.5477326565104148,0.7424243293031351,0.49085382685685797,0.967811398534067,0.9749114092004987,0.458340726470812,0.9157654906375323,0.9080726130007707,S_LF
0.9566037823339263,0.8474577757510917,0.9360629248793616,0.6549019901640402,0.7407975267522782,0.46801873238601877,0.9610027375477006,0.011313232203425064,0.9752221026292381,0.8909306600985998,0.03976485845017005,0.963725900871515,0.0941436422754137,0.4218102625821307,0.8586851880361429,0.36553526328606845,0.5262529552185562,0.6919191963745197,0.49036526458369717,0.9677376276860247,0.9748278075327802,0.4585484556019169,0.9097044058048813,0.899774196098583,S_LF
0.9138363908212505,0.8554860830980234,0.9363779621013576,0.6431372822670774,0.661042942782237,0.5288611583996338,0.9619606824385627,0.012543854173169312,0.9755896491695594,0.9014025571957769,0.07490436924482288,0.96100434107174,0.09933271930773277,0.4218102625821307,0.8478900776712532,0.331592712090035,0.5083531963257782,0.6515151892740549,0.4894463742402138,0.9674380661912586,0.9743963150542333,0.45857380350184335,0.902908335687848,0.8906111034251042,S_LF
0.9283019684499807,0.8287243278320501,0.9155905367566002,0.6130719252522542,0.605828203756023,0.5647425982959783,0.9618052070479554,0.013248434151112187,0.9757209322715322,0.8641099367929834,0.06679553369709727,0.9443099219971632,0.09710891590312751,0.4506170966621831,0.8753682480817335,0.29242822533642715,0.4665870841658594,0.6161616403317696,0.4883981585891289,0.9673008948380297,0.9741967497829057,0.47103446016082945,0.9186653810305515,0.9070597070972587,S_LF
0.9094340925273504,0.8331846203763792,0.9319684730563836,0.568627478714854,0.5828220733782798,0.5865834649804931,0.9617860186294945,0.013997544582474972,0.9760783268672368,0.8864833251145139,0.07790542138703341,0.9528839651039591,0.09266100546155681,0.4279837575978236,0.9028460165295104,0.3589497630370658,0.4749403094116857,0.5976431246720865,0.48753825873683204,0.9673909282691869,0.9744259801621336,0.444874809195229,0.9272061481746354,0.92910646876297,S_LF
0.9176101205718117,0.8429974832067629,0.9259841849250433,0.5490196362155588,0.5414110165971165,0.5850234103733193,0.9615365691895009,0.014422872838504283,0.9764382594490955,0.8837931722794145,0.07375476114740592,0.9525131453819321,0.09117836864769992,0.4938273477822615,0.872424273241383,0.3589497630370658,0.4928400683044637,0.6161616403317696,0.48835505015326175,0.9675681668561767,0.9741509037070597,0.5126897151205171,0.9280779554618835,0.90377146866415,S_LF
0.9138363908212505,0.8287243278320501,0.9411023593604563,0.528104595197574,0.49539875584163034,0.5522620899097306,0.9613535411980264,0.014520673367043305,0.9767753501555669,0.8931556379427298,0.07148123679724648,0.9576990835613668,0.09785008249387586,0.43827179222670587,0.878312222922084,0.319843362643587,0.4964200185197734,0.5555555866760205,0.4873363297477701,0.9675313992769609,0.9738111033802044,0.4591129100563775,0.917254512371253,0.9097945530367412,S_LF
0.9113208285976018,0.8429974832067629,0.928818874883651,0.5150327127557786,0.46472391198930224,0.5460218510442191,0.9609141756163418,0.014556048026302093,0.9770116135939153,0.8877251021091864,0.0780534553492052,0.9534672197802417,0.09117836864769992,0.45473247907332687,0.8851817655247041,0.32245431588581996,0.490453429616771,0.5521885932518237,0.486806927903788,0.9676560790808407,0.9735926603129401,0.47561810235729296,0.9262501260786612,0.9156051742198155,S_LF
0.916352210654958,0.8305085179274018,0.9445668657473135,0.5346405449805636,0.4279140893204968,0.5351014074835535,0.9608871150262047,0.014209792538027701,0.9773401674378684,0.8972500514313196,0.06865391046188231,0.9603889664075878,0.07116383437389155,0.39506154110662745,0.8802750068032188,0.29373368485571527,0.42124102491712256,0.5117845310166769,0.4852527553475258,0.9674717698055398,0.9734416379454488,0.4498269233028192,0.9258656389313674,0.9252722493428465,S_LF
0.8880503967710123,0.806422865110406,0.9455117193975591,0.5267974206527413,0.4386502922033205,0.5553822195608945,0.9606238892857777,0.014317165033189697,0.9775729699860064,0.8907096473798857,0.08905772101103529,0.9523494442023754,0.06226831712311017,0.4403290620333006,0.8773310319628684,0.2650130965801816,0.4140811166702738,0.5252525554373713,0.4844639465999923,0.9675071232470939,0.9732933124059484,0.4951100191593031,0.937237019504994,0.9230240923374906,S_LF
0.9540879625002188,0.7903658850284417,0.9458267566195551,0.5372549368806878,0.4401840369074398,0.5787831510709913,0.9600698852040567,0.01333000395363837,0.9779573595253505,0.8736519206922502,0.03507507727943754,0.9561249826385928,0.06968119756003466,0.4176957229689413,0.8792934138812997,0.2506527767896721,0.3949880384336495,0.5488215733629797,0.4828757410680455,0.967301601906861,0.9732393758461297,0.46943445125815236,0.9300932656275137,0.9233057295887108,S_LF
0.9377359064112959,0.826048225383073,0.9669290901784373,0.5843137513443554,0.45552145381059794,0.48520047495161583,0.960856610360959,0.012664544187111104,0.9784063523486177,0.915013621109947,0.04529635338928447,0.9745013814917542,0.06300948371385853,0.45473247907332687,0.9106967500913461,0.2663185646503839,0.4188543862294299,0.602693637964948,0.482146679100047,0.9676761126977212,0.9738138002081954,0.49163488390352733,0.9511201229856614,0.943613257703026,S_LF
0.9339621766607346,0.8162353625526892,0.9599999483968514,0.6013072173552914,0.5030674693162153,0.48520047495161583,0.9615011444169574,0.01238987036227807,0.9787099877830574,0.9036808226914543,0.04938421134192989,0.9679551064467474,0.07412880436924535,0.5082307648222876,0.8949952829676746,0.29895564264566654,0.43317419490689807,0.5925926334330976,0.4827275085517304,0.9680334181470251,0.9739324606397954,0.5305463832565375,0.948320684189683,0.9244594541178331,S_LF
0.9320754405904834,0.8322927080227535,0.9411023593604563,0.6169934916972112,0.529141089102197,0.566302652903152,0.9620221837797839,0.012432736125850496,0.979122064444083,0.892241885753896,0.0571068536054222,0.9605300728370567,0.08747192842923758,0.5329213736932418,0.8969580668488094,0.31201047726414527,0.43556083359459075,0.6195286602206137,0.4836698438340189,0.9683449998119197,0.9739971845115777,0.5371628033788134,0.9457210661352317,0.9183671956835386,S_LF
0.9295598783668346,0.826048225383073,0.9414172675745811,0.6392157158221204,0.5766870945618026,0.5288611583996338,0.9626312930632391,0.012768587302578134,0.9793606351425714,0.889875389884344,0.058566802874224146,0.9590222055444416,0.07264616755538846,0.4835393131533792,0.8842001726027849,0.319843362643587,0.44630068424052,0.6161616403317696,0.4841538683770883,0.9685896456274722,0.9740969671472415,0.516716940001521,0.9410907670888787,0.9199038480542326,S_LF
0.9264152323797294,0.84567358565574,0.9366928703154823,0.6405229074911367,0.5720858704954563,0.5195007898829583,0.9633914496407339,0.013203903697692275,0.9796010516491718,0.8950359931879164,0.06389357867005964,0.9603801057212787,0.08821339865234595,0.44855982685558815,0.891069715205405,0.3211488563665319,0.465393765603636,0.5993266401299767,0.483557913158434,0.9686495107885033,0.9741562973630418,0.4709188490075062,0.9290103800921735,0.9212305077376128,S_LF
0.9144654745847067,0.8554860830980234,0.9401573767023396,0.5960784592413182,0.562883412316752,0.5195007898829583,0.9639789104520794,0.013747841105354043,0.9798894591666869,0.9052335899148314,0.07334328382555644,0.9632720122153421,0.12305399743236328,0.5329213736932418,0.8714426803194639,0.3550914067074739,0.4809068983146881,0.5538720888612284,0.48445638371650684,0.9684892418534592,0.9732960092339393,0.5148220299216503,0.9157269553265986,0.8863914856612051,S_LF
0.9194968566420632,0.8331846203763792,0.9278740212334056,0.5777778007051567,0.49386501113751097,0.4945397874162346,0.9638583678232856,0.013830243252803931,0.979853927360529,0.8806688561194098,0.07091968647793359,0.9516140072387377,0.10822823655851431,0.48148120054883015,0.9028460165295104,0.3642297840996777,0.43914078380990046,0.5387205578041929,0.48442461960586775,0.9684008582495747,0.9730964439626114,0.47267403651705037,0.9273843198650762,0.9183103741328537,S_LF
0.9345912604241909,0.8135592601037117,0.9354329794432408,0.6013072173552914,0.48312881830069904,0.4789391647064354,0.9638514796730687,0.01352435649333078,0.9798017832813624,0.8767801679085165,0.05515916709486406,0.9532647530980836,0.07857671481081605,0.44855982685558815,0.872424273241383,0.3668407433275506,0.3985679886489593,0.5555555866760205,0.48481108295197495,0.9681427781262315,0.9728375484754832,0.48837798788370385,0.9277701059554353,0.9127048046326857,S_LF
0.9251573224628757,0.854594170744398,0.9436220120970681,0.5908497011273449,0.5214723726138085,0.4617784833020991,0.9644325443449273,0.013632145160954703,0.9799651372992827,0.9068226102126221,0.06370639523028865,0.9662850885946797,0.07931788140156457,0.432098297211013,0.8233562840638269,0.3511749477710161,0.46071715622445797,0.5622896010917549,0.48518544568450506,0.967718065448365,0.9719395047545079,0.4965159002430308,0.9072320841708178,0.8819470521967707,S_LF
0.910062918680748,0.837644912920708,0.9332283639286252,0.5529412026605158,0.5690183710412059,0.44461779065751367,0.9643011774800786,0.01430717689410487,0.9798267016908755,0.8898954819496816,0.07740504212646913,0.9546986336600195,0.06078568030925328,0.4218102625821307,0.8684987054791135,0.3589497630370658,0.40214794668049825,0.5589225801002172,0.4853903998269611,0.9675794799574738,0.9718612967427713,0.48575293463765806,0.9318966315830083,0.919362808071625,S_LF
0.9289307946033785,0.800178382470725,0.9404724139243356,0.52026146230766,0.4800613288924604,0.47737910192453503,0.9635916980077502,0.014017520860644627,0.9797554073525458,0.8763748323295311,0.05733726459337562,0.9525729550145172,0.07487027459235389,0.38271623667115023,0.8714426803194639,0.37989557794602935,0.4486873229282127,0.5336700665652042,0.48475663019087956,0.967362174136723,0.9716913965793437,0.44052857172002824,0.9186937412874748,0.9191058758424413,S_LF
0.9358491703410448,0.7752008173001035,0.931023619406138,0.5424836864325694,0.44938648504013234,0.500780032412791,0.9625643796039905,0.013444867553114005,0.9795470617618931,0.8533261758990437,0.05235997944652431,0.942186680040396,0.06968119756003466,0.44444444444444436,0.8743866551598143,0.41644910290648995,0.5095465078533953,0.5185185487404923,0.48588652498360735,0.9677256075158965,0.9714405915761881,0.4926543640737414,0.9327623771359523,0.9178533312251713,S_LF
0.9389938163281497,0.7894736072867159,0.9401573767023396,0.5477124445465426,0.5061349496830433,0.45709828882535314,0.9619646185244011,0.01315146596749687,0.9793825541139024,0.8694033224413957,0.0485469834511896,0.9510593282758013,0.06968119756003466,0.4341564098155621,0.8488716705931724,0.37989557794602935,0.5047732461104685,0.5622896010917549,0.48657399109243576,0.9678135197405602,0.9710090990976417,0.49567447361376366,0.9220192520248521,0.9020890566634385,S_LF
0.920754766558917,0.8019625725660767,0.926614130361164,0.5581699607744891,0.5720858704954563,0.4726989166443564,0.9613500971229184,0.013635058368187743,0.9791285247724753,0.863877567689513,0.0677640754606181,0.9439721083316369,0.07338763777849698,0.4897119653711177,0.8527968363927385,0.34073109119242156,0.47971357115461255,0.6245791514596024,0.4875798545960021,0.9680258760794936,0.9708445925901956,0.5344746895036822,0.9302480563427813,0.8984524774196099,S_LF
0.9157233845015605,0.8189118303897668,0.9448819029693096,0.5450980697706018,0.5567484535922982,0.4945397874162346,0.9611222961550345,0.014182325155544405,0.9792554240801818,0.8920042752420768,0.06816821225541773,0.9578911389371121,0.07931788140156457,0.45884786148447065,0.8488716705931724,0.3550914067074739,0.4630071323873038,0.5841751112783284,0.48818791042823295,0.9679040245509383,0.9703726476917852,0.5062253823978002,0.9205704975261522,0.8961153823349212,S_LF
0.9094340925273504,0.9063334911809929,0.9492912630064123,0.5843137513443554,0.5230061163133267,0.48520047495161583,0.9624649934365769,0.014594752065255848,0.9797835559262553,0.9406174641105485,0.07882176384708865,0.9795415613814077,0.06745709052306939,0.4794239307422352,0.8616291628764934,0.36814624560140974,0.45584722883019263,0.5538720888612284,0.48948418865764104,0.9680694786574101,0.9700490283328751,0.5279287489080311,0.9351054539350301,0.9074722809652747,S_LF
0.9352200865775884,0.8224798451923696,0.9467716102698006,0.5673202938955112,0.49386501113751097,0.5319812880507977,0.962561427539612,0.014280958029007204,0.9800892678948212,0.8928922571731949,0.052326947074799963,0.9619276245851262,0.03780556877537112,0.45267520926673216,0.9018648255702947,0.3785901013249129,0.490453429616771,0.5639730981126075,0.4906352595241281,0.9689552002131385,0.9706450273188676,0.517519417418706,0.9612979913728964,0.9475092396782417,S_LF
0.9364779964944422,0.8465654980093659,0.9527558984011409,0.5764706150296047,0.5475459954135938,0.5257410287484697,0.9631346200397939,0.014284287408702172,0.9805564880731954,0.9106995052547303,0.05153824822400027,0.9709664106888233,0.12379516402311182,0.5020572698065947,0.8734054642005987,0.36814624560140974,0.5083531963257782,0.5858586157092823,0.49090222931116495,0.9688064800690022,0.9700517251608661,0.48786855691932773,0.9109557209576735,0.8901911180504773,S_LF
0.9264152323797294,0.8314004302810276,0.9474015557059214,0.5594771524435054,0.5230061163133267,0.5210608444901321,0.9632930474947797,0.014308425411490501,0.9808400503444161,0.8991618551265996,0.0598917680067207,0.9633444483259173,0.09340247568466517,0.5041153824111438,0.9244358352965862,0.35770236593534693,0.46181381382508047,0.5909091290021438,0.49122894587773686,0.9692531118806323,0.970512882747313,0.49607262111504813,0.9476370071563752,0.9369997233037531,S_LF
0.9333333505073371,0.8644066681866813,0.9108661394975014,0.5542483943295321,0.5383435372348896,0.5226209093157141,0.9628807425032327,0.014567700855234405,0.9808495101109908,0.8759537725254983,0.06684895642173773,0.9502018353582586,0.06300948371385853,0.47119316591994764,0.8763494390409492,0.37989557794602935,0.4785202596269954,0.5589225801002172,0.49238606705101234,0.9696271512922721,0.970469733499458,0.5192325645088597,0.9415479950478229,0.9195579777457161,S_LF
0.9352200865775884,0.8367530005670826,0.9401573767023396,0.5464052528775264,0.5414110165971165,0.48520047495161583,0.9628113689903351,0.01459142268556088,0.9809662574740808,0.892991407147796,0.05516854665720554,0.9613397180485314,0.08673076183848906,0.48559658295997393,0.8832189816435693,0.4347258782130915,0.4892601102729247,0.5707071133222814,0.4939152820917724,0.9698644907299033,0.9703375889279032,0.5055057493364724,0.9331845336321365,0.9134484257959958,S_LF
0.9371070802578985,0.8251559476413467,0.959055094746606,0.579084997511428,0.5368097925307702,0.47425898146993845,0.963309775859592,0.01444659466883076,0.981220286815508,0.9066164481508967,0.04778642328741425,0.9697715471400695,0.12157136061850639,0.4053495757355097,0.8891069313242701,0.4947781277191907,0.5262529552185562,0.643097678146222,0.4937194034094991,0.9695781278533172,0.9703996159716941,0.4043336253493837,0.9018258831335296,0.910446765618515,S_LF
0.9264152323797294,0.8189118303897668,0.949921208442533,0.6156863000281949,0.5352760478266508,0.4695787869931925,0.9638608278769345,0.014509020538110992,0.9812911197018097,0.8956702035981394,0.05826461784400564,0.9619752507740364,0.09117836864769992,0.4259256449932745,0.8753682480817335,0.46214099841842293,0.46071715622445797,0.6161616403317696,0.4943932563280537,0.9693587008260731,0.9703888286597304,0.4570659125769479,0.9179749927914073,0.9115807261300078,S_LF
0.9031448005531403,0.8224798451923696,0.9647243456559501,0.6235294414802006,0.5659509017249907,0.42121686936582514,0.9649220950210482,0.015058368187776991,0.9813388799867101,0.9158753959993206,0.07302356309182999,0.9686320628807464,0.0941436422754137,0.432098297211013,0.8253190679449617,0.4190600646996372,0.516706416100244,0.6329966625874353,0.4950512271912886,0.9689728769339158,0.9696714724141464,0.4819847529290735,0.8995038059140055,0.8771493369172085,S_LF
0.9012578068728302,0.8358607228253563,0.9275589840114095,0.5921568927963612,0.5444785060053552,0.4477379203086777,0.9649801522871614,0.0157180015398381,0.9810929260557734,0.8844308769618701,0.08595553271836033,0.9499654765509691,0.08524812502463215,0.46502051370220915,0.865554730638763,0.3759791395317656,0.49522669917592704,0.5774411045814495,0.4955851667653623,0.9690548969183206,0.9693748213351456,0.4982166825039522,0.9242348159130311,0.9041099274660553,S_LF
0.9213835927123144,0.8251559476413467,0.9335432721427498,0.5869281346823879,0.5644171469748596,0.47737910192453503,0.9649555517506727,0.016115030068460337,0.9810121719508692,0.8824050726350001,0.06720578759777177,0.9533338664512929,0.07042236415078319,0.432098297211013,0.8773310319628684,0.3498694702948082,0.4510739616159053,0.6178451668165963,0.49535374253070713,0.9690975567377956,0.9695716897784826,0.48092817827116197,0.9313655803598597,0.920526414609562,S_LF
0.9125787385144555,0.8305085179274018,0.9436220120970681,0.6000000256862751,0.5812883186281489,0.5117004759734567,0.9653535884310568,0.016676446719520573,0.9811681427363412,0.8968259341390834,0.0719359416672784,0.9594193858082376,0.0830243216200269,0.4958846175888562,0.8881257403650545,0.3511749477710161,0.4701670398525296,0.6296296647524641,0.4959731426881663,0.9693822697871091,0.969752377253874,0.5151571167938493,0.9387723702080394,0.9173419372690081,S_LF
0.9226415026291682,0.8429974832067629,0.9354329794432408,0.5960784592413182,0.5536809641840595,0.5335413426579715,0.9656369866114041,0.016986079031150472,0.9813824872033584,0.8929564644254697,0.06707528933910792,0.9586161645943369,0.07487027459235389,0.48765385276656864,0.8792934138812997,0.36814624560140974,0.472553670723993,0.5824916178743109,0.49691245281706065,0.9696681612844744,0.9697146216620014,0.5200325689601982,0.9387470408182683,0.9154297685633537,S_LF
0.9220126764757708,0.8528099806490463,0.9385825776159732,0.5921568927963612,0.5598159329545251,0.5413416667858815,0.9660571637746278,0.017317352310797583,0.9816888913499664,0.9011684409561902,0.06748472762566578,0.9626067961907024,0.05633776986768258,0.4958846175888562,0.8704614893602483,0.4138381496642569,0.49761334567984894,0.5640303320144382,0.49910568902784425,0.970244658071412,0.9696337168222738,0.5474521960245838,0.9471057394427158,0.9163315018676995,S_LF
0.9547170462636752,0.8751114433706909,0.9026771068436741,0.5254902204216334,0.5536809641840595,0.5366614723091355,0.9651956529868005,0.01731319058617891,0.9817264996902503,0.8692369077263165,0.05230818795011702,0.9501404751055695,0.05411396646307715,0.44444444444444436,0.8832189816435693,0.4334203844901466,0.46071715622445797,0.46632997754254135,0.5004344876562397,0.9705890005921465,0.9694961785947371,0.5034964645862018,0.9444825239225805,0.9297068007984665,S_LF
0.9496856642063188,0.8581621855470009,0.924724423060673,0.4379085241531042,0.539877281939009,0.45709828882535314,0.9639715302911326,0.017161287637597004,0.9816798930354198,0.8852157778621258,0.04919498886686736,0.9588009099038771,0.0956262790892706,0.4465017142510391,0.865554730638763,0.3485639851227775,0.525059643690939,0.4949495087610112,0.4999111361190457,0.9705576538739688,0.9688651208448623,0.47361932771187004,0.9153195201851531,0.9015257821609977,S_LF
0.9320754405904834,0.81177507000836,0.9121259013618715,0.47843136314750706,0.5383435372348896,0.44929797491585144,0.9624098882348426,0.01728156147907687,0.9811997522002609,0.8514982347373465,0.06330878334842219,0.9388114231081827,0.09191983887080828,0.48765385276656864,0.8851817655247041,0.3080940217480531,0.5334128634654048,0.5488215733629797,0.4995420674049552,0.9709312219063876,0.9686628587455437,0.5013653862679918,0.9313056124883505,0.912489870940965,S_LF
0.9301887045202322,0.8429974832067629,0.9269290385752886,0.507189562741681,0.5613496776586444,0.46645866756043675,0.9617747023827097,0.017548744199596265,0.9811044623564739,0.8829065007003831,0.06329451010138086,0.9544780025709282,0.08376548821077526,0.46502051370220915,0.891069715205405,0.2845953057533287,0.4677804027280828,0.5723906100343797,0.49862166448477485,0.971068864638837,0.9687464604132622,0.48837180546908765,0.9342758622974005,0.9215986125659623,S_LF
0.9169812944184143,0.871543428568088,0.9316534358343874,0.5176470789696276,0.5843558080363875,0.4898596011142152,0.9617476417925725,0.01816093389100442,0.9812500504713154,0.9039638587422979,0.07496105442593003,0.9622641091477061,0.08376548821077526,0.46296324389561444,0.8714426803194639,0.30026110216495466,0.4689737205086833,0.5858586157092823,0.4980294907078631,0.9710495380907879,0.9686008317017525,0.4953665893658761,0.9268597633572534,0.9087618831155997,S_LF
0.9383647325646934,0.8644066681866813,0.9171653358429666,0.503267996296724,0.5306748237603046,0.5351014074835535,0.9610711270391387,0.018176748444555406,0.9813824872033584,0.8819329090995653,0.06098509873008883,0.9545183186936336,0.07931788140156457,0.48559658295997393,0.8665359215979787,0.2963446466488625,0.4439140533690566,0.5269360598683251,0.49799545773217846,0.9710158344765065,0.9681693392232059,0.5197617792000081,0.9312757367978513,0.9053995296163805,S_LF
0.9094340925273504,0.8590544632887267,0.9376377239657278,0.5124183294177461,0.5230061163133267,0.524180974141296,0.9610071656442686,0.018500530619888877,0.9816325942025474,0.9051300720999397,0.07838663371585637,0.9620417059213531,0.08673076183848906,0.4794239307422352,0.8694798964383291,0.29242822533642715,0.3866348186591837,0.5841751112783284,0.49764756509184727,0.9706613573025268,0.967937412015987,0.5066000367235429,0.9271673963731909,0.9048634306381803,S_LF
0.9088050087638943,0.8429974832067629,0.9681889810506789,0.5398693030945368,0.5030674693162153,0.5257410287484697,0.9617250092990028,0.018513015793744897,0.9821614182266629,0.928562661691988,0.06916244586361306,0.9758256110606175,0.0800590479923131,0.45473247907332687,0.878312222922084,0.3133159367834334,0.4140811166702738,0.6212121536246312,0.4970962308857574,0.9704768123376155,0.9680803438995055,0.4892917487639809,0.9300623074844602,0.9154742376030198,S_LF
0.9018868906362866,0.8135592601037117,0.9650393828779463,0.5490196362155588,0.48312881830069904,0.5444617862186371,0.9621136977755211,0.01848263520402856,0.9825598820528615,0.9120469839844401,0.07324541013155855,0.9666793891354253,0.07561144118310224,0.432098297211013,0.8812561977624345,0.33289819726206565,0.4248209751324323,0.5774411045814495,0.4964654864030699,0.9703497756376323,0.9681801265351696,0.47427528190265067,0.9298620537619112,0.9210773366009845,S_LF
0.9088050087638943,0.8099908799130084,1.0,0.5516340109914996,0.4723926154178754,0.5273010935740517,0.9632541786471281,0.018096843331876705,0.9832887455311254,0.9441807482197775,0.05818224081822408,0.9860935958725152,0.06893972733692628,0.4794239307422352,0.9332681617803411,0.3133159367834334,0.4248209751324323,0.6094276556887634,0.496107005725859,0.9708753634687326,0.9691294099879721,0.4961808133708318,0.9602105595368281,0.9545304069411229,S_LF
0.916352210654958,0.7939338998310447,0.984251880128466,0.6222222498111845,0.47546010482611417,0.5101404111478747,0.9644064677762493,0.017661110764300714,0.9837176651911738,0.9198763377056872,0.0552786545629532,0.9746876774213985,0.08598959524774069,0.46090513129106536,0.9116783430132652,0.3589497630370658,0.42959424469158836,0.6531986826780724,0.4958029778097434,0.9709661039687207,0.9697847391897653,0.473888880989137,0.9397444126018174,0.934870150404174,S_LF
0.9125787385144555,0.8046386750150543,0.9792125746552426,0.6810458149822735,0.5168711465382599,0.505460226889537,0.9660468315493025,0.01758994527332121,0.9841052848947138,0.9205005020832414,0.06034565726263593,0.97384923497942,0.07635260777385078,0.4938273477822615,0.8802750068032188,0.3498694702948082,0.4522672731435224,0.6296296647524641,0.4966001057291111,0.9711480563479177,0.9698953091373927,0.5231695261364671,0.9392949783012644,0.9149727256556713,S_LF
0.9157233845015605,0.7983941923753735,0.9770078301327556,0.749019661901834,0.5429447713472476,0.4898596011142152,0.9680040502323276,0.017619493518113916,0.9843846940976824,0.9148472063948676,0.05800158229138633,0.9715729246666667,0.10229799293544656,0.47119316591994764,0.8930324990865398,0.37989557794602935,0.48687347940146125,0.6262626448636199,0.4965759045019575,0.9711768104803815,0.9700058790850206,0.4745695648383825,0.9254898114045079,0.9149751961578751,S_LF
0.9094340925273504,0.8037467626614284,0.9559054965738734,0.7189543048870108,0.5352760478266508,0.46645866756043675,0.9693610158250332,0.017837984060594655,0.9843436248671883,0.896906302400434,0.06900584795321642,0.9601371013992575,0.10378032611694361,0.4567897488799216,0.8979392578080251,0.3890339570484159,0.5071598769819319,0.6531986826780724,0.49626960772079637,0.9712484601219306,0.970275561884112,0.4592649974559364,0.9239828209583858,0.918932940688183,S_LF
0.9062894465402452,0.800178382470725,0.9291337830977757,0.7098039118313465,0.49999997990797657,0.439937606399176,0.9698845152415086,0.018038163014753295,0.983878019770912,0.8678654058750075,0.07856158294387758,0.9434601821801409,0.07116383437389155,0.4835393131533792,0.8940136900457555,0.4190600646996372,0.4737469900678393,0.6094276556887634,0.497723193926702,0.9716521964244755,0.9705803034470858,0.5139212521120675,0.9454779472915317,0.9270040713876316,S_LF
0.9232705863926245,0.8180195526480409,0.9385825776159732,0.6771242057268577,0.49539875584163034,0.43369734709684804,0.970557585919834,0.017897912895103698,0.9836286049497651,0.8839106671832365,0.06376104137610417,0.9548718600773584,0.07709407799695914,0.44444444444444436,0.8842001726027849,0.44386425731547813,0.4844868485299978,0.5639730981126075,0.4986738483808244,0.971804923291988,0.9705910907590495,0.4813541466382195,0.9321271939770781,0.9214034428918711,S_LF
0.9157233845015605,0.8269401377366984,0.9470865184839253,0.6078431671382809,0.48773004236704537,0.4539781693925974,0.9709546385787582,0.0178046902636452,0.9835787681307386,0.8982022406147125,0.06819145725774223,0.9609691198436622,0.06078568030925328,0.46913589611335293,0.9097155591321304,0.39033945932227504,0.4737469900678393,0.5707071133222814,0.4994762703186318,0.972388726456847,0.9710927007653598,0.505638671250721,0.9544395719887345,0.9426596438524024,S_LF
0.9220126764757708,0.7867975048377385,0.9303936739700173,0.6326797660391309,0.48773004236704537,0.47581904016447546,0.9706677963233026,0.0176494579353684,0.9832285260414684,0.8603186514205746,0.06453220452339592,0.9429356295506548,0.06745709052306939,0.43827179222670587,0.9116783430132652,0.37467363725790653,0.42959424469158836,0.5791245979854669,0.4993083743052545,0.972589769694483,0.9716401568475161,0.47384993177705476,0.9462105511802944,0.9438948949542463,S_LF
0.9635221580715929,0.8055305873686797,0.930708582184142,0.6352941493771634,0.4662576566934216,0.4726989166443564,0.9705172410399927,0.01670016854984705,0.9830564044350154,0.8637251300633643,0.0324288172779695,0.9517371707784312,0.07487027459235389,0.44444444444444436,0.8684987054791135,0.3498694702948082,0.42840092534774205,0.6262626448636199,0.4992244262985658,0.9723802416308741,0.9716482473314888,0.49033657683412163,0.9277701059554353,0.9119438899539498,S_LF
0.9459119344557574,0.8385368252743334,0.9467716102698006,0.6196078750352437,0.486196297662926,0.48673947657225536,0.9710377883920895,0.01614707534802423,0.9832465226705612,0.8992457176601828,0.04494196905560044,0.9667321102189632,0.07487027459235389,0.4506170966621831,0.9470068450228778,0.37467363725790653,0.45584722883019263,0.5942761268371152,0.49874342690889073,0.9729293984230101,0.9726703451400466,0.4613849474278375,0.956781349844747,0.9639010217997114,S_LF
0.9276728846865245,0.8349688104717309,0.935118071229116,0.6078431671382809,0.5076686943871627,0.4711388518187745,0.9711755513964252,0.01609630230767631,0.9831851495508341,0.8879399998514934,0.06247441010709012,0.9571716512088303,0.07783524458770767,0.37654358445341174,0.9018648255702947,0.3785901013249129,0.4880667987453076,0.5925926334330976,0.497304966469956,0.9729499034191115,0.9731180185865387,0.4192493188524697,0.926498224204111,0.938514141154614,S_LF
0.8849057507839073,0.8394291030160597,0.9319684730563836,0.6039216006933239,0.5107361767631932,0.4726989166443564,0.9714166366540125,0.016790477974072432,0.9830079519720729,0.8933194319536347,0.09814896376226483,0.9514582806768589,0.07783524458770767,0.43827179222670587,0.8792934138812997,0.36814624560140974,0.49522669917592704,0.5707071133222814,0.49719454837106813,0.9730545496061108,0.9730371137468111,0.47790250455798533,0.9289417526002296,0.9183919007055756,S_LF
0.9276728846865245,0.8269401377366984,0.9297637285338964,0.5947712675723019,0.486196297662926,0.49141966287427474,0.9712390207805653,0.016609859125621594,0.9829124314022719,0.8783731192625689,0.06329981159313909,0.9522185275621616,0.10303915952619509,0.46913589611335293,0.8734054642005987,0.3537859275210831,0.47136035138014676,0.569023589042842,0.4969782499033841,0.9728047186191302,0.972589440300319,0.4810981946731081,0.9176058764703846,0.9017283633417,S_LF
0.9194968566420632,0.8046386750150543,0.9319684730563836,0.5816993688625322,0.47085888075976784,0.4882995393541557,0.9707888309628259,0.016426327069937793,0.9827116997700814,0.8710159290767564,0.06753488789383968,0.9475839455882976,0.06893972733692628,0.43827179222670587,0.8959764739268903,0.34073109119242156,0.38902144953064716,0.6346801559914528,0.4965486781214098,0.9726786246775884,0.9730694756827021,0.4791494975860764,0.9398258130339021,0.9328888076368165,S_LF
0.9301887045202322,0.826048225383073,0.937007778529607,0.6078431671382809,0.4279140893204968,0.48520047495161583,0.9708877251195096,0.015815385895915267,0.9826911651548343,0.8851773408675667,0.05924498601221794,0.9565288084171204,0.07783524458770767,0.46090513129106536,0.8949952829676746,0.3485639851227775,0.38902144953064716,0.5723906100343797,0.49647153670985833,0.9725225981555309,0.9731827424583206,0.4890506345939483,0.938325100812595,0.926897839792873,S_LF
0.9389938163281497,0.8269401377366984,0.9672439983925619,0.5934640759032856,0.45705519851471726,0.5085803463222928,0.9715480035188607,0.015088748777493402,0.9831336976497094,0.9155971645727968,0.04428050600699797,0.9750164088834583,0.05559660327693405,0.4341564098155621,0.9038276094514295,0.34725850850166096,0.4188543862294299,0.5841751112783284,0.4962983466780411,0.9727519241464098,0.9736924429486039,0.4853319122022936,0.9492511604053752,0.9435292606281006,S_LF
0.9283019684499807,0.849241600458343,0.947716463920046,0.569934664390406,0.47085888075976784,0.48673947657225536,0.9718284496348298,0.014792433984643225,0.9833438890484743,0.9079704786410426,0.05965401649171743,0.9677796648578314,0.09636744568001897,0.46296324389561444,0.9097155591321304,0.3668407433275506,0.45584722883019263,0.5858586157092823,0.4959058330251458,0.9727858634503015,0.9738947050479229,0.4662356699357216,0.9335140321896711,0.9292917564282468,S_LF
0.8924529526749714,0.854594170744398,0.9606298938329721,0.5738562325477814,0.4969325005457496,0.47737910192453503,0.9726053345771365,0.015162827475705873,0.9836126848547982,0.928965376566799,0.0851338014958363,0.9722720328164379,0.06375065030460707,0.46913589611335293,0.9038276094514295,0.3616188248718047,0.4522672731435224,0.5387205578041929,0.49640876477692897,0.9731773438931076,0.9741050576312141,0.5052862736175968,0.9506958015843686,0.9375951143348421,S_LF
0.9402517262450036,0.8537018930026717,0.9470865184839253,0.5477124445465426,0.48312881830069904,0.4992199778056173,0.9726702799934661,0.014735834529829149,0.9838962471260191,0.9078228456392138,0.050546461458154945,0.9697571485248175,0.05707924009079095,0.48148120054883015,0.9126595339724809,0.3563968867489561,0.4415274146813639,0.5303030466763601,0.497140095609973,0.9737076455164153,0.9744421611300789,0.517785879488665,0.9596253856859636,0.9450683835009981,S_LF
0.9371070802578985,0.8296162401856759,0.9445668657473135,0.5464052528775264,0.4969325005457496,0.4789391647064354,0.9724070542530392,0.014429947770355998,0.983955082259592,0.8938204232349886,0.05193463668469173,0.9624774301705926,0.08154168480617,0.47530854833109143,0.8871445494058389,0.3916449359433916,0.460620494715721,0.5151515288516483,0.4978903336517305,0.9737939079138066,0.9741509037070597,0.5004534801120998,0.935823552959565,0.9190045852520902,S_LF
0.9301887045202322,0.8108831576547346,0.954960642923628,0.5385621199876123,0.509202433063675,0.4290171628385103,0.9721418604696932,0.014233098195892325,0.9838678678262955,0.8964293342406795,0.05331220892771212,0.9634680548999264,0.07116383437389155,0.5020572698065947,0.8714426803194639,0.43211490786903006,0.49761334567984894,0.5202020421445098,0.500079032132423,0.9741396645722029,0.973697836604586,0.5383659012631292,0.9402992777811612,0.9105431152044589,S_LF
0.9547170462636752,0.8153434501990634,0.949921208442533,0.5267974206527413,0.5337423131685433,0.4180967294962529,0.9716365654502195,0.013822752148490292,0.983761272407822,0.8899662409623925,0.03535238607909825,0.9642041564150373,0.06745709052306939,0.44444444444444436,0.8753682480817335,0.3589497630370658,0.5202863663155538,0.5101010596665322,0.500195500538099,0.9744495964098251,0.9734092760095578,0.49432237953719693,0.9343466546944529,0.9193702195782358,S_LF
0.9188680304886655,0.8358607228253563,0.9401573767023396,0.5607843441125216,0.5460122507094746,0.3962558628117381,0.9715401313471848,0.0141673429469172,0.9834827861089096,0.894929417884821,0.06826037665059907,0.9593252410162056,0.08154168480617,0.4567897488799216,0.8940136900457555,0.3589497630370658,0.5023866074227759,0.5640303320144382,0.5000245793713276,0.9746803365383663,0.9734470316014304,0.48263266998085314,0.93520568904156,0.9251314307172361,S_LF
0.9308175306736296,0.8278324154784247,0.9338581803568744,0.5660130936644031,0.5536809641840595,0.4196567943218349,0.9712193403513746,0.014361279314147758,0.9832153746586696,0.8826557866676918,0.05972334369163266,0.9551644842427093,0.08080051821542147,0.46707778350880386,0.8979392578080251,0.3589497630370658,0.5059665576380855,0.5589225801002172,0.5000328985431616,0.9750119518201413,0.9735117554732127,0.4898654768403659,0.9387628446255615,0.9271794770440936,S_LF
0.9245282386994194,0.8421052054650368,0.9433071038829435,0.5673202938955112,0.5812883186281489,0.41497659984508894,0.9713108543471118,0.01480949705557984,0.9830907826111033,0.900440321979715,0.06333529080721328,0.9631960318302435,0.08376548821077526,0.432098297211013,0.8949952829676746,0.42819846090385216,0.5083531963257782,0.5606061043796565,0.5001599549857173,0.9751460592084352,0.9735764793449945,0.46036484901616154,0.9301551819136207,0.9269892483744098,S_LF
0.9371070802578985,0.8305085179274018,0.9420472130107019,0.5620915272194461,0.5904907667608414,0.43525741192243,0.9711662031925594,0.015055871153005803,0.9830056447119327,0.8916316984652721,0.0526707284249676,0.9612227569892541,0.07931788140156457,0.4403290620333006,0.9008832326483756,0.4203655669734963,0.5178997354440903,0.5707071133222814,0.5004450756931191,0.97546424018242,0.973784135100295,0.46864433867019983,0.9361324849185675,0.9319549578038223,S_LF
0.9477986705260087,0.8135592601037117,0.9455117193975591,0.5660130936644031,0.5475459954135938,0.46801873238601877,0.9709098656023493,0.014847368749609818,0.9830056447119327,0.8854573194302067,0.041902175242849095,0.9605300728370567,0.07487027459235389,0.4794239307422352,0.8930324990865398,0.42428200538776006,0.5262529552185562,0.5538720888612284,0.5017269844439048,0.9759488180213178,0.9737814382723041,0.5075372907793616,0.9423741228372787,0.9252253098009763,S_LF
0.9232705863926245,0.8528099806490463,0.9429920666609474,0.5830065656688034,0.529141089102197,0.4633385379092728,0.9712557491453776,0.015007178974967218,0.9830893982550191,0.9055633618567864,0.06526054792956355,0.9653033245516549,0.07857671481081605,0.4279837575978236,0.9077527752509956,0.42428200538776006,0.49761334567984894,0.5555555866760205,0.5017353036157388,0.9761772012537554,0.9740592115553686,0.45654102557603116,0.9368843564627971,0.9378545170662291,S_LF
0.9371070802578985,0.8198037427433925,0.9313385276202628,0.5934640759032856,0.532208568464424,0.4633385379092728,0.9709979355229781,0.01496722641862783,0.9829059710738796,0.8751509634800505,0.054700384154248986,0.9525554551590572,0.08673076183848906,0.4567897488799216,0.8665359215979787,0.4190600646996372,0.5083531963257782,0.5589225801002172,0.5028553666599356,0.9762321169329691,0.9736142349368674,0.48982219993805226,0.9224093679254285,0.9048659011403837,S_LF
0.9333333505073371,0.8126673477500863,0.9496063002284084,0.5869281346823879,0.5536809641840595,0.4711388518187745,0.9710973216903918,0.01512037788459537,0.9829092012380757,0.8913202714525384,0.052349376463007836,0.9611392450207927,0.08821339865234595,0.4279837575978236,0.9038276094514295,0.3785901013249129,0.47136035138014676,0.6414141737152682,0.5020582387405681,0.9761901641823253,0.9740646052113506,0.4488173349959909,0.9300752969151119,0.9315003853983438,S_LF
0.9295598783668346,0.8412132931114114,0.9458267566195551,0.6039216006933239,0.4969325005457496,0.48673947657225536,0.9715332431969679,0.014941423725992019,0.983066325653618,0.9018900081722292,0.05854151883660804,0.9650075991460957,0.07561144118310224,0.38271623667115023,0.8930324990865398,0.3642297840996777,0.45465390948634626,0.6363636604224067,0.5006349040686043,0.9759806361187163,0.9745203691418154,0.4302002298621756,0.925742239340175,0.9329975097337785,S_LF
0.9270440585331269,0.8385368252743334,0.9426771584468226,0.6196078750352437,0.5015337246120959,0.48520047495161583,0.9719977013258706,0.014849033439457301,0.9831590775112506,0.8976702376672939,0.06120857699805071,0.9623028746503075,0.07190500096464009,0.4794239307422352,0.8881257403650545,0.3433420529855688,0.4689737205086833,0.5841751112783284,0.5009941410341638,0.976195820732974,0.9745608215616793,0.5124436550187915,0.9422444450212715,0.9231402059410638,S_LF
0.9364779964944422,0.8242640352877213,0.9414172675745811,0.5921568927963612,0.5046012039743228,0.5117004759734567,0.9719947492614921,0.014610566618806832,0.9832709796280467,0.8880077013760007,0.052870146076488295,0.9593730887222736,0.07857671481081605,0.44855982685558815,0.8743866551598143,0.34073109119242156,0.5095465078533953,0.6195286602206137,0.5006893568296997,0.9762889181290655,0.97453385328177,0.48751492280328007,0.9284719681916555,0.9139968772852145,S_LF
0.9094340925273504,0.826048225383073,0.9436220120970681,0.5856209430133716,0.5153374025373614,0.48520047495161583,0.9721049596649607,0.014871922924860073,0.9832712103540605,0.8951093729048017,0.0741030283752151,0.9580621501828736,0.08376548821077526,0.44238717463784966,0.878312222922084,0.3368146356763294,0.4988066572074661,0.6010101445609305,0.5000555871936182,0.9762776050277684,0.9744610389260155,0.4759408244002596,0.9259383797430176,0.9150517817261892,S_LF
0.9257861486162732,0.8429974832067629,0.9376377239657278,0.5882353177893124,0.49999997990797657,0.5101404111478747,0.9722289463688625,0.014826560126516383,0.9833999554698792,0.8947970723240098,0.06393517499000877,0.9602516257697998,0.07190500096464009,0.45473247907332687,0.8900885242461893,0.3172324008504397,0.49403338764831,0.6380471869072333,0.49960786449127864,0.9765161229134516,0.9747549931770253,0.4919168020100267,0.9388381833233419,0.9264778544182461,S_LF
0.9144654745847067,0.8358607228253563,0.9366928703154823,0.5620915272194461,0.48159507359657977,0.5148205954062124,0.9720729789675255,0.014864015648084507,0.9834634051237325,0.89197413714407,0.07275481824039413,0.9568161161706862,0.09488511249852208,0.44855982685558815,0.891069715205405,0.2976501489227216,0.44749400358436636,0.6262626448636199,0.4982057058930744,0.9762571000316673,0.9748493821567075,0.46444771562871157,0.9252217961520587,0.918584599877463,S_LF
0.9402517262450036,0.8198037427433925,0.9335432721427498,0.5882353177893124,0.4800613288924604,0.5273010935740517,0.9717964689373948,0.014445346151445129,0.9835187793670954,0.87702039912451,0.05157576647336616,0.9541858214398926,0.06152684690000164,0.46707778350880386,0.8871445494058389,0.319843362643587,0.4689737205086833,0.5639730981126075,0.49833730006572124,0.9765392204952666,0.9749114092004987,0.5127824513397603,0.9455732031163117,0.9275772278988873,S_LF
0.9264152323797294,0.814451537845438,0.9325984184925044,0.5777778007051567,0.48159507359657977,0.5335413426579715,0.9714004002999298,0.014282622718854688,0.9835150877508713,0.875433125962836,0.0625702447657964,0.9509193294321209,0.06375065030460707,0.4567897488799216,0.8763494390409492,0.3772846161528821,0.5035799189503929,0.5892256355981264,0.4990406482298694,0.9768234621653596,0.9749060155445166,0.5071335791049225,0.9387751845846806,0.9204498290412475,S_LF
0.9220126764757708,0.8358607228253563,0.9486613175702915,0.5960784592413182,0.45858894321883664,0.5195007898829583,0.9717954849159354,0.013986724098466364,0.983760118777752,0.9032798549527599,0.06341929906122816,0.9645893747523162,0.04002937217997655,0.46090513129106536,0.9077527752509956,0.3785901013249129,0.5095465078533953,0.5841751112783284,0.5000495368868297,0.9776686451081066,0.9755289828104186,0.5195342663421312,0.9635888939588562,0.9499105678202264,S_LF
0.9106917448341454,0.8082070552057575,0.9354329794432408,0.6156863000281949,0.44938648504013234,0.4836193510084547,0.9717718684009062,0.01385521360051604,0.9835656167479399,0.8777052764821066,0.07393786651659368,0.949439151784221,0.07561144118310224,0.4259256449932745,0.8734054642005987,0.3707571988436428,0.48568016005761494,0.5892256355981264,0.49978483596483847,0.9775668271964313,0.9754184128627911,0.47285085357507406,0.9260650266918729,0.9164352629602548,S_LF
0.920754766558917,0.837644912920708,0.9423621212248265,0.5934640759032856,0.44938648504013234,0.46645866756043675,0.9720045894760875,0.013596770501695913,0.983567693282066,0.8978183074531516,0.06628006557537498,0.9612178836117842,0.07487027459235389,0.47530854833109143,0.8861629564839197,0.35900784550652876,0.4427207340252103,0.6464646980350661,0.5002227269186467,0.9775701268509764,0.9756233717901006,0.5072003491827777,0.9391999389669953,0.9210056920370772,S_LF
0.9138363908212505,0.8287243278320501,0.9281889294475303,0.6000000256862751,0.46319016728518286,0.47425898146993845,0.9718884749438617,0.013579707430759298,0.9833609627735111,0.8796642528525273,0.07504914075052814,0.9501564243409256,0.03335796196616043,0.4362136796221568,0.8812561977624345,0.34595303188054444,0.3997613079928056,0.6245791514596024,0.5007370029956582,0.9777153116509577,0.9760791357205655,0.5171410536441935,0.9536470002284625,0.9370145463169754,S_LF
0.9427672884686524,0.8278324154784247,0.9388976148379693,0.6078431671382809,0.48159507359657977,0.4726989166443564,0.9719706407357335,0.013151882139958796,0.9833485035687547,0.8862186339928919,0.048742730839185365,0.9594012214013042,0.06671592393232086,0.4279837575978236,0.9097155591321304,0.3616188248718047,0.4140811166702738,0.622895658055585,0.5002128951701157,0.9776969278613495,0.97668052836254,0.46725329538155086,0.9441714270584691,0.9437046662845623,S_LF
0.9389938163281497,0.8242640352877213,0.947716463920046,0.5934640759032856,0.49539875584163034,0.47737910192453503,0.9721280841692598,0.012812285411074341,0.9834301805777148,0.8942113449410145,0.04918683272570081,0.9632846386933324,0.06893972733692628,0.4567897488799216,0.9028460165295104,0.37336816063679,0.465393765603636,0.5471380689320258,0.5004307062144968,0.9779328531613186,0.9768288539020408,0.4909133961178146,0.9453943819543382,0.9359349368539638,S_LF
0.9433963722321087,0.8224798451923696,0.9480315011420423,0.5490196362155588,0.4969325005457496,0.45085803974143346,0.9718801107614558,0.012412343675218988,0.9834271811395326,0.8930490626396345,0.045441124894989714,0.9635353961158739,0.05856187690464785,0.45267520926673216,0.8734054642005987,0.3942558977365388,0.5143197852287806,0.5488215733629797,0.5013821169569678,0.978261404478159,0.9766508632546401,0.5099737803796128,0.9399037496178132,0.9208920489357076,S_LF
0.9301887045202322,0.8537018930026717,0.9382676694018486,0.5712418611966773,0.5598159329545251,0.44461779065751367,0.9719839250254373,0.012721559814387034,0.9834036470861035,0.9000891476203352,0.06103892926178767,0.963544921353656,0.0830243216200269,0.40123419332436594,0.8940136900457555,0.38642299525526874,0.5346061671767929,0.5993266401299767,0.5004049924106464,0.9783276332586698,0.9768315507300314,0.4370676560178699,0.9250332329170964,0.9292374053797656,S_LF
0.9245282386994194,0.8367530005670826,0.9492912630064123,0.5633987274505541,0.6012269796896768,0.43525741192243,0.9721143078688261,0.013247185633726555,0.9834001861958932,0.9040053532250606,0.06130237262146536,0.9654329120889225,0.09488511249852208,0.5,0.9028460165295104,0.37336816063679,0.525059643690939,0.6111111490927809,0.5008595217081225,0.9786578344027825,0.9769043650857863,0.5007242698722899,0.9381622999484255,0.922102595015515,S_LF
0.9132075646678529,0.8331846203763792,0.9373228157516031,0.5725490468722293,0.6150306518887155,0.4617784833020991,0.9720311580554951,0.014127806563039665,0.9832862075449713,0.89150459431281,0.07338039426786402,0.9564373218309812,0.06968119756003466,0.47530854833109143,0.8694798964383291,0.3498694702948082,0.5119331465410879,0.6346801559914528,0.501460014656868,0.9788621772949639,0.9768234602460587,0.5192375104405528,0.9360482701098415,0.9120649445619307,S_LF
0.9138363908212505,0.8403210153696851,0.9464567020556759,0.569934664390406,0.598159490281438,0.4555382239997711,0.9722205821864566,0.014804086813575538,0.9833055885301484,0.9043774932178361,0.07091520060029197,0.9634102389217609,0.08821339865234595,0.44238717463784966,0.8851817655247041,0.3642297840996777,0.47971357115461255,0.5993266401299767,0.5009888470157239,0.9787134571508275,0.9767614332022675,0.4686128083556572,0.925875597494867,0.9178409787141532,S_LF
0.9182389467252093,0.8510257905536946,0.9382676694018486,0.5647059105574787,0.5690183710412059,0.45241810456701537,0.9722717513023524,0.015314314251825927,0.9832700567239905,0.9005150120486874,0.07047558459141814,0.9615920260911769,0.07116383437389155,0.44855982685558815,0.891069715205405,0.3498694702948082,0.4451073727129029,0.6144781469277522,0.5007967497751932,0.9786903595690124,0.9769744826135501,0.48729544708440437,0.9385699515803819,0.9279280392118111,S_LF
0.9119496547509992,0.8412132931114114,0.9552755511377526,0.5633987274505541,0.5506134747758208,0.45709828882535314,0.9726176348453808,0.015693863537049695,0.9833934951414869,0.9141404898358174,0.07006696191897689,0.9684575073604614,0.07857671481081605,0.46502051370220915,0.8743866551598143,0.3237598181596791,0.4045345775519617,0.5774411045814495,0.5006258286084219,0.9783436601521742,0.9767128902984313,0.5006061857531202,0.9311755016913214,0.9126059845445383,S_LF
0.9345912604241909,0.8331846203763792,0.9496063002284084,0.5620915272194461,0.5383435372348896,0.43681748696642025,0.9726609317896007,0.01563060532284576,0.9834050314421875,0.9011522799471144,0.05288564274470462,0.9659149334241259,0.03335796196616043,0.4732512785244967,0.8861629564839197,0.34595303188054444,0.4367541451222079,0.5909091290021438,0.5017920252418798,0.9787973626521151,0.977041903313323,0.5441204927879043,0.9614928328326737,0.9373307705990475,S_LF
0.9446540245389036,0.8358607228253563,0.9423621212248265,0.5620915272194461,0.5506134747758208,0.43681748696642025,0.972531532967671,0.015516990240755755,0.9833646543897354,0.8935133640625458,0.04691330837554137,0.963441251323842,0.06523328711846396,0.4979418873954509,0.8881257403650545,0.3668407433275506,0.4248209751324323,0.5824916178743109,0.5029355332248814,0.9789100222858665,0.9770526906252867,0.5335040504089359,0.9490102064667838,0.9242642844437416,S_LF
0.9213835927123144,0.837644912920708,0.935118071229116,0.5581699607744891,0.5598159329545251,0.4477379203086777,0.9722884796671647,0.015901117423060124,0.9832183740968518,0.8901802651366414,0.06775632712650995,0.9570781709682714,0.08673076183848906,0.46707778350880386,0.878312222922084,0.37989557794602935,0.42840092534774205,0.5892256355981264,0.503229729392466,0.978586420450844,0.9768180665900768,0.4928089244391469,0.9283416409041155,0.9117635432930805,S_LF
0.9333333505073371,0.8483496881047176,0.9511810993147747,0.575163429011569,0.5490797401177132,0.43525741192243,0.9726491235320863,0.01594398318663255,0.9833051270781205,0.9103941932184038,0.0546143368649425,0.9701242024551633,0.08376548821077526,0.4465017142510391,0.8891069313242701,0.38642299525526874,0.4367541451222079,0.6094276556887634,0.5031541005576113,0.9783528520469782,0.976880093633868,0.4744378794070572,0.9304753713791881,0.921855544795146,S_LF
0.931446614437086,0.8287243278320501,0.9426771584468226,0.5738562325477814,0.5644171469748596,0.43525741192243,0.9725827020835672,0.01612668289739265,0.9831909177011845,0.8922257247448199,0.056918038937417974,0.9605646295136613,0.07709407799695914,0.47530854833109143,0.9185478856158853,0.3838120334621215,0.44630068424052,0.5976431246720865,0.5034339272465735,0.9785883059677267,0.9773250702523695,0.491166256875618,0.9496702860344072,0.9417776745656856,S_LF
0.9182389467252093,0.8322927080227535,0.9319684730563836,0.5464052528775264,0.5150068830249426,0.4165366748890792,0.9721325122658278,0.01628649312275005,0.9828886666228287,0.8847217751252371,0.07073617330168752,0.953674338322712,0.08673076183848906,0.45267520926673216,0.878312222922084,0.41644910290648995,0.4809068983146881,0.5505050998478062,0.5039126577712031,0.9784520773729393,0.9769690889575682,0.4813003596310582,0.9259634926422778,0.9129938533905173,S_LF
0.9465410182192137,0.8198037427433925,0.9442519575331889,0.5372549368806878,0.613496917230608,0.3978159174189118,0.9716577219115997,0.016491666146451065,0.9826694769095172,0.8873630081490799,0.043702235598293754,0.9610847517999931,0.08747192842923758,0.47119316591994764,0.8881257403650545,0.43733684000623874,0.47136035138014676,0.5942761268371152,0.504823985231201,0.9784077677261918,0.9768746999778863,0.4910661017588353,0.9321538223099144,0.9176408680356545,S_LF
0.9188680304886655,0.8581621855470009,0.947716463920046,0.5490196362155588,0.5920245215109724,0.3931357331605741,0.9719002832013763,0.017024366897642376,0.9826191786384627,0.9137189932477557,0.06791741091454813,0.9687450366311848,0.07931788140156457,0.4897119653711177,0.8920513081273242,0.3942558977365388,0.4403340953375176,0.5993266401299767,0.5057368252678962,0.9784282727222932,0.9769016682577952,0.5119991394078856,0.9412548668961135,0.921956835385497,S_LF
0.9201259404055194,0.8626224780913296,0.9429920666609474,0.575163429011569,0.6042944590519036,0.4196567943218349,0.9722791314632993,0.017665688661381237,0.9826046428995799,0.9108637360496641,0.06855481334670942,0.9671793533604043,0.07116383437389155,0.4732512785244967,0.8979392578080251,0.3511749477710161,0.4128877973264275,0.6279461713484465,0.5058767386123773,0.9784120101391782,0.9772145003047417,0.5040170238968874,0.9451742111047898,0.9304578334683876,S_LF
0.9295598783668346,0.8278324154784247,0.9530708066152657,0.5830065656688034,0.5828220733782798,0.4258970536241629,0.9725359610642389,0.017898745240027478,0.9825896457086691,0.9028238524264008,0.05558777231316318,0.9661393303048985,0.06893972733692628,0.46707778350880386,0.9342493527395567,0.3668407433275506,0.42601429447627864,0.6481481914390835,0.5057655642251409,0.9787528173157573,0.9781368154776353,0.48584690733982455,0.958408059543377,0.9561757614087792,S_LF
0.9339621766607346,0.8082070552057575,0.9455117193975591,0.5712418611966773,0.613496917230608,0.3978159174189118,0.9722845435813267,0.0182129554487379,0.9823282331347936,0.8848086951470238,0.05258916701330266,0.9578419621280977,0.06597475734157233,0.46296324389561444,0.9038276094514295,0.3629243040581954,0.4403340953375176,0.6212121536246312,0.5059160656065015,0.9789225138352159,0.9785494301602455,0.4982488310599566,0.9484276305020496,0.9372344210131036,S_LF
0.931446614437086,0.8340765327300046,0.949921208442533,0.5464052528775264,0.5904907667608414,0.40717628593558725,0.9722215662079161,0.018477641134486106,0.9822527857282116,0.9023599877875185,0.055388762468700795,0.9659532558924118,0.06375065030460707,0.4979418873954509,0.8949952829676746,0.382506556841005,0.45465390948634626,0.5993266401299767,0.5071442778845403,0.9792373951546551,0.9787058461837189,0.5320072878303497,0.9523352842231394,0.9294053995296163,S_LF
0.9333333505073371,0.8438893955603884,0.9502361166566579,0.5398693030945368,0.6073619384141306,0.41341655545632344,0.9722141860469693,0.01882223193291294,0.9822539393582818,0.9072283825756368,0.05453155203210256,0.9685682659393225,0.07783524458770767,0.47736581813768614,0.8940136900457555,0.36031334568541395,0.4701670398525296,0.5791245979854669,0.5073409128551624,0.979362074958535,0.9786869683877826,0.5026482373008568,0.9407316093313558,0.9248769689902563,S_LF
0.9320754405904834,0.837644912920708,0.9530708066152657,0.5477124445465426,0.6349693229962552,0.39157566833499213,0.9722742113560014,0.019323719749464133,0.982184029376036,0.9072668195701958,0.054313783062957297,0.9686362717067433,0.0800590479923131,0.46707778350880386,0.8842001726027849,0.36553526328606845,0.48568016005761494,0.5993266401299767,0.5074528435307473,0.9794113340870999,0.978597973064082,0.49655979538680606,0.9342234715937714,0.9183301381504831,S_LF
0.9352200865775884,0.8278324154784247,0.9407873221384603,0.5150327127557786,0.6472392203531394,0.48520047495161583,0.9716513257721128,0.01989013047006675,0.9822396343454128,0.889275685412418,0.054320307975890464,0.9596798899857187,0.07190500096464009,0.4403290620333006,0.8989204487672408,0.36553526328606845,0.49164674896061733,0.6127946424967984,0.5070754556448228,0.979602478361101,0.9788892304871012,0.4766623121859721,0.9395712201931264,0.9335237267031643,S_LF
0.9238994125460219,0.8162353625526892,0.9404724139243356,0.503267996296724,0.657975393097928,0.4040561767212398,0.9708434441538303,0.020679609630230772,0.9819406134312534,0.8849205118584682,0.06260776301516228,0.955637644891604,0.09710891590312751,0.4135803405577973,0.8537784293146576,0.39033945932227504,0.516706416100244,0.5740741067464782,0.5063842080942516,0.9791303920715524,0.9782177203173628,0.45146155372734686,0.9049418310563908,0.8960956183172917,S_LF
0.9094340925273504,0.797502280021748,0.9291337830977757,0.4954248719689018,0.6165644267308701,0.48520047495161583,0.9696065291791884,0.021429552406517262,0.9816582047901027,0.8660842006044217,0.07582152731899489,0.9432111968948612,0.08228315502927837,0.4732512785244967,0.8851817655247041,0.37989557794602935,0.5023866074227759,0.5707071133222814,0.506760083403479,0.9792611998053016,0.9780181550460352,0.4989573357749751,0.934354231862333,0.917579105480562,S_LF
0.916352210654958,0.8055305873686797,0.9332283639286252,0.5346405449805636,0.570552125791337,0.41497659984508894,0.9688419445051258,0.02180244293235117,0.9812516655534136,0.8732444011931192,0.06978842969814125,0.9481765039852046,0.08747192842923758,0.4341564098155621,0.8861629564839197,0.3537859275210831,0.4451073727129029,0.5875421091132997,0.5058979146861365,0.9789425474520964,0.9779210692383621,0.46233518455435013,0.9252728879126226,0.919488803684013,S_LF
0.9333333505073371,0.8403210153696851,0.9420472130107019,0.5581699607744891,0.48926378707116475,0.44929797491585144,0.9688360403763688,0.021411240818195013,0.9812848900994313,0.8969849235256684,0.05645436231210289,0.963038533131103,0.07635260777385078,0.5061726522177384,0.9038276094514295,0.3080940217480531,0.4105011664549641,0.569023589042842,0.5059395105453066,0.979010190370269,0.9779830962821533,0.5230359859807567,0.9499837642941379,0.9296524497499853,S_LF
0.9194968566420632,0.8590544632887267,0.9433071038829435,0.5385621199876123,0.4447852609737861,0.4617784833020991,0.9689369025759715,0.020996316873712458,0.9814224028037826,0.9095184412400998,0.06869673020300636,0.9664780300390557,0.06819856074617776,0.46913589611335293,0.8881257403650545,0.3093994812673413,0.42840092534774205,0.5505050998478062,0.5056226257272657,0.9789946348559855,0.9778887073024711,0.5077295638739259,0.9425886649335447,0.9254451844971048,S_LF
0.9446540245389036,0.8322927080227535,0.9385825776159732,0.5411765033256448,0.45858894321883664,0.49141966287427474,0.9685688785501034,0.020243877062654705,0.981529690400298,0.8878063439385953,0.04764002055347576,0.9604368141136557,0.09043720205695138,0.4835393131533792,0.8557412131957924,0.32767625657394284,0.45823386204652483,0.503367019888844,0.5056944731203775,0.9786366223378505,0.9769529079896229,0.5125283540990337,0.9207315664662348,0.893946281400083,S_LF
0.9358491703410448,0.8644066681866813,0.9458267566195551,0.5464052528775264,0.486196297662926,0.49297972565617504,0.9688232480973945,0.01984143829202816,0.9818580135182371,0.9124230550334773,0.05523909727829569,0.9709923281962766,0.08228315502927837,0.4979418873954509,0.8714426803194639,0.33028723546891847,0.4510739616159053,0.5454545755280082,0.506070348429605,0.9785293835651371,0.9764432074993394,0.5247596431757581,0.933415529007228,0.9063902010000592,S_LF
0.9213835927123144,0.8296162401856759,0.9436220120970681,0.5516340109914996,0.49386501113751097,0.47737910192453503,0.9687100856295475,0.01967746634205209,0.9819050816250955,0.8951002004401909,0.06480951332305664,0.9602024489607855,0.08598959524774069,0.46296324389561444,0.8704614893602483,0.3355091505042987,0.4522672731435224,0.5640303320144382,0.5057474133047759,0.9782517412041343,0.9760305928167292,0.4937004286268055,0.9252505893900036,0.9072202897404985,S_LF
0.9232705863926245,0.806422865110406,0.9303936739700173,0.5241830287526171,0.4739263601219948,0.45241810456701537,0.9677939616507159,0.019400711654909794,0.981603291998768,0.8696632089386979,0.06506724738391771,0.9474740730780673,0.07857671481081605,0.46707778350880386,0.9077527752509956,0.3550914067074739,0.45465390948634626,0.503367019888844,0.5055394340089255,0.9783886768677527,0.97600362453682,0.48775603697331243,0.9435429551054318,0.9346206296816016,S_LF
0.9339621766607346,0.826048225383073,0.9407873221384603,0.503267996296724,0.4601226778769443,0.4383775517920023,0.9671459835196087,0.018843872900930154,0.9815038490867287,0.8885833827263272,0.05519627753717164,0.9591382805350881,0.07190500096464009,0.4403290620333006,0.8645731377168439,0.3616188248718047,0.42601429447627864,0.5319865731611867,0.5055144764934237,0.9780433915885772,0.9755640415743004,0.4915872793109823,0.9273566090796856,0.910896397019586,S_LF
0.9283019684499807,0.8412132931114114,0.9420472130107019,0.5777778007051567,0.4677913913515292,0.4305772378825006,0.9673555800904908,0.018454751649083334,0.9814544737197302,0.8981476426110777,0.06057321360118104,0.9626849917473783,0.07783524458770767,0.4979418873954509,0.9116783430132652,0.3093994812673413,0.46071715622445797,0.6195286602206137,0.5053012031791337,0.978365814975548,0.9759739594289201,0.5116331404626056,0.9506382151084787,0.9350159100341919,S_LF
0.9245282386994194,0.8429974832067629,0.9455117193975591,0.569934664390406,0.509202433063675,0.4290171628385103,0.9676079815948628,0.018371100984247817,0.9814422452409874,0.9031627968329663,0.06280473382433305,0.9646715576178311,0.08228315502927837,0.5082307648222876,0.891069715205405,0.3172324008504397,0.46071715622445797,0.5925926334330976,0.5055106950516809,0.9785008651222836,0.9759200228691014,0.5245482045958836,0.9423254124723345,0.9185722473664445,S_LF
0.9301887045202322,0.8224798451923696,0.9234645321884315,0.5464052528775264,0.5414110165971165,0.4274571082313366,0.9668901379401282,0.018481386686642925,0.9810730836185683,0.8691469302163262,0.06262122064808699,0.947774228826781,0.07116383437389155,0.4403290620333006,0.9018648255702947,0.3498694702948082,0.39618135777749586,0.5640303320144382,0.5049631422873335,0.9783380036015259,0.9761411627643567,0.4761071313534357,0.9410284178217501,0.9357694132063165,S_LF
0.9182389467252093,0.8189118303897668,0.9540156602655111,0.5111111463108216,0.49386501113751097,0.39157566833499213,0.9666441325752434,0.0183303160829848,0.9809390318044274,0.9010596817329494,0.06368641268443077,0.9634239729855396,0.07412880436924535,0.43827179222670587,0.8989204487672408,0.4138381496642569,0.46181381382508047,0.5387205578041929,0.5051711215831837,0.9783839630755456,0.9762004929801569,0.47288485685546333,0.9379865096536042,0.9328344565883353,S_LF
0.9389938163281497,0.8162353625526892,0.9445668657473135,0.5228758456456926,0.4601226778769443,0.3853354192510724,0.9661491697810947,0.017676509145389846,0.9806873097231402,0.8870162016299906,0.049411942221896,0.9596499851694263,0.08598959524774069,0.4218102625821307,0.9146223178536157,0.47389038206852774,0.4821002098423052,0.498316550703728,0.5052830522587685,0.9784275656534622,0.9762894883038571,0.44130075530559376,0.9340844846857967,0.9401199675870111,S_LF
0.9383647325646934,0.8046386750150543,0.9385825776159732,0.5477124445465426,0.490797531775284,0.38377535442549043,0.9656237023217003,0.01725742347628854,0.9803299151274357,0.8751976993711622,0.05061171058748687,0.9534915866675912,0.07931788140156457,0.38271623667115023,0.9146223178536157,0.4477806786279135,0.46420045173115015,0.5185185487404923,0.5051741467365779,0.9783410675664606,0.9764728726072394,0.41696615313470076,0.9311138018957251,0.9459281182678816,S_LF
0.9446540245389036,0.7992864701170996,0.9423621212248265,0.5555555774364567,0.5015337246120959,0.48520047495161583,0.9650780624223856,0.016726803587406566,0.9803283000453376,0.8756650582822771,0.044177330821241846,0.9551472059044069,0.07561144118310224,0.38065812406660116,0.8842001726027849,0.43864232517826945,0.45584722883019263,0.5168350443095384,0.5047120545556163,0.9780198226275412,0.976329940723721,0.43251554413594895,0.9223478846203432,0.9273548827005554,S_LF
0.9490565804428626,0.7769846420073546,0.9313385276202628,0.5385621199876123,0.4662576566934216,0.4040561767212398,0.9639715302911326,0.015987681295128685,0.9798283167729737,0.8526015511948011,0.04180593277708452,0.9441504296436034,0.06226831712311017,0.38683161908229424,0.9254170262558019,0.4007833150457782,0.4093078471111178,0.5606061043796565,0.5037666941199336,0.9779924826327396,0.977039206485332,0.43247103075071214,0.9450114102406203,0.9591576575686306,S_LF
0.969811450045803,0.792149709735693,0.9366928703154823,0.5633987274505541,0.47085888075976784,0.4305772378825006,0.9633250281922148,0.01494558545061069,0.9796072812515502,0.8627052393554641,0.024868074416632,0.952837003466522,0.07042236415078319,0.432098297211013,0.8743866551598143,0.3629243040581954,0.4069212084234251,0.5656565956186453,0.5035617399774778,0.9776509683873297,0.9768693063219043,0.4822097928211039,0.9303227455690293,0.9185944818862778,S_LF
0.9647798103783878,0.792149709735693,0.9335432721427498,0.5934640759032856,0.48312881830069904,0.4726989166443564,0.9628758223959348,0.014110743492103124,0.9794840735600678,0.8600570177871562,0.02971159884835285,0.950485377320143,0.04373581239843888,0.4094649581466535,0.9057899913698607,0.3446475296066853,0.42720760600389573,0.5774411045814495,0.5029862045442339,0.9778668600704183,0.9774545179959332,0.47647560326456234,0.9522012765969147,0.9512347570014033,S_LF
0.9937107080257898,0.8028544849197026,0.9275589840114095,0.5947712675723019,0.5184048902377781,0.46021841847651707,0.9623395307004856,0.013061572715733343,0.979357635704389,0.8548833109627114,0.008515826991933623,0.9523215330405025,0.09043720205695138,0.3477367503733594,0.845927695752822,0.36553526328606845,0.45942718060874826,0.569023589042842,0.5010667447156242,0.9769851452380659,0.9768693063219043,0.409976933411067,0.8954389800820287,0.8995098523627884,S_LF
0.9446540245389036,0.7850133147423868,0.9344881257929952,0.6065359754692646,0.5107361767631932,0.47737910192453503,0.9620394041553261,0.012734461160704976,0.9791868984540203,0.8604566751737637,0.04514016328594613,0.9473447070579576,0.07116383437389155,0.4176957229689413,0.9038276094514295,0.3355091505042987,0.4522672731435224,0.5808081244702935,0.49995348826656427,0.9770136636809194,0.977201016164787,0.45733175640544527,0.9378871405091178,0.9389341265292408,S_LF
0.9622642481547391,0.8028544849197026,0.9470865184839253,0.6052287923623402,0.4616564225810636,0.5023400972383729,0.9621722470523638,0.011788084982416666,0.9793770166895662,0.8798983690921139,0.029113753700849065,0.9605227627708519,0.07042236415078319,0.419752992775536,0.9018648255702947,0.3589497630370658,0.46071715622445797,0.6363636604224067,0.4992456023723251,0.9770808352198714,0.9776999293431068,0.4605280647620297,0.9379585823777027,0.9377458149692671,S_LF
0.9987420900831461,0.8046386750150543,0.9388976148379693,0.6039216006933239,0.5107361767631932,0.5538221547353125,0.9620054554149716,0.010602825811016035,0.979720336998416,0.8672303218967259,0.0018408410612770869,0.9598533379202154,0.07561144118310224,0.4053495757355097,0.8979392578080251,0.2741514329279972,0.3997613079928056,0.6144781469277522,0.4970894242906205,0.9767301290796574,0.9780343360139805,0.44582442808028006,0.9312582010664712,0.9343464039369923,S_LF
0.9842767700644746,0.8099908799130084,0.9335432721427498,0.58039218318698,0.5429447713472476,0.5585023492120584,0.9616172589491834,0.009910314834467401,0.9800029763655808,0.8660575567786482,0.0152295545931309,0.9565296944857512,0.06523328711846396,0.46296324389561444,0.891069715205405,0.3080940217480531,0.4785202596269954,0.6414141737152682,0.496895058185044,0.9770136636809194,0.9783228966090086,0.5043638573568572,0.9442582397533255,0.9290595292211001,S_LF
0.9855346799813283,0.7930419874774193,0.9401573767023396,0.5620915272194461,0.5352760478266508,0.5444617862186371,0.9610588267708944,0.009099194706286236,0.9802221660788921,0.8646816870870482,0.011406771228396409,0.9566311493439881,0.05856187690464785,0.4135803405577973,0.9156035088128314,0.3381201293992743,0.4928400683044637,0.5640303320144382,0.49599658762697135,0.9774470968743693,0.9788487780672377,0.4613045760378266,0.9482587679035758,0.9518597940589363,S_LF
0.9396226424815474,0.8126673477500863,0.939212523052094,0.6248366331492169,0.5046012039743228,0.5117004759734567,0.9613697775521092,0.008913997960754877,0.9803246084291134,0.8795873788634094,0.05004445096935736,0.955806662482946,0.07635260777385078,0.512345304435477,0.8959764739268903,0.3420365678135381,0.5190930547879367,0.5640303320144382,0.496895058185044,0.9779686779820935,0.9787489954315735,0.5313593707785702,0.9481336363882967,0.923891238610985,S_LF
0.9421384623152549,0.8358607228253563,0.9414172675745811,0.6339869577081472,0.5030674693162153,0.48520047495161583,0.9620187397046754,0.008710489626901343,0.9804787334064735,0.8928817743564971,0.04919009518216743,0.9626218593574276,0.06523328711846396,0.4238683751866798,0.9136411268944,0.34595303188054444,0.5238663165308636,0.6734006917417729,0.4961591896219088,0.9784643332326781,0.9795553470008577,0.46376146760631126,0.9456673764885375,0.9472152499160029,S_LF
0.9364779964944422,0.8198037427433925,0.9319684730563836,0.6470588572741262,0.5122699204627114,0.48520047495161583,0.9624148083421405,0.008682189899494342,0.9804263586012927,0.8759074734184161,0.05504049524089162,0.9528564969764016,0.07264616755538846,0.4135803405577973,0.8959764739268903,0.38120105456714587,0.5393794523684072,0.6279461713484465,0.4957069291894782,0.9787563526599127,0.9798843600157497,0.45605941547742784,0.9336136178246683,0.9334990216811273,S_LF
0.9371070802578985,0.8501338782000692,0.9385825776159732,0.5856209430133716,0.5582821882504058,0.5163806602317943,0.9627744681856022,0.008935222756310163,0.980704152722163,0.897659754850596,0.05508861647377398,0.9636818189571282,0.08598959524774069,0.44855982685558815,0.8253190679449617,0.3642297840996777,0.5560858606524222,0.5976431246720865,0.4961743153888797,0.9785027506391665,0.9788973209710738,0.5024732749672179,0.9067226819987557,0.8790368006008262,S_LF
0.9396226424815474,0.837644912920708,0.9338581803568744,0.5843137513443554,0.5506134747758208,0.5257410287484697,0.9628526978916356,0.00908670953243022,0.9808875799033027,0.8861933005192053,0.05336481603823603,0.9583585401399058,0.06671592393232086,0.44444444444444436,0.8891069313242701,0.34595303188054444,0.5346061671767929,0.643097678146222,0.4960729727501743,0.9789043657352182,0.979188578394093,0.4891112222571874,0.9396493732675484,0.9286988358993616,S_LF
0.9396226424815474,0.8278324154784247,0.9366928703154823,0.6117647335832379,0.5797545839700412,0.5616224686448142,0.9631247798251985,0.009396758016522044,0.981183139927252,0.8843557501088685,0.05186163922125165,0.9577786082209891,0.08598959524774069,0.47530854833109143,0.8881257403650545,0.29895564264566654,0.5214796856594002,0.6649831806139401,0.495525419985827,0.9791094156962301,0.979315329309666,0.4957876118012403,0.9336768330538405,0.9178854477538193,S_LF
0.9194968566420632,0.8412132931114114,0.9451968111834343,0.5712418611966773,0.5613496776586444,0.5616224686448142,0.9634622991858208,0.009892835591068933,0.9815926786021233,0.9026893229454446,0.06679227124063065,0.963522548120726,0.06893972733692628,0.4259256449932745,0.9028460165295104,0.3015666044388137,0.5095465078533953,0.6515151892740549,0.4943539293339292,0.9793847011611296,0.9798196361439675,0.4664199058912849,0.9401715483797515,0.938457319603929,S_LF
0.9402517262450036,0.8358607228253563,0.9423621212248265,0.575163429011569,0.5506134747758208,0.5631825334703963,0.9636335189197807,0.009966081944357698,0.981970146361047,0.8941366548720421,0.050460414168848465,0.9629638818489507,0.11786492040004423,0.4115222279532482,0.8822377906843536,0.2859008080271878,0.5047732461104685,0.6447811715502395,0.4917250710343831,0.9788298878183446,0.9796200708726398,0.41625641193675883,0.902614558064606,0.9067681878372237,S_LF
0.9364779964944422,0.8305085179274018,0.939212523052094,0.5738562325477814,0.4785275942343528,0.5741029668126537,0.9636694357030541,0.009684333187672948,0.9823215420803872,0.8887598434740754,0.053930852235190466,0.9595102078429036,0.06597475734157233,0.39094615869548366,0.9175662926939662,0.2859008080271878,0.5143197852287806,0.5942761268371152,0.48961805169533373,0.9791638599962232,0.980232250826578,0.43540458648610736,0.9409738622130125,0.9522180168784711,S_LF
0.9415093785517986,0.8296162401856759,0.9382676694018486,0.5660130936644031,0.44325151626966675,0.5943837584531781,0.9635892379541017,0.009114176914913516,0.9827290042211324,0.8866117396190633,0.05005790860228207,0.9593048614376952,0.08376548821077526,0.4567897488799216,0.8949952829676746,0.23368143534961608,0.5131264658849343,0.5858586157092823,0.4879655616537605,0.9793408628936027,0.9802079793746598,0.48006140374196843,0.9343076864024974,0.9249090855189042,S_LF
0.9415093785517986,0.8465654980093659,0.9379527611877239,0.5620915272194461,0.44325151626966675,0.625585054964818,0.9636576274455393,0.008583557026031544,0.9833085879683305,0.8946114391116512,0.05142610128296098,0.9629849259789341,0.06597475734157233,0.4362136796221568,0.9362121366206915,0.1684073477663644,0.49761334567984894,0.5572390833881188,0.4852527553475258,0.9798921408922323,0.9808713990604252,0.46326007378093614,0.9553373581372863,0.9610747672786926,S_LF
0.9389938163281497,0.8305085179274018,0.9461416648336799,0.5176470789696276,0.4202453858919236,0.6489859251644652,0.9634057179518972,0.007933911813055335,0.9839350090963731,0.895627835547319,0.050069735006973544,0.963793685121778,0.09636744568001897,0.43827179222670587,0.8871445494058389,0.16449085804661548,0.5023866074227759,0.5117845310166769,0.4822132324747192,0.9797224443727736,0.9803805763660784,0.45654164381749274,0.9212511436923077,0.9162647983082003,S_LF
0.9283019684499807,0.8429974832067629,0.9577952038743645,0.5111111463108216,0.5150068830249426,0.7113884160036623,0.9635124842802573,0.007966789437542861,0.9849656622009646,0.9152678294148712,0.0564702667873776,0.9721284896982338,0.07190500096464009,0.44855982685558815,0.878312222922084,0.15404702797585496,0.5226730050032464,0.5202020421445098,0.4799685686562343,0.979915002784437,0.9799922331353865,0.49211092982897603,0.933603009789636,0.9192145779394036,S_LF
0.9440251983855061,0.809098967559383,0.9448819029693096,0.5111111463108216,0.38343557326912997,0.739469623737771,0.9628940267929366,0.006958403562436246,0.9857905077010574,0.883158088301133,0.044760902721704306,0.9587557204037017,0.06523328711846396,0.46707778350880386,0.878312222922084,0.1592689857658062,0.5178997354440903,0.4898990395758952,0.4785233016221629,0.9802126787623202,0.979544559688894,0.5130612782389518,0.9403525344468336,0.9203090104156372,S_LF
0.9264152323797294,0.826048225383073,0.9451968111834343,0.5542483943295321,0.3573619534831482,0.7488299922544466,0.9629146912435868,0.0061884845079801,0.9866151224751364,0.8942602647522714,0.06007528118296676,0.9608632346422709,0.11934755721390113,0.48765385276656864,0.8812561977624345,0.13185381425498963,0.5214796856594002,0.5050505463736706,0.4756879766034635,0.9799649689818332,0.9786680905918459,0.47675195719790714,0.9140710194090023,0.8986303535782754,S_LF
0.9383647325646934,0.8296162401856759,0.9411023593604563,0.5895425094583286,0.40030674492241924,0.7566302141982739,0.963125763846658,0.005463095906943791,0.9875024947250265,0.8900282642945219,0.051841656675393775,0.9606093759795212,0.06523328711846396,0.4917692351777124,0.8920513081273242,0.1396867081853455,0.5310262247777122,0.4764310151552008,0.4742389281276493,0.9805341593908496,0.9783336839209722,0.5269142146695097,0.9494159096841424,0.9273672352115739,S_LF
0.9352200865775884,0.8412132931114114,0.935118071229116,0.5555555774364567,0.41257664227930346,0.7581903607711219,0.963042614033327,0.0049295628108287776,0.9883527200866608,0.8899094590386122,0.05686176156336914,0.9594240376685497,0.07487027459235389,0.5493829033378171,0.8842001726027849,0.1396867081853455,0.4832935213699223,0.506734006696879,0.47400750389299406,0.98090207087262,0.9778293770866708,0.5677132052048515,0.9507269762179329,0.9135966559282171,S_LF
0.9396226424815474,0.8099908799130084,0.9581102410963606,0.5555555774364567,0.45705519851471726,0.750390036643212,0.9631533164475251,0.004456790894146512,0.9892398616105368,0.8979231356201307,0.044912606947401096,0.966079963706629,0.08154168480617,0.48765385276656864,0.9038276094514295,0.15274155990565264,0.472553670723993,0.5488215733629797,0.4721803112429069,0.9810741242881821,0.9778131961187252,0.5031409757457693,0.9439555860191381,0.9291212917761923,S_LF
0.9377359064112959,0.8314004302810276,0.937007778529607,0.58039218318698,0.47546010482611417,0.7316692996098612,0.9632069456170703,0.004259108974759135,0.9899491133776096,0.8867069585374024,0.053571982023864886,0.9585678738539534,0.06968119756003466,0.5041153824111438,0.8792934138812997,0.16710179418702012,0.45584722883019263,0.5757576001504956,0.4714300732011491,0.9811771206479087,0.9776082371914157,0.5380462704274708,0.9443383412423452,0.916148684704627,S_LF
0.9232705863926245,0.8233721229340959,0.9423621212248265,0.5882353177893124,0.45705519851471726,0.7191887401315723,0.9634111300699246,0.004148823272364024,0.9905967612989413,0.8904637379715138,0.06315463228037553,0.9582730345170252,0.06449212052771544,0.5349794862977908,0.9185478856158853,0.18276758204773189,0.49522669917592704,0.5774411045814495,0.47137864559344805,0.9819329772283298,0.9779723089701893,0.5514200697252721,0.9668596325969849,0.9419209636934998,S_LF
0.9213835927123144,0.8429974832067629,0.9426771584468226,0.6039216006933239,0.44785274033601297,0.6848673548424015,0.9639577539906992,0.004072247539380291,0.9911652701974668,0.9006818635477959,0.06610430073323709,0.9626823335414857,0.04966635965386647,0.4938273477822615,0.9028460165295104,0.22845956306880683,0.5035799189503929,0.5723906100343797,0.4714565432933483,0.9826188339944741,0.9782851410171357,0.5386187620209326,0.9621840870338616,0.9404312508646759,S_LF
0.9339621766607346,0.8537018930026717,0.9521259529650202,0.6339869577081472,0.49846624524986893,0.6396255566477898,0.9650613340575733,0.00403645670765965,0.9918094572285883,0.9139116150045797,0.05425872911008347,0.9719532696264755,0.06523328711846396,0.4979418873954509,0.9057899913698607,0.2545691810002791,0.5119331465410879,0.5909091290021438,0.4716562034173644,0.9831668123385583,0.9785521269882365,0.5261043183547854,0.9554607577284785,0.9360139929244816,S_LF
0.9295598783668346,0.8501338782000692,0.9411023593604563,0.6274510079251577,0.5306748237603046,0.6193447752256735,0.9657757336371993,0.004318621636806252,0.9921846177273719,0.9013728558817994,0.06050143955891588,0.9643058327904318,0.06819856074617776,0.5308641038866471,0.8596663789953586,0.2832898547849548,0.5262529552185562,0.5824916178743109,0.4731884436115188,0.9834946565865678,0.9780397296699624,0.5691555625348148,0.9422515892081299,0.9016295432535528,S_LF
0.9182389467252093,0.8412132931114114,0.9543306974875072,0.5921568927963612,0.5858895426944951,0.5631825334703963,0.966452740401363,0.00503527061614329,0.9924854844496435,0.9122714909753867,0.06530622232009592,0.9686265249518035,0.06300948371385853,0.4938273477822615,0.8871445494058389,0.29895564264566654,0.5656324466681095,0.622895658055585,0.47405363748225554,0.9841107492280458,0.9781772678974993,0.5326947723356731,0.9491937904199962,0.9248275589461826,S_LF
0.9427672884686524,0.8429974832067629,0.9502361166566579,0.5777778007051567,0.6073619384141306,0.5179407250573763,0.9668404448564217,0.005455604802630151,0.9926391479749753,0.9054681429384474,0.046890878987333504,0.9693987337636231,0.05707924009079095,0.48559658295997393,0.8537784293146576,0.3433420529855688,0.5906920590941318,0.6212121536246312,0.4757424293645589,0.9846339801630425,0.9779075850984074,0.5456135459177207,0.9389698095539472,0.9060072731584878,S_LF
0.94528310830236,0.8608386533840784,0.9474015557059214,0.6000000256862751,0.6073619384141306,0.4851794134940212,0.9675327039532079,0.0059059034063715715,0.9927448204893929,0.9109672538645559,0.04693900022021586,0.9721242808722372,0.07635260777385078,0.4938273477822615,0.9048088004106452,0.3629243040581954,0.630071550543685,0.602693637964948,0.47684661035343606,0.9855234727525368,0.9781287249936627,0.5126575665645127,0.9482555205459129,0.9313200387374745,S_LF
0.9232705863926245,0.9045496664737417,0.9411023593604563,0.6026144090243076,0.6503067700374486,0.4804992274883357,0.9686466162454074,0.007074931851759366,0.9929146348357057,0.929317424494237,0.06979984829577435,0.9760520015958097,0.08376548821077526,0.48765385276656864,0.8606479719172778,0.36814624560140974,0.5978520376870432,0.5656565956186453,0.47817162754008885,0.9857886235641907,0.977521938695706,0.5198520424534048,0.9269608644258268,0.89954443939364,S_LF
0.9301887045202322,0.8135592601037117,0.9464567020556759,0.5294117868665903,0.7009201845371988,0.4321372924896743,0.9682102027281013,0.00824271177976153,0.9925694687187437,0.8889345570857071,0.05576394496235939,0.9591856852068406,0.0830243216200269,0.4732512785244967,0.878312222922084,0.3838120334621215,0.5536992532296463,0.5791245979854669,0.479197910829066,0.985922966642095,0.9772576495525962,0.5012627581853625,0.9314502281496073,0.9127245686503151,S_LF
0.9157233845015605,0.8429974832067629,0.9423621212248265,0.5568627776675645,0.6779141144355262,0.43681748696642025,0.968300732702379,0.00948623509582372,0.9923129013911625,0.9011832916131789,0.07073943575815414,0.9618629415750712,0.09636744568001897,0.4732512785244967,0.8694798964383291,0.42558748200887647,0.5190930547879367,0.6178451668165963,0.4805546921263576,0.985694347720047,0.9768935777738226,0.49254802654234253,0.920681990139247,0.9014813131213315,S_LF
0.916352210654958,0.8412132931114114,0.9291337830977757,0.6026144090243076,0.6441717711289479,0.4711388518187745,0.9684330835886872,0.010627379986266292,0.991997268203994,0.8864164971580649,0.07375435334034762,0.9538185459923892,0.07857671481081605,0.512345304435477,0.8802750068032188,0.46475202006796945,0.5143197852287806,0.602693637964948,0.4834565705197289,0.9858937411304106,0.9767263744383856,0.5359850533944239,0.941103107047998,0.912536810482835,S_LF
0.9301887045202322,0.857270273193375,0.9360629248793616,0.58039218318698,0.6119631624804769,0.44461779065751367,0.968670724771166,0.011307821961420762,0.9917926142295653,0.8995501561284512,0.06191530663012716,0.9630772986337044,0.06968119756003466,0.5020572698065947,0.8871445494058389,0.4921671060696441,0.5107398271972416,0.5707071133222814,0.48647037958868483,0.9861843464199833,0.9766427727706675,0.5330712813858007,0.9468775584442654,0.921514615491037,S_LF
0.9226415026291682,0.8652989459284075,0.9319684730563836,0.5764706150296047,0.6012269796896768,0.48520047495161583,0.9688881935137241,0.012034875252304554,0.9916975551117926,0.900352091605841,0.06978598285579125,0.9616704431650106,0.06226831712311017,0.5082307648222876,0.891069715205405,0.48433421213928823,0.48568016005761494,0.5892256355981264,0.48979577945724206,0.9865227967004585,0.9767425554063313,0.5432685560537895,0.9534266128884032,0.9265593809909678,S_LF
0.9176101205718117,0.8760037211124168,0.9524408611791448,0.6013072173552914,0.6088956931642617,0.48520047495161583,0.969939128432513,0.012850989450028097,0.9918897498814644,0.9275632998334544,0.06899809961910824,0.9753677350956058,0.06671592393232086,0.45884786148447065,0.8704614893602483,0.4295039375249687,0.49164674896061733,0.6296296647524641,0.4913212130562595,0.9864709449861795,0.976718283954413,0.5085165852545702,0.9353615622093818,0.9152518924046879,S_LF
0.9182389467252093,0.7966100022800218,0.9442519575331889,0.5895425094583286,0.6303680486998503,0.48520047495161583,0.9697792249453376,0.013607174813242594,0.9916080334183559,0.8801451520685438,0.06459663803861115,0.9528053265129678,0.07709407799695914,0.4341564098155621,0.8694798964383291,0.3642297840996777,0.5441527453762509,0.5993266401299767,0.49132272563295654,0.9864405410264433,0.9765429901350032,0.47967252986260833,0.9251932194046247,0.9125788090202976,S_LF
0.8943396887452225,0.8412132931114114,0.9407873221384603,0.5346405449805636,0.6518404946495444,0.40249611189565776,0.9696557302521653,0.015007178974967218,0.9911678081836209,0.9018694793228625,0.08819357785444551,0.9581004726511596,0.0830243216200269,0.48765385276656864,0.8361137763471479,0.3511749477710161,0.6133651422596703,0.5589225801002172,0.49242615033348536,0.9865251535965622,0.9755991003381824,0.5313445329834912,0.9184261590160472,0.8838221633693697,S_LF
0.88867922292441,0.849241600458343,0.9269290385752886,0.5759542729504086,0.6027607043017726,0.4477379203086777,0.9696685225311396,0.016232390702707163,0.9907499633722452,0.8923183229589846,0.09739248166907277,0.9511443908643665,0.07931788140156457,0.4259256449932745,0.8714426803194639,0.35770236593534693,0.5906920590941318,0.5791245979854669,0.4920888457300337,0.9866585539160251,0.9753995350668544,0.47019179704863906,0.9232922162287306,0.9136880645097535,S_LF
0.9000001545660352,0.837644912920708,0.9486613175702915,0.5176470789696276,0.5996932249395457,0.4726989166443564,0.9695273154516955,0.017118838046486427,0.9906516740902762,0.9073694638170295,0.08115727487011347,0.9625020185750998,0.0800590479923131,0.4732512785244967,0.8881257403650545,0.29373368485571527,0.5011932880789295,0.5875421091132997,0.49165095477622545,0.9866840083939439,0.9753779604429271,0.49978701581647145,0.9366678659519334,0.9204201830148033,S_LF
0.902515716789684,0.8438893955603884,0.9467716102698006,0.5267974206527413,0.5674846464291101,0.4945397874162346,0.9694835264967461,0.017770980294233896,0.9906401377895756,0.9081185484269007,0.08017160521014301,0.9631063173813661,0.08895456524309449,0.4835393131533792,0.8665359215979787,0.25195824485987445,0.4367541451222079,0.6178451668165963,0.49090676704125635,0.9861801040069968,0.975057037912008,0.5091150429894202,0.9255079966074206,0.9016641302844042,S_LF
0.9094340925273504,0.7957180899263964,0.9376377239657278,0.508496762972789,0.570552125791337,0.5335413426579715,0.9685201694878561,0.018289531181721705,0.9904396368833991,0.8741301992040921,0.07334736189613975,0.9477952729567645,0.0941436422754137,0.48765385276656864,0.862610353835709,0.2323759672794138,0.45704054270267847,0.6329966625874353,0.49003779172877676,0.9856964689265403,0.9746713915093067,0.5093029883937532,0.9217945348745754,0.8965921892602329,S_LF
0.9062894465402452,0.8412132931114114,0.926614130361164,0.5124183294177461,0.5199386289142903,0.5850234103733193,0.9678967918932376,0.018676571571259116,0.9904627094848002,0.8853000771797379,0.08259683378599916,0.9511929031219079,0.10378032611694361,0.4979418873954509,0.8684987054791135,0.2454308189997209,0.4785202596269954,0.5471380689320258,0.4891620098211605,0.9852800053850362,0.973978306715641,0.505884113110985,0.9201089397569908,0.895623752396387,S_LF
0.8962264248154738,0.8581621855470009,0.9231496239743069,0.5759542729504086,0.48773004236704537,0.48520047495161583,0.9679287725906727,0.01907651330711447,0.990189068432182,0.8915954453908586,0.09312926668134777,0.9518142587493187,0.09636744568001897,0.5082307648222876,0.8096176008212902,0.23498698892896036,0.49403338764831,0.5420875776930371,0.4891884799133594,0.9845967412046057,0.9724896576646549,0.547590682111987,0.9043051324639406,0.8592678419669151,S_LF
0.9012578068728302,0.8519180682954209,0.9275589840114095,0.5759542729504086,0.4539877091064787,0.5912636696756473,0.9679764976314604,0.019143517073475225,0.9903097381375104,0.8923440932167004,0.08727111828851535,0.9535877251140426,0.10452179634005199,0.45473247907332687,0.8518156454335228,0.20757181741814382,0.4367541451222079,0.5471380689320258,0.4871563331208162,0.9837230398190053,0.9716779124393891,0.4780292440576178,0.906607725537487,0.8881158961993794,S_LF
0.89685550857893,0.8331846203763792,0.9335432721427498,0.5019608046277079,0.4018404695345151,0.6099844067089981,0.967346723897355,0.018897975320972968,0.9904647860189264,0.8900413678153941,0.08758227507401702,0.9523689377122551,0.08154168480617,0.4917692351777124,0.8949952829676746,0.1566579641162596,0.38782813800302995,0.5640303320144382,0.48388841116674874,0.9832358693943936,0.9716994870633163,0.510272391005576,0.9414282757953153,0.9228635096942508,S_LF
0.9276728846865245,0.8331846203763792,0.9426771584468226,0.5759542729504086,0.3573619534831482,0.6489859251644652,0.9674652984832294,0.017317352310797583,0.9912192600847457,0.8949538777904494,0.060291826730937095,0.9611596245993032,0.07116383437389155,0.4732512785244967,0.872424273241383,0.1357702184655966,0.367541763871247,0.5303030466763601,0.4821255030262877,0.9827491703490024,0.9714055328123062,0.5149561883188222,0.9359536637565942,0.9135793624127915,S_LF
0.9421384623152549,0.8474577757510917,0.9348031630149913,0.5307189785356066,0.40030674492241924,0.683307310453636,0.9671504116161767,0.016415506585929187,0.9917441617666228,0.8916574687229876,0.05182534439306076,0.961424559119939,0.08598959524774069,0.48148120054883015,0.8704614893602483,0.11096606860432662,0.34486868070570853,0.5555555866760205,0.479724287519654,0.9819770511854669,0.9710279768935779,0.508512257564339,0.9282792916369867,0.9056366978279347,S_LF
0.9138363908212505,0.8296162401856759,0.9357480166652368,0.5307189785356066,0.4340490681369742,0.6895475901927804,0.9667341705387912,0.01612376969015961,0.9921850791793999,0.8880199313288152,0.07302723335535491,0.9547854683858467,0.09191983887080828,0.5102880346288823,0.9008832326483756,0.10835513246392199,0.40334125820811534,0.6111111490927809,0.47744180928374186,0.9817536174348467,0.971195180229015,0.5128003803421474,0.9408602046948089,0.9211045121252248,S_LF
0.902515716789684,0.8340765327300046,0.928818874883651,0.5529412026605158,0.41411036689139935,0.7082683272261313,0.9664389641009292,0.015948977256174928,0.9925888497039208,0.8846798438584454,0.08443849046139294,0.9504490485062767,0.07857671481081605,0.514403417040026,0.8881257403650545,0.09399481267341254,0.3484486700021643,0.6195286602206137,0.4757734371868492,0.9814005543985289,0.9713003565206604,0.5342824164091176,0.9443407226379646,0.9175889874893767,S_LF
0.9031448005531403,0.8412132931114114,0.9411023593604563,0.575163429011569,0.39877302031032336,0.7285491086482476,0.9667026818520861,0.01566265060240958,0.9931822770119597,0.9008683703282128,0.08104635135024918,0.9592986589572788,0.07487027459235389,0.48148120054883015,0.8223750931046112,0.08355089709351006,0.2804295768301329,0.6397306803112507,0.4739091864076833,0.9801252379168771,0.9706423304908767,0.539847207805175,0.9170486298954215,0.8788515129355494,S_LF
0.9132075646678529,0.8278324154784247,0.9332283639286252,0.5607843441125216,0.4509202297442517,0.7223089310931857,0.9664729128412833,0.015509915308903967,0.9936626485731327,0.8846073377096182,0.07408793951405715,0.9528405477410457,0.06152684690000164,0.5102880346288823,0.8861629564839197,0.09399481267341254,0.3210023719910741,0.6262626448636199,0.47240871032416776,0.9798244979740592,0.9709228006019321,0.5476450873606099,0.9523720876099862,0.9234391367077098,S_LF
0.9358491703410448,0.800178382470725,0.9395275602740901,0.5320261702046228,0.49846624524986893,0.6661466178090506,0.9657747496157397,0.01520028299727407,0.9939452879402974,0.8743839707249874,0.0520435211692644,0.9527670040446818,0.06375065030460707,0.48148120054883015,0.8881257403650545,0.12532638839483606,0.36992837129402284,0.6397306803112507,0.4707123555583789,0.9796317038727854,0.9713030533486514,0.5217401518771977,0.9470951314076835,0.9261863351582111,S_LF
0.905660362776789,0.7760927296537292,0.9404724139243356,0.5607843441125216,0.5030674693162153,0.6661466178090506,0.965192700922422,0.01537299456894934,0.994053729166883,0.8681711546953629,0.07402513722707516,0.9446687797926732,0.08080051821542147,0.47530854833109143,0.8812561977624345,0.17362922004717365,0.42720760600389573,0.5640303320144382,0.4693971701202574,0.9794238256364489,0.9711709087770967,0.5037239774440786,0.9341061337368832,0.9153927110302982,S_LF
0.8924529526749714,0.7867975048377385,0.9382676694018486,0.5647059105574787,0.490797531775284,0.6240249083919699,0.9647720317484687,0.015722163264456773,0.9939815119244971,0.8730469748119755,0.08599672123125107,0.9442904284872837,0.06004421008614474,0.4300410274044183,0.8606479719172778,0.17362922004717365,0.40214794668049825,0.7070707583069771,0.4677658561524435,0.9790288098494876,0.9715241932439067,0.49626798541692047,0.9308715490140687,0.9138708816728265,S_LF
0.9194968566420632,0.8305085179274018,0.9467716102698006,0.6483660489431424,0.49386501113751097,0.625585054964818,0.9656463348152698,0.015655159498096014,0.9943156031927866,0.8990723144006385,0.06553418646569933,0.9620126871736915,0.05707924009079095,0.5061726522177384,0.8979392578080251,0.17493477362651796,0.0871121088788221,0.7272727673706777,0.46734157838890905,0.9778454123158755,0.9723629067490818,0.5435937510626025,0.9584394506674522,0.9333211455224618,S_LF
0.9264152323797294,0.8242640352877213,0.9527558984011409,0.7019607789414326,0.5797545839700412,0.6240249083919699,0.9670042844294351,0.015957300705412274,0.9946963011159065,0.9012038204625457,0.05791349596678822,0.9648084552213034,0.04595991943540414,0.5185187994511701,0.8832189816435693,0.17493477362651796,0.36992837129402284,0.6936026787516009,0.4675639271633818,0.977997432114557,0.9729292406271743,0.5696594293260365,0.9611118095335538,0.9269966598810206,S_LF
0.9276728846865245,0.8385368252743334,0.9407873221384603,0.6627451144918626,0.6273005994756585,0.6427457476094034,0.9678776034747768,0.01661027529808352,0.9950580795058771,0.8956134216743591,0.06121428629686725,0.9612779147615269,0.06375065030460707,0.5308641038866471,0.865554730638763,0.2180156474889043,0.4105011664549641,0.7121212054382203,0.46848886781365356,0.9780316071080593,0.9730856566506477,0.570698074981561,0.9468948776851346,0.9073018163132202,S_LF
0.89685550857893,0.8519180682954209,0.9411023593604563,0.6392157158221204,0.6472392203531394,0.628705143742349,0.9687573186596055,0.017842978130137105,0.9953280289422711,0.9070781288696336,0.0869518053618472,0.9609828539074409,0.06671592393232086,0.5082307648222876,0.919529076575101,0.2832898547849548,0.43078756403543467,0.6245791514596024,0.4690598655168057,0.9784563197859257,0.9737544699923951,0.5272641393367878,0.9614222569261323,0.9438257208925432,S_LF
0.9333333505073371,0.8474577757510917,0.9439369203111927,0.5759542729504086,0.6748465647512172,0.6146645398752945,0.9690166083141943,0.018651601223547008,0.9956771174014714,0.9024595745461489,0.05649024933323547,0.9657547765190928,0.06968119756003466,0.6358025627800196,0.8920513081273242,0.2832898547849548,0.4140811166702738,0.5640303320144382,0.47237694621352894,0.9790031196819584,0.9735441174091035,0.6399961421732795,0.9708168626450625,0.9140438168270848,S_LF
0.9144654745847067,0.849241600458343,0.9489763547922877,0.5759542729504086,0.618098151342966,0.6006240381923227,0.9694687661748528,0.019381983894125692,0.9959973651089199,0.9112607727320973,0.07041074326914452,0.9669472033791114,0.07116383437389155,0.543209408322124,0.8969580668488094,0.29242822533642715,0.46071715622445797,0.6649831806139401,0.47386607797181624,0.9794346673585255,0.9738974018759136,0.5607851913859181,0.9565367155674711,0.9241160543115203,S_LF
0.9295598783668346,0.8180195526480409,0.9467716102698006,0.5759542729504086,0.6334355983841593,0.5819032807221552,0.9694677821533934,0.019860166052812264,0.9960894247885107,0.8915242495941187,0.056522466090843125,0.9603045683704955,0.05707924009079095,0.5699589725955817,0.8949952829676746,0.3250652776789672,0.4105011664549641,0.6734006917417729,0.47655922078098867,0.9798841274454798,0.9743450753224061,0.5961992987905342,0.967966548579031,0.9263395062948396,S_LF
0.9144654745847067,0.8760037211124168,0.9458267566195551,0.6614379399470297,0.6395704968325429,0.5756630316382356,0.9708577124649935,0.020757850053061987,0.9964073652358193,0.9212360463882111,0.07337019909140585,0.9712122947338948,0.06152684690000164,0.547324790733268,0.8704614893602483,0.32767625657394284,0.4677804027280828,0.6313131691834178,0.4789581674225768,0.9802419042740047,0.9742614736546875,0.5838938207384152,0.9526056808712081,0.9100959543055913,S_LF
0.9031448005531403,0.9081176812763446,0.9414172675745811,0.5759542729504086,0.7101226326698914,0.5507020353025569,0.9717940088837459,0.02225190919116881,0.9966939269452222,0.9343806249593245,0.08631073266616099,0.9746739433576198,0.07487027459235389,0.5452675209266731,0.878312222922084,0.2898172720941941,0.42362765578858597,0.6414141737152682,0.48037242663435786,0.9802949344363355,0.9742291117187967,0.5668532313317354,0.9478431061227175,0.9100193687372768,S_LF
0.9037736267065377,0.8349688104717309,0.9395275602740901,0.5759542729504086,0.7131901823542006,0.5678627177287339,0.9718491140854801,0.023695611461389567,0.9966789297543114,0.8960803438014451,0.0804843932238779,0.9570513673921871,0.09117836864769992,0.48148120054883015,0.865554730638763,0.3589497630370658,0.46071715622445797,0.6515151892740549,0.48116426053528577,0.97998264570261,0.9740241527914867,0.5058130153428984,0.9235537367658538,0.9002855900547465,S_LF
0.8981131608857251,0.8474577757510917,0.9486613175702915,0.5759542729504086,0.657975393097928,0.5897036252868818,0.9722717513023524,0.02483425931706095,0.9968916591392304,0.9124614920280364,0.0834430334320227,0.9644892489970258,0.06375065030460707,0.5267487214755032,0.8891069313242701,0.24412535092951856,0.39140808040211056,0.6144781469277522,0.4818139122266867,0.9800736218922086,0.974175175158978,0.5575907377537187,0.9549606646483834,0.9231797339763228,S_LF
0.89496851489862,0.8706511508263617,0.9480315011420423,0.5759542729504086,0.6211656005671577,0.6053041713586191,0.9729394098626504,0.02577564142580681,0.9972192900791275,0.9237156693212946,0.08799008213234158,0.968988040953206,0.06671592393232086,0.5720162424021764,0.8949952829676746,0.2597911387902303,0.36157516715201543,0.6144781469277522,0.48332573263543027,0.9801862815259601,0.9743181070424968,0.5891154881232724,0.9630442038335231,0.9222903531829951,S_LF
0.9119496547509992,0.8340765327300046,0.954960642923628,0.6575163735020727,0.5874232974446262,0.6146645398752945,0.9739814885883034,0.026160600953034883,0.9975496897311926,0.9103278020459837,0.06960287748660357,0.966670749966274,0.06671592393232086,0.5329213736932418,0.8763494390409492,0.2663185646503839,0.34964197371355216,0.5875421091132997,0.4843868051884406,0.9799838241506619,0.9741536005350507,0.5651536855537372,0.9496077202767675,0.913043263434591,S_LF
0.9125787385144555,0.8385368252743334,0.9451968111834343,0.6444444739360937,0.6288343240877543,0.6053041713586191,0.9746742396958195,0.026795263957383884,0.9977211191596035,0.9023866316132925,0.07213087344115755,0.9621387304364354,0.06523328711846396,0.5185187994511701,0.9116783430132652,0.2859008080271878,0.35083527742494014,0.6043771313689654,0.4849903232905803,0.9800083358701392,0.9746093644655159,0.5402261898211491,0.9611074797233365,0.9383115599739115,S_LF
0.9088050087638943,0.8563783608397496,0.9524408611791448,0.6549019901640402,0.6518404946495444,0.5631825334703963,0.975858017511646,0.027652995401294296,0.9979380016127748,0.9191438508889211,0.07453693508527245,0.9699015777116525,0.06745709052306939,0.5864196594422026,0.8940136900457555,0.3589497630370658,0.34486868070570853,0.6127946424967984,0.4880086700896276,0.980083049476623,0.9746902693052434,0.6005987050314346,0.9646516458766861,0.920185485305453,S_LF
0.9238994125460219,0.8501338782000692,0.9518109157430241,0.6392157158221204,0.6288343240877543,0.5865834649804931,0.9767529850290978,0.028100380797802603,0.9982266398563038,0.9132555653929026,0.062144494196905584,0.9698395529074902,0.059303043495396376,0.5102880346288823,0.865554730638763,0.3263707799528263,0.3866348186591837,0.6262626448636199,0.4895356162653421,0.979957662603912,0.9745985771535522,0.5582658574298096,0.9460183076066474,0.9107728719094018,S_LF
0.9037736267065377,0.8652989459284075,0.9404724139243356,0.6431372822670774,0.6426380465168519,0.5709828371614897,0.977596783430653,0.028989325176353057,0.998326544220371,0.9119954434690088,0.08264495501888144,0.9644469392199008,0.06152684690000164,0.5205760692577648,0.8527968363927385,0.3616188248718047,0.4522672731435224,0.5875421091132997,0.49174473453144535,0.9800106927662425,0.9741643878470144,0.5698022431036712,0.9417439189601546,0.9007080459315772,S_LF
0.9113208285976018,0.837644912920708,0.9543306974875072,0.6431372822670774,0.6687116663028337,0.5709828371614897,0.9784509140575339,0.029824167134860625,0.9984975121967539,0.9115189120932832,0.07055225231838315,0.9670428987912474,0.06745709052306939,0.4732512785244967,0.872424273241383,0.39033945932227504,0.4689737205086833,0.5471380689320258,0.4929979043249861,0.9800531168961072,0.9739108860158682,0.5184053574332099,0.93801054010031,0.9150517817261892,S_LF
