xa_S1,ya_S1,za_S1,xgb_S1,ybg_S1,zbg_S1,tilt_x_S1,tilt_y_S1,tilt_z_S1,tilt_accx_S1,tilt_accy_S1,tilt_accz_S1,xa_S2,ya_S2,za_S2,xgb_S2,ybg_S2,zbg_S2,tilt_x_S2,tilt_y_S2,tilt_z_S2,tilt_accx_S2,tilt_accy_S2,tilt_accz_S2,Posture
0.2252705667137643,0.3842761386654648,0.6989585066666666,0.5694716047255877,0.8602779873133184,0.32269505877580035,0.4396095314968033,0.7898435866989215,0.769130905491275,0.43133269879952946,0.7718333142738978,0.7572892194402258,0.5619199163236404,0.5405038330638916,0.7696042848013929,0.11796872365448571,0.8443181971782008,0.7037037439316013,0.6978400002659538,0.3972129752262145,0.7470357799304295,0.6880857548424141,0.42423256293209793,0.7357007383186789,LF
0.22166046716527668,0.37031603123890794,0.6864584533333334,0.5694716047255877,0.8544257589266013,0.3132387970607068,0.43939750223808666,0.7899008573825002,0.7691772707988975,0.42738631275022576,0.7685289414073448,0.7591020598886333,0.5884799515557918,0.5405038330638916,0.7621360440960856,0.1351562166983105,0.8522727425650809,0.6986532372549016,0.697746009707925,0.39699262551676157,0.7471110096478859,0.6787348463868393,0.39972205048871123,0.7335355639268809,LF
0.22743656729483447,0.3739897912388213,0.69479168,0.5616438038348134,0.8463789407621851,0.3049645518011339,0.4391194202507978,0.7898516600992498,0.7692074082488516,0.4254569593758705,0.766172128626897,0.7594698198841342,0.5862399312134187,0.5459496445765226,0.7710978411724777,0.1351562166983105,0.8443181971782008,0.6818182249234785,0.6978294225504201,0.3967735036559069,0.7472856779538142,0.6876151065628322,0.40151240762854373,0.7408575932864745,LF
0.22238266451904146,0.3776635512387346,0.6822916266666668,0.5362035047754113,0.8463789407621851,0.34633573164509524,0.43895098579293884,0.7898602380870986,0.7692839110064288,0.43309159870839603,0.769117907593931,0.7535142712511194,0.5827199928696837,0.5343771208439823,0.767363720819824,0.12656247150686656,0.8375000111647715,0.7121212517513531,0.6977061166093403,0.3965904314298987,0.7474244234188809,0.6811150565401407,0.40462690071356455,0.7344861467093778,LF
0.21949446658420643,0.3842761386654648,0.6145834666666666,0.5264187651981465,0.8493050556742706,0.3120567542813078,0.43930767052722847,0.7896927150302872,0.7685026555729941,0.4584552378776214,0.759775031507321,0.7205391794192849,0.5875199802867724,0.5282506874531915,0.780059791198831,0.12812496670630608,0.853409103427168,0.7053872439517805,0.6977312009061777,0.3963746493172315,0.7476766642362348,0.6874608336825255,0.39918981775545714,0.7412469370949264,LF
0.22888066626225193,0.39162365866529153,0.6760418133333332,0.5166340256208817,0.8529626995539532,0.3215130283841087,0.4392788275024187,0.7896899397989243,0.768236055054166,0.44204183631112537,0.7660303975284752,0.741960117510135,0.5849600132120568,0.5405038330638916,0.7669903699645432,0.1164062214956727,0.8511363772370851,0.6986532372549016,0.6975562152692044,0.39622674267507885,0.747799530764399,0.6827804496822472,0.4027613807562485,0.736366423110764,LF
0.22815876464859924,0.3806023786655516,0.7093751466666666,0.5146770882161915,0.8485735257483709,0.31087471924422594,0.43887260322169985,0.7897406508447362,0.7683751509770327,0.42491228493279254,0.7703565141497054,0.7630089690173016,0.5763200096468987,0.5384616886002945,0.7636296004671704,0.12031247177551885,0.8647727343775817,0.6784512160615709,0.6973733719006915,0.39632659132309356,0.7477672522697119,0.6807978111810141,0.4110155755236931,0.7326939571424831,LF
0.21732846600313627,0.39162365866529153,0.6781252266666665,0.5499021281346588,0.8500365856001704,0.32978725661058395,0.4389917183088916,0.7899432427342236,0.768247646381072,0.4446965366267505,0.7766050069236116,0.7466739353348126,0.5859199844810762,0.5459496445765226,0.7591486254539938,0.11406247337463961,0.8693181956895646,0.6801347204925248,0.6971119512167847,0.39625463939523253,0.7477615254400094,0.6788917291466999,0.40250276890880055,0.7330412709470492,LF
0.21155236587357848,0.36958109866581157,0.7072917333333333,0.5733855179889783,0.8580834013688299,0.3286052264356772,0.4387134161458409,0.7903009952862695,0.7686695706804344,0.42351084678788214,0.7813468364990761,0.7723673792557401,0.5807999192596529,0.5357386434294197,0.7628827458066475,0.11484371933685972,0.8556818340831592,0.6565657025669164,0.696848717210215,0.396214316847264,0.7476425635684606,0.678603772435902,0.40674456310524293,0.7318050351441301,LF
0.2166062686493715,0.3982365470472113,0.67500032,0.6027397072393648,0.8632041051003121,0.3345153944362161,0.4390872745895593,0.7906297340558858,0.7684678815922776,0.4500921858940151,0.7784468001775194,0.7423603269170027,0.5772799809159179,0.530973453794948,0.768110575480347,0.11796872365448571,0.8659091071487584,0.6750842071996632,0.6966716160301348,0.3962832728245451,0.7476225196645014,0.6811861032613344,0.4095630628977513,0.7333820411581958,LF
0.2202163681978591,0.38574570285646803,0.7041668266666667,0.5831702306484359,0.8639356302346983,0.34869979397694184,0.4390102130728919,0.790939803087243,0.7687159359880562,0.43214981265447355,0.7777777251092166,0.7606726113988294,0.5887998982881342,0.5377807878930168,0.7643764551276935,0.12812496670630608,0.8500000126534076,0.6666667070987667,0.6965471012072799,0.39605577703625,0.7475998726561323,0.6793380185504438,0.39919918076057714,0.734177842788658,LF
0.23682306271299206,0.37031603123890794,0.6958335999999998,0.5792563430210522,0.8646671601605981,0.32033099954088057,0.4386724634541262,0.7908121424445524,0.7688017118071575,0.42008563140643945,0.7570804815776236,0.7587580961281362,0.5820799683330067,0.5296119312095106,0.7774458763619813,0.1351562166983105,0.8511363772370851,0.6936027338862827,0.6966423006470842,0.3959498873731316,0.7477708966158862,0.6868005341553487,0.4044686000566485,0.7394703514815701,LF
0.2303247652296694,0.3798677470476447,0.6468753066666665,0.5675146673208976,0.8463789407621851,0.31087471924422594,0.4388067706688895,0.7905154449824889,0.7683056030155997,0.4430596519683595,0.7556807092243126,0.733674701140921,0.5894399228248111,0.5656910249925693,0.7677372246250661,0.1304687158507765,0.8556818340831592,0.7003367394804682,0.6968042908049731,0.39576178096787035,0.7480804057302658,0.6920403023400471,0.39937289038320567,0.7451892004534207,LF
0.2259927640675291,0.37839818285664145,0.6625002666666665,0.5459882443526761,0.8478420006139845,0.35106384856647127,0.4387876153776036,0.7903746650642649,0.7681920080119254,0.4385763579408323,0.7621825641122876,0.7428838440870681,0.5929599922405381,0.531654354502226,0.7819268513751579,0.1304687158507765,0.8693181956895646,0.7003367394804682,0.6969070457558728,0.39553386771105176,0.7483591982126044,0.6893527063726009,0.394118691851739,0.7440058167511964,LF
0.21227426748723116,0.37325485866572483,0.6614583466666667,0.5205479388842723,0.8478420006139845,0.3345153944362161,0.4387244249339362,0.7904556513613077,0.768145642704303,0.4395101731492464,0.7724692081485901,0.7491552336573944,0.5843199886753799,0.5398232111857318,0.7613891894355627,0.1374999648193436,0.8636363764927671,0.6919192294553289,0.6968426728013386,0.39548224895597883,0.7483638838005429,0.678509816771956,0.40366446377269827,0.7324415254424979,LF
0.22382646774634682,0.38574570285646803,0.7083336533333333,0.5088062631841177,0.8449158809103856,0.34988182127170653,0.4384287288856948,0.7905823028289573,0.7684238345500364,0.4297986176101321,0.7754503013859667,0.7614838466830212,0.5849600132120568,0.5377807878930168,0.7610156856303205,0.14140621509918974,0.8761363802143575,0.7121212517513531,0.6967819264921302,0.3954686198365375,0.7484206314766866,0.6773953982023729,0.4030095239170673,0.731622821235068,LF
0.21877256497055375,0.39162365866529153,0.71041664,0.5029353996980335,0.8485735257483709,0.3321513158455036,0.4382189013845973,0.7908686562468502,0.7686208871074308,0.43442129924373035,0.7820464856672057,0.7613475591552767,0.5958399060475962,0.5554800238454662,0.7703509865119548,0.13671871885712347,0.8772727380991723,0.7121212517513531,0.6969387789024742,0.395258191143759,0.74873873083562,0.6893251576439747,0.3928268794468393,0.7442587518045216,LF
0.19638977032586302,0.39382815542939115,0.6656251733333333,0.4892367865931887,0.8514996454519699,0.34633573164509524,0.43843929732226644,0.7914009960809949,0.7685652487382842,0.45581586611105107,0.792803354618674,0.7467474873339127,0.5849600132120568,0.5445881219910852,0.7703509865119548,0.12499997006445966,0.8670454650335732,0.6750842071996632,0.6969369655798113,0.3952087334022189,0.74883009980042,0.6867425368319252,0.4027118603397218,0.7398247122328955,LF
0.22960286361601673,0.3930932228562948,0.6927086933333334,0.5381604466023125,0.8558888154243415,0.34869979397694184,0.43838777619398006,0.7914544823581695,0.7685652487382842,0.4376507179585806,0.7692200582685462,0.7488026167205323,0.5907199718981649,0.5343771208439823,0.7778193801672233,0.12734371920893006,0.853409103427168,0.6565657025669164,0.6969747431352892,0.39496507912637,0.748900643929938,0.6876580245821656,0.3965299950220807,0.7420072523149219,LF
0.21371836645464865,0.3975019154293045,0.6864584533333334,0.5322896209934286,0.8661302200123976,0.37352249104407464,0.43852340446331495,0.7918833817506084,0.7686765254765773,0.4469868262361811,0.783171565139127,0.7489843334241918,0.5769599031115835,0.5241661196968792,0.7752054653303734,0.134374965618904,0.8522727425650809,0.663299698236859,0.6969943874641377,0.3949849702736627,0.7488655020203995,0.6839026978904925,0.40918501392217693,0.7358376504271456,LF
0.2108301685198137,0.3894194628563814,0.6708334933333334,0.5401174193206023,0.8551572854984417,0.3640662184897372,0.4386836924179834,0.7921540929553653,0.7686904350688645,0.44734060914836427,0.7801442552392216,0.7464424628670568,0.5785598989172798,0.5432268782347665,0.7707244903171969,0.1453124653790359,0.8636363764927671,0.6430976891731585,0.6971814619188641,0.39504857283105516,0.7488267157646867,0.6874092160646786,0.40865748621662135,0.7390150683855848,LF
0.2267146656811818,0.38133731123864795,0.7218752,0.5636007796935139,0.840526710938014,0.35815605104664516,0.438352327896313,0.7921838636190757,0.769163361206611,0.4219129988344171,0.7743946654121016,0.7690618658844196,0.5823999150653493,0.5425459775274885,0.7748319615251315,0.15234371485932163,0.8590909226239654,0.663299698236859,0.6974718957653777,0.395007980156395,0.7489173037981636,0.6896087645555157,0.40478331935940104,0.7418408940360683,LF
0.22093856555162392,0.3872152670474713,0.6937501866666665,0.5440313018207845,0.8397951858036276,0.366430296306218,0.4382823120040265,0.7922381067775313,0.7693465041717182,0.43607494311575445,0.7754164091667787,0.7548555135876502,0.5839999108710454,0.541184454942051,0.7733384051540466,0.15078121270050862,0.8556818340831592,0.6835017183274961,0.6976913078075931,0.39491773328441915,0.7490560492632303,0.687799538051319,0.4033202674714146,0.7406049099098192,LF
0.21444026806830133,0.396766982856208,0.6510417066666667,0.5714285421302778,0.8397951858036276,0.34988182127170653,0.43873345214017445,0.7922721664351661,0.7689918095684084,0.45694241227624666,0.7749395480128909,0.7327488112698967,0.5817600216006643,0.5452690226983632,0.7699776356566739,0.1515624637799151,0.8829545572959697,0.6717172093646918,0.6979140442746905,0.39501603484319997,0.749122168115251,0.6871650473330656,0.40576841100863553,0.7394846970517588,LF
0.207220068971326,0.39088902704738465,0.6708334933333334,0.5303326797433374,0.8412582408639138,0.3557919887147986,0.4389084918708907,0.792511593213651,0.7689663086492166,0.44930736418241307,0.7836951169725954,0.7469400205080279,0.5833600174063606,0.5534378793818694,0.7755788161856544,0.14218746617859623,0.8659091071487584,0.6717172093646918,0.6981851360127995,0.39499083938996254,0.7493267721218972,0.6940435298910956,0.40422645580614525,0.7458277041651481,LF
0.21516246542206613,0.3850110712385613,0.69479168,0.5499021281346588,0.8332114260535567,0.3605201288631259,0.4388424391423185,0.79259863456094,0.769212044779614,0.43603508888821213,0.780071967638856,0.7582302523698883,0.5772799809159179,0.5534378793818694,0.7703509865119548,0.1453124653790359,0.8750000074431808,0.7003367394804682,0.6984254012656387,0.39514292071734947,0.7495358014060409,0.6910923360886895,0.41026225353888657,0.7418356088259987,LF
0.22093856555162392,0.3872152670474713,0.7041668266666667,0.5283757384932463,0.8434528258500995,0.335697424053676,0.43865506956893546,0.7927093915216934,0.7693743233562919,0.4328763858796677,0.7775639434189547,0.7597532114100781,0.576639956379241,0.552076356796432,0.7871546810488574,0.14609371645844238,0.8693181956895646,0.6969697361320285,0.6989125806210811,0.395254507597964,0.7499426666253642,0.702846073653701,0.409786410562599,0.752175996488607,LF
0.20649816735767332,0.394562787047298,0.7156249600000001,0.5420743605706934,0.8456474108362854,0.35106384856647127,0.43862490548955413,0.7932026258229979,0.7697475640826507,0.43838607955189957,0.7948174530708306,0.7664529332104578,0.5859199844810762,0.541865355649329,0.7759523199908964,0.15078121270050862,0.8681818303615688,0.6868687271894037,0.6991564725192461,0.39518307136651426,0.7501103065493847,0.6896911207547772,0.4013914884166923,0.742691309503915,LF
0.2158843670357188,0.3842761386654648,0.69062528,0.5185910014795821,0.8295537812155713,0.3439716538286145,0.43850138688712426,0.7932255845551814,0.7698588408209444,0.4366255445978004,0.7783707204407411,0.7563892890982957,0.5859199844810762,0.5500342123328349,0.7662435153040202,0.14453121941681576,0.8477272872076429,0.690235725024375,0.6992462319910615,0.39503071991243577,0.7502126085527078,0.6856147788779547,0.4022378287990982,0.738951897541421,LF
0.21877256497055375,0.3828068754296512,0.70104192,0.5381604466023125,0.8346744811138429,0.34515368112337924,0.4383195217077889,0.7932558598064124,0.7700790760321501,0.4316603209879924,0.7775608623081195,0.7610317182179647,0.5823999150653493,0.5425459775274885,0.7766990217014582,0.15078121270050862,0.8545454687551637,0.6818182249234785,0.6995100704385189,0.3949661350761646,0.7503646298502668,0.6909656119370091,0.4046737627894415,0.7430466769619204,LF
0.21227426748723116,0.39970611123821453,0.6812501333333333,0.5381604466023125,0.8339429559794564,0.34633573164509524,0.43854476151222,0.7934165709316968,0.7699793906207623,0.4503938517394122,0.7839690988284076,0.7460033141665479,0.5852799599443993,0.5364195441366977,0.7781927310225042,0.1453124653790359,0.8420454680108456,0.6936027338862827,0.6996886827208181,0.39477957576013717,0.7505408600188413,0.6894022940841281,0.40167266087195447,0.7423759586364359,LF
0.22238266451904146,0.38648063542956457,0.6770833066666667,0.5303326797433374,0.8288222512896717,0.33806148638552247,0.43852780797855306,0.7932480386998445,0.7698634773517061,0.440283753924875,0.7705226571262834,0.7469681433312135,0.5820799683330067,0.5479917890401198,0.7654966606434972,0.14609371645844238,0.835227287951961,0.7020202417060346,0.6997754199881951,0.3946505043154827,0.7506405589177542,0.6848474742890616,0.4058307526256407,0.7374536663250575,LF
0.2166062686493715,0.38133731123864795,0.7052083199999999,0.5225048762889624,0.8237015513914003,0.34515368112337924,0.43827196374321686,0.793242740530879,0.7701532605243454,0.4300859768097448,0.7798970553468235,0.7643696810006532,0.5878399270191149,0.54731116716196,0.7871546810488574,0.1390624669781566,0.828409110870349,0.7003367394804682,0.7001060491537374,0.3943513021690461,0.7510289420957645,0.699561975214844,0.3991421322997329,0.7517826258534355,LF
0.21227426748723116,0.3769286186656382,0.6802086399999999,0.5264187651981465,0.8171177916413295,0.3333333648187562,0.43816407761988235,0.7931521670709464,0.770208898893492,0.43617243268774253,0.7773011009638544,0.7560994076900774,0.5932799389728806,0.5486726897473975,0.7714713449777199,0.1484374645794755,0.8386363772370852,0.7121212517513531,0.7002571593756487,0.39402236152955855,0.7512595771465135,0.6879572907710311,0.3949548928994545,0.7426112763228628,LF
0.22382646774634682,0.3894194628563814,0.7197917866666668,0.5185910014795821,0.8273591962293856,0.3286052264356772,0.43787344561416486,0.79315569918359,0.7704384071662217,0.42860115135797666,0.7788798147541364,0.7652047125198482,0.5827199928696837,0.5541185012600288,0.7647498059829743,0.1390624669781566,0.8454545578169923,0.7255892629397238,0.7003055146466605,0.39395097441205273,0.751457933702575,0.6864751691709429,0.4054932139385504,0.7389488774213812,LF
0.23249076581073955,0.39088902704738465,0.6875003733333332,0.5068493129614241,0.8310168362758577,0.335697424053676,0.437740239278211,0.7928912953228394,0.7702923564472121,0.4370136634598662,0.764977131639868,0.7464792388666069,0.5862399312134187,0.541865355649329,0.7703509865119548,0.1289062208560244,0.8420454680108456,0.7205387606737987,0.7002456749987834,0.3937792720640648,0.7516375479068829,0.6855643212065764,0.40141193176204226,0.7390963599499867,LF
0.20577597000390851,0.38648063542956457,0.70104192,0.5401174193206023,0.8397951858036276,0.35224588360355313,0.437711616429163,0.793232901074229,0.7705890944159943,0.4378377262570483,0.7900019138438458,0.7635151798346376,0.5875199802867724,0.5527569786745914,0.7744586106698504,0.13984371805756313,0.8397727425650808,0.7121212517513531,0.7004245895015266,0.39357788033696983,0.7519126960430471,0.6924106152501062,0.4003525947757255,0.7452913811814306,LF
0.20505406839025583,0.3982365470472113,0.6979170133333332,0.5479451856027673,0.8368690661000288,0.32269505877580035,0.437892160553927,0.7936068004269314,0.7706030040082807,0.4465320792808908,0.7933968239672503,0.7568652137983548,0.5791999234539567,0.5241661196968792,0.7640031042724125,0.134374965618904,0.8579545572959697,0.7104377506284802,0.7002027596957607,0.39362738719245377,0.7518359044629446,0.6754200093665678,0.4077567086637439,0.7287942271412147,LF
0.20649816735767332,0.39088902704738465,0.6885418666666667,0.5577299290254331,0.8317483662017574,0.335697424053676,0.4380687415149766,0.7937238647316912,0.7706632789081898,0.4442097019087723,0.7880278698325476,0.7553941738163538,0.587199902482438,0.5432268782347665,0.7770725255067004,0.14453121941681576,0.8500000126534076,0.7070934737959192,0.7004714336703192,0.3934872651104144,0.7520621142361957,0.6908356979325404,0.40017382724832096,0.7439617733339507,LF
0.21949446658420643,0.3894194628563814,0.6729169066666667,0.5753424553936685,0.8383321259518282,0.34278961879153264,0.43825434968226434,0.7936857683738923,0.7704986820661306,0.444247921091082,0.7730171718602149,0.7445906831250081,0.5881600048234493,0.5493533116255572,0.7774458763619813,0.14140621509918974,0.8556818340831592,0.6818182249234785,0.7006684813996915,0.3933468974586554,0.7522484965119703,0.693240846934914,0.3994626387865546,0.7462135245002204,LF
0.21516246542206613,0.38133731123864795,0.6781252266666665,0.5616438038348134,0.8456474108362854,0.31678488668731797,0.43828957780416955,0.7937503555765183,0.7703920418585999,0.4387627530973378,0.7756041199192039,0.7521708656204977,0.5862399312134187,0.552076356796432,0.7714713449777199,0.13593746777771698,0.8590909226239654,0.6919192294553289,0.7007579386510632,0.3932760997084769,0.7523942703589447,0.6901516195027599,0.40170609009375235,0.7430202509115728,LF
0.2166062686493715,0.38574570285646803,0.68541696,0.5577299290254331,0.8427212959241999,0.3404255642020032,0.43831467784102696,0.7938300804047599,0.7704059514508864,0.43893688541459946,0.77708352713718,0.7530426731392428,0.5868799557500955,0.5452690226983632,0.7606423347750397,0.1374999648193436,0.8522727425650809,0.6818182249234785,0.7006334238282081,0.39316674751231123,0.7523190406414881,0.6796082860775975,0.4014852596187234,0.7338972233016355,LF
0.2158843670357188,0.3739897912388213,0.6520836266666666,0.5675146673208976,0.8412582408639138,0.33806148638552247,0.438428508709933,0.7936887958990153,0.7702065806281108,0.4417751195575731,0.7676645713137916,0.7433878916103128,0.5820799683330067,0.5595643127726602,0.7722181996382428,0.14687496753784887,0.8670454650335732,0.6868687271894037,0.7008996800392161,0.3932246528522076,0.7524963120518268,0.6940458497840325,0.4058507960436363,0.7454519508968749,LF
0.21227426748723116,0.38648063542956457,0.7197917866666668,0.5694716047255877,0.8244330765257868,0.3191489722461159,0.43829001815569335,0.7938747364003256,0.7705056368622741,0.4301891890400466,0.7882283790453652,0.7702884536341174,0.5868799557500955,0.5507148342109945,0.7651233097882164,0.1351562166983105,0.8647727343775817,0.6885522316203576,0.7008637158064012,0.3931715606788166,0.7525369204806269,0.6849130112645301,0.40142018908565313,0.7385273189991725,LF
0.20649816735767332,0.3872152670474713,0.6781252266666665,0.5675146673208976,0.8317483662017574,0.35815605104664516,0.4384734245653621,0.7940235897188779,0.7705798213544696,0.4449902316266391,0.7848014727709792,0.7522444176195978,0.5852799599443993,0.5479917890401198,0.7625093949513665,0.15546871405976126,0.8602272805087801,0.7020202417060346,0.7009534752782165,0.3931364933228489,0.7525629515247294,0.6822077261134399,0.4029858105774669,0.7358160062335277,LF
0.20433187103649103,0.3798677470476447,0.7031253333333333,0.5538160413980494,0.8302853063499579,0.335697424053676,0.43836707967236077,0.7942781541229783,0.7708904689155389,0.4334290311682542,0.7897689344629949,0.7679888720151952,0.5875199802867724,0.5575221683090631,0.7651233097882164,0.14453121941681576,0.8715909189023748,0.6767677116306171,0.7010432347500318,0.39310837558994755,0.7526092867832319,0.6873454190089128,0.40105496131055723,0.7407269730947572,LF
0.20433187103649103,0.3872152670474713,0.6552085333333334,0.5538160413980494,0.8302853063499579,0.35815605104664516,0.43867488538750715,0.794346273438248,0.770749054727291,0.4524315268604209,0.7819161309780217,0.742407919387009,0.5839999108710454,0.5452690226983632,0.7703509865119548,0.1578124621807944,0.8772727380991723,0.7070707458575659,0.7012520690767136,0.3931708730836015,0.7527368388993345,0.6871258991397546,0.4036392448242343,0.7399450136811437,LF
0.2108301685198137,0.38648063542956457,0.7052083199999999,0.5283757384932463,0.8310168362758577,0.34515368112337924,0.43853837641512466,0.7945153102576209,0.7710110187153567,0.4350765436206565,0.7864529481786785,0.7638418372424054,0.5942399102418999,0.5731789809687974,0.7647498059829743,0.14609371645844238,0.8636363764927671,0.6801347204925248,0.7014566723171815,0.3929906985802853,0.7528948473370372,0.6920014441333534,0.3952427935443256,0.7460660419716149,LF
0.22166046716527668,0.37545905447463496,0.6937501866666665,0.5440313018207845,0.8412582408639138,0.34633573164509524,0.4382990453619314,0.794448956998673,0.7711872068843211,0.4283908436649458,0.7714467533683357,0.7601144815233052,0.5843199886753799,0.551395456089154,0.7781927310225042,0.14687496753784887,0.8681818303615688,0.6936027338862827,0.7017162796784254,0.3929927613659305,0.7531181936954373,0.6950555831848361,0.4030986371416768,0.7469677994801367,LF
0.21444026806830133,0.39897117866511816,0.6968750933333333,0.5088062631841177,0.840526710938014,0.3309692862280438,0.43832524627759845,0.7946618929323309,0.771145478107461,0.44456798119534485,0.7851517713720957,0.7529388350228658,0.5782399521849374,0.5364195441366977,0.7640031042724125,0.16484371166108014,0.853409103427168,0.6717172093646918,0.7018250790382016,0.3930560692396594,0.7529588837055295,0.6800421060568056,0.4091109097359256,0.7324948808965327,LF
0.2563176594228478,0.3901543954294778,0.6989585066666666,0.5009784622933433,0.828090721363772,0.34515368112337924,0.43793333342140356,0.7939365483715888,0.7709878360615455,0.4261142475593374,0.7458066970314091,0.7446058261836462,0.5843199886753799,0.5616067360653753,0.7748319615251315,0.1601562154190139,0.8715909189023748,0.68518522275845,0.7022318677555869,0.3930924381151414,0.7531702557836425,0.6963999611417934,0.40365695925351913,0.7480092375404948,LF
0.21227426748723116,0.39529741866520474,0.6895833599999999,0.5185910014795821,0.8266276663034858,0.38061469352424854,0.4380048905440234,0.7940533603825883,0.7711315685151746,0.4450425530740793,0.7844634986132039,0.7519458830350151,0.5817600216006643,0.5541185012600288,0.768483926335628,0.12703512421381466,0.8920454650335732,0.68518522275845,0.7021962057432158,0.3932647543874284,0.7532434030175706,0.6893440067740874,0.4061777248932664,0.7412849402720927,LF
0.2166062686493715,0.38574570285646803,0.6614583466666667,0.5518591039933592,0.8397951858036276,0.3687943508957474,0.43818037062626347,0.7939920529988456,0.7710202917768808,0.44618422340767544,0.7721663112526315,0.7419666073924087,0.5894399228248111,0.5663716468707286,0.7718446958330007,0.12703512421381466,0.8681818303615688,0.6936027338862827,0.7022850585536998,0.3931865649886879,0.7534797648980222,0.695302071809386,0.3991617993155126,0.7480736667680085,LF
0.2158843670357188,0.38794989866537816,0.7041668266666667,0.5303326797433374,0.8361375409656422,0.3687943508957474,0.43805487044197644,0.7941287962169055,0.7713100749495201,0.4348376226360568,0.7822259011212281,0.7610403713943297,0.5865600090177531,0.5445881219910852,0.7643764551276935,0.16484371166108014,0.8693181956895646,0.7138047528742261,0.7024047378494537,0.39315748953387997,0.7535320872966683,0.6821474088970795,0.40154898921889953,0.7360918438638208,LF
0.22093856555162392,0.3835415070475581,0.7000000000000001,0.4833659231071045,0.8119970917430581,0.35106384856647127,0.4377468445510682,0.7939249428586169,0.7714932179146274,0.43181197143330724,0.7756531806840422,0.7595065958836842,0.5843199886753799,0.5575221683090631,0.7770725255067004,0.147656213500069,0.8772727380991723,0.690235725024375,0.7026936605937483,0.3932136267717948,0.7537528305506581,0.6965127659358521,0.4033806565019248,0.7481708139626189,LF
0.19638977032586302,0.3747244228567281,0.7093751466666666,0.49119372399787886,0.857411127130205,0.37234044052235865,0.4374399195389696,0.7945198515453056,0.7721168313021466,0.43066519158335953,0.7964544709584566,0.7758048535666231,0.5920000209715187,0.562287357943535,0.7707244903171969,0.14296871725800275,0.8704545610175602,0.7053872439517805,0.7028553485311935,0.3930953112808615,0.7539829449805249,0.6926234654270705,0.3966640883114879,0.7462968294779824,LF
0.20433187103649103,0.38794989866537816,0.68541696,0.5068493129614241,0.8163862617154297,0.3640662184897372,0.43746391869701745,0.7946139571178819,0.7722675185519186,0.4439006783598289,0.788414193729584,0.7559977328677924,0.5846399354077223,0.5323349763803854,0.7744586106698504,0.14687496753784887,0.8431818325945231,0.6919192294553289,0.7028943349684466,0.3929656750258517,0.754003509505366,0.6852763644957784,0.4023429155927441,0.7386335265539021,LF
0.21516246542206613,0.3717852944747216,0.6968750933333333,0.5596868664301232,0.8383321259518282,0.37943264300253254,0.43725343066863415,0.794636663556305,0.7726662601974698,0.4270163837663717,0.7767164009307325,0.765325856988954,0.5763200096468987,0.541184454942051,0.7595221292592359,0.15546871405976126,0.8193181956895645,0.6801347204925248,0.7028556507516371,0.392919704374331,0.7538277999576735,0.6787870439779204,0.4113689466289888,0.7308577241583429,LF
0.2252705667137643,0.3776635512387346,0.7156249600000001,0.5577299290254331,0.8412582408639138,0.3605201288631259,0.4369365977472497,0.7945998286673074,0.7730534105161156,0.42195551001046233,0.7733357113188755,0.7682592837765922,0.5734399647678485,0.5541185012600288,0.7722181996382428,0.17968744123231262,0.8272727455423532,0.7053872439517805,0.7033461545319616,0.39295533654065395,0.7539855480849352,0.6932614359847294,0.41378643691075406,0.7428652180828681,LF
0.19422376974479286,0.37325485866572483,0.6885418666666667,0.5068493129614241,0.8229700214655006,0.33806148638552247,0.4368137396721054,0.7948531316026065,0.7733153745041813,0.43661593870705945,0.7935672330972926,0.7674026193164853,0.5859199844810762,0.5609258353580976,0.7879015357093804,0.19999995906250892,0.853409103427168,0.7491582918922686,0.7042561402883121,0.3928576980201163,0.7545712465772431,0.705402885656827,0.4013657519151816,0.7563621345403075,LF
0.21805036761678895,0.39088902704738465,0.6520836266666666,0.42465755742433503,0.7959034764968843,0.34988182127170653,0.4368335554906771,0.7944302872604139,0.7729166328586302,0.4518723413909045,0.7704036788463374,0.7347996140683343,0.587199902482438,0.5575221683090631,0.7752054653303734,0.15390621190094825,0.840909103427168,0.7626263052860266,0.704510609902011,0.3926904895979982,0.7549906066977357,0.6947641466346329,0.400776894173576,0.7472428820804197,LF
0.22093856555162392,0.3901543954294778,0.6812501333333333,0.5380733797370694,0.8039502960987547,0.3404255642020032,0.43690247050415404,0.7941159292351323,0.7727682638742387,0.44177328013168654,0.7736729744510735,0.7476430910876608,0.5817600216006643,0.5602452134799378,0.7647498059829743,0.1374999648193436,0.840909103427168,0.7912458365044964,0.7045103076815672,0.39264729388430963,0.7553797708070692,0.6888820580930191,0.4066238085693611,0.7407783151354322,LF
0.20938606955239614,0.3960323512383013,0.6614583466666667,0.41291584327017006,0.8237015513914003,0.3333333648187562,0.4369343959896306,0.7941232457541798,0.77241588753631,0.45477965619495136,0.7812989607768666,0.7395242483634676,0.5788799767216143,0.5602452134799378,0.7710978411724777,0.12265622091998925,0.8511363772370851,0.7710438164138594,0.7044867344869491,0.3927033574513085,0.7557704967790487,0.6939327550033565,0.4089612428048364,0.7446191527959264,LF
0.2202163681978591,0.39088902704738465,0.6875003733333332,0.4285714322337153,0.8346744811138429,0.31678488668731797,0.436698587748628,0.7940982686719142,0.7722327445712021,0.4405459743040379,0.77580415511497,0.7504445569357372,0.5855999066767418,0.5643295024071319,0.7766990217014582,0.1289062208560244,0.8465909226239654,0.7710438164138594,0.7046148759551298,0.3926000708272186,0.7562689912736131,0.698598059699545,0.4024368985210216,0.7502008379826403,LF
0.22093856555162392,0.39162365866529153,0.7020834133333334,0.4344422957197995,0.8324798913361438,0.31087471924422594,0.43640905662171997,0.7941250118105017,0.7721678331405307,0.4363424773919231,0.7783996354808874,0.7567094566237903,0.5897600006291456,0.5643295024071319,0.757281565277667,0.1164062214956727,0.8556818340831592,0.7727273208448132,0.7043292776357173,0.3924807239434627,0.7564949407364234,0.6837881531767309,0.39961926915863755,0.7379555096049883,LF
0.19783386929328048,0.3872152670474713,0.69062528,0.44227005815656345,0.8456474108362854,0.31678488668731797,0.43628773977690904,0.7945922598544995,0.772211880182772,0.4437735535930017,0.7949335872484673,0.7608759610434002,0.5961599838519306,0.5670525475780066,0.7770725255067004,0.11171872013642008,0.8750000074431808,0.7441077896263435,0.704309331086425,0.39231302438190535,0.7569288782416134,0.6985029440891303,0.39253994333264636,0.7523008281169149,LF
0.21299616910088384,0.38794989866537816,0.6666666666666667,0.46966729718425637,0.859546460741478,0.32269505877580035,0.43631988543814754,0.7947746682431662,0.7719336883370387,0.44703935206427525,0.7769875386842353,0.7445019880672699,0.5734399647678485,0.5507148342109945,0.7729649013488045,0.11796872365448571,0.8602272805087801,0.7592592964241189,0.7042253138030423,0.3925120831966636,0.757187366509552,0.6925442990805973,0.41361042182455326,0.7422840966518949,LF
0.22166046716527668,0.3872152670474713,0.6729169066666667,0.47553816067034055,0.8514996454519699,0.28014185473400105,0.43625119060043244,0.7947542324485853,0.7714816265877221,0.4422259832804363,0.7705079625976846,0.7449259937091408,0.5855999066767418,0.5527569786745914,0.779312936538308,0.1257812175618357,0.8659091071487584,0.7727273208448132,0.7042815268055933,0.39249464774656756,0.7576228658773881,0.696199580389365,0.40187904691194914,0.7482417867835519,LF
0.22743656729483447,0.3901543954294778,0.6979170133333332,0.47553816067034055,0.8471104706880849,0.29905440758499324,0.43602330868685857,0.794718659028389,0.7713008018879953,0.4347826442401138,0.771376598844702,0.7533390444297342,0.5798399479906337,0.5602452134799378,0.7718446958330007,0.11953122581329872,0.8590909226239654,0.7744108142488307,0.7042437492501156,0.3925724933477005,0.7579925067036446,0.6943407661736412,0.40801052138293936,0.7452002742268996,LF
0.21227426748723116,0.34680390704842473,0.66875008,0.4344422957197995,0.8441843557759993,0.3026004972116045,0.4354140823536613,0.7945665258909533,0.7713888959724778,0.42087004435673336,0.7666063282461428,0.7646249497034121,0.5843199886753799,0.5371001660148571,0.7823002022304387,0.1351562166983105,0.8522727425650809,0.7760943186797846,0.7043047977797676,0.39249545812664244,0.7583434051781474,0.6927588891772646,0.4023584421841491,0.7451393684727655,LF
0.21227426748723116,0.3806023786655516,0.7072917333333333,0.4442269699252467,0.8383321259518282,0.3238770883932602,0.43502657301270453,0.7947335443602441,0.7716137677144452,0.4302666493079365,0.7839119797736925,0.7670737986146263,0.5859199844810762,0.5445881219910852,0.7584017707934708,0.12499997006445966,0.8272727455423532,0.7626263052860266,0.7039699375280118,0.3923038646313619,0.7583873976426808,0.6778396576997973,0.4024973110766703,0.7321269296050287,LF
0.21155236587357848,0.39970611123821453,0.6552085333333334,0.43639920748848265,0.8346744811138429,0.3286454119415951,0.4352330978773735,0.7947673517241187,0.7711524329036046,0.4583902448296293,0.7791298587488439,0.7342306677223539,0.587199902482438,0.5445881219910852,0.7811799967146349,0.14218746617859623,0.8250000148863619,0.7441077896263435,0.7041346476698954,0.39205269592209135,0.7586745200591322,0.6943198871372086,0.3999872023246601,0.7470342421210102,LF
0.19566786871221034,0.34900810285733486,0.6833335466666667,0.42661445637501477,0.857411127130205,0.3274231966014325,0.43465954001760526,0.7950865033308453,0.7715766754683475,0.422654491847358,0.7843030438412447,0.7754154606302109,0.5807999192596529,0.5561606457236257,0.7703509865119548,0.1499999667382885,0.8250000148863619,0.7626263052860266,0.7042936156233462,0.3919604599353862,0.7589246783929579,0.6916001026552625,0.4070458025036393,0.7430439085185505,LF
0.19277967077737537,0.37252022704781806,0.7260420266666667,0.5380733797370694,0.857411127130205,0.3156028593925533,0.4344184475583169,0.7957846001654795,0.7721631966097691,0.42535476904883907,0.8024019629046105,0.7858382115615089,0.5843199886753799,0.5398232111857318,0.7849141170672885,0.14921871565888198,0.840909103427168,0.7676768185788881,0.7045405297259495,0.3918416533050136,0.7592958810818605,0.69564976576331,0.40230289933216834,0.7476667055926582,LF
0.21877256497055375,0.39529741866520474,0.7052083199999999,0.42465755742433503,0.8105340318912586,0.3215130283841087,0.43417647439598084,0.795671824854644,0.7721492870174819,0.4383840357453589,0.7820227848146268,0.7571659116770287,0.5894399228248111,0.5486726897473975,0.7707244903171969,0.13593746777771698,0.8465909226239654,0.7474747874613148,0.7045060765953537,0.3916757955163537,0.7594676859729377,0.6879164026580175,0.3986150986220856,0.741771431275155,LF
0.207220068971326,0.37913281447454833,0.7052083199999999,0.4481409088246442,0.820043906553415,0.3333333648187562,0.43386470551712014,0.795770471714905,0.7724274788632153,0.4314722907862544,0.7874706627884172,0.7683825915397892,0.5756799851102218,0.5541185012600288,0.7662435153040202,0.13828121589875011,0.835227287951961,0.7946128343394678,0.7045000321864773,0.3917418046569989,0.7597266948617583,0.688578732091514,0.4120482585280979,0.7392154030148851,LF
0.21805036761678895,0.38648063542956457,0.7229166933333333,0.42074360570693403,0.8273591962293856,0.3345153944362161,0.43338912587140055,0.7958259763421617,0.7727404446896652,0.42748482422548423,0.7837844691868179,0.7699228569327083,0.5884799515557918,0.5486726897473975,0.7737117560093275,0.13593746777771698,0.8238636495583663,0.7474747874613148,0.7045145387677806,0.3914830478433908,0.7599279148326712,0.6902264360499764,0.3993501180491449,0.7436167246194145,LF
0.21516246542206613,0.4004407428561214,0.6697919999999999,0.4735811848116401,0.8383321259518282,0.32505911801072,0.43361678760921263,0.7958683616938851,0.7723486578402575,0.4534896055065054,0.7792398307048101,0.7393922874239063,0.5782399521849374,0.5371001660148571,0.768110575480347,0.14609371645844238,0.8227272916735515,0.7457912830303609,0.7044722279056455,0.39142312883179314,0.7599489999783944,0.6832948859410138,0.4088892323559109,0.7353790955344505,LF
0.26137185793875295,0.3776635512387346,0.6781252266666665,0.49119372399787886,0.8207754316878015,0.31442083209778854,0.4332347826623036,0.7948069618444793,0.7719197787447521,0.4233467291226696,0.7338083774218568,0.7393620013066294,0.5791999234539567,0.5500342123328349,0.7714713449777199,0.1601562154190139,0.8306818340831592,0.7070934737959192,0.7047007065611754,0.3913898786917509,0.759965920157061,0.6903749091979405,0.40826118173357684,0.7416901397107529,LF
0.20649816735767332,0.38574570285646803,0.71041664,0.4579256471201087,0.857411127130205,0.32978725661058395,0.43302627621577744,0.7952704254820734,0.7721817427328179,0.43431481692296336,0.7911194090429419,0.768038627779292,0.5865600090177531,0.5493533116255572,0.7632562496118894,0.16328120950226713,0.8454545578169923,0.7356902784985105,0.7047786794356818,0.3912935908046713,0.7599750310224969,0.6830823257506665,0.4017818645648367,0.7368524107604862,LF
0.2259927640675291,0.3982365470472113,0.7052083199999999,0.49706457466595966,0.8171177916413295,0.36170215615789064,0.4329899472150628,0.7951011363689402,0.7722652002865373,0.4381571732193489,0.7764751262514791,0.7534255761933811,0.5884799515557918,0.6085774528736967,0.7722181996382428,0.15234371485932163,0.8431818325945231,0.7306397762325855,0.7053752625917881,0.3911828879750476,0.7604873219704356,0.7115946799055223,0.4015236761698816,0.7617097604239442,LF
0.2007217714880034,0.3975019154293045,0.6864584533333334,0.4892367865931887,0.8207754316878015,0.335697424053676,0.4332059396374938,0.7953476273727124,0.7722281080404397,0.4507556054971038,0.7945242735244293,0.7532719823129073,0.5811199970639874,0.568414070163444,0.7808066458593539,0.162499963540047,0.84886364806973,0.7306397762325855,0.7058842018191857,0.3912071011494063,0.7608236430602409,0.7037157435184367,0.4065608317736166,0.7536973819586082,LF
0.2166062686493715,0.3820719428565548,0.6833335466666667,0.4951076372612695,0.8207754316878015,0.3345153944362161,0.4331484737636361,0.795205585985687,0.7721979705904856,0.43723296390167576,0.7756173923966481,0.7537846830125164,0.5811199970639874,0.5602452134799378,0.7778193801672233,0.14374996833740925,0.8443181971782008,0.7070934737959192,0.7061018005387381,0.3912066591239109,0.7609782674622101,0.69850700390177,0.40644527629334154,0.7491938796260688,LF
0.2166062686493715,0.3806023786655516,0.6937501866666665,0.47749507243902384,0.8361375409656422,0.31796692172439983,0.4329520769840148,0.7952028107543242,0.7722141984481532,0.43312593465827864,0.7773338081404134,0.759327042474116,0.583679964138703,0.5541185012600288,0.7718446958330007,0.1304687158507765,0.8454545578169923,0.7188552562428449,0.7060637207628165,0.3911639299926896,0.7610561002840769,0.6915310858403885,0.4041689133173927,0.7436557345032606,LF
0.2202163681978591,0.4349741470463446,0.6968750933333333,0.5380733797370694,0.8441843557759993,0.3439716538286145,0.43363175956102235,0.7955413889805906,0.7718015472103156,0.4665113101188249,0.7904299512414211,0.7339451129023187,0.5807999192596529,0.541865355649329,0.7520538885539284,0.13359371965668387,0.84886364806973,0.6885522316203576,0.7056650919974142,0.3912105145685096,0.7606747454879741,0.6728771167210633,0.4076136287714326,0.726614707179228,LF
0.21299616910088384,0.3930932228562948,0.6968750933333333,0.5283757384932463,0.8427212959241999,0.31087471924422594,0.43372819654473765,0.795740196463674,0.7717250444527389,0.4412063281973157,0.7847263410683042,0.7561534900423574,0.5868799557500955,0.5534378793818694,0.7740852598145697,0.13984371805756313,0.84886364806973,0.6969697361320285,0.7057370204630439,0.3911180821260287,0.7607145729854511,0.692476442212192,0.4010003594641162,0.7452025393169294,LF
0.21227426748723116,0.3960323512383013,0.6937501866666665,0.5792563430210522,0.8427212959241999,0.32269505877580035,0.4340168469685981,0.7959528801035716,0.7716485416951624,0.44425425689135806,0.7855501827039474,0.7535553738388518,0.5875199802867724,0.5343771208439823,0.7748319615251315,0.14687496753784887,0.8477272872076429,0.6868687271894037,0.705731580495055,0.39099475701281433,0.7606065441524252,0.6859076653612436,0.3996947378029215,0.7397824305523397,LF
0.20505406839025583,0.39529741866520474,0.6937501866666665,0.5362035047754113,0.8441843557759993,0.3274231966014325,0.43422623411817185,0.7963025592552894,0.7716531782259242,0.4458929809756356,0.7916581294220607,0.7562681446291895,0.5823999150653493,0.5146360192570543,0.7808066458593539,0.14218746617859623,0.8715909189023748,0.7037037439316013,0.7056403099210206,0.3910679367892737,0.7605021596655739,0.6837246461075822,0.4034455858841641,0.7370305978428289,LF
0.21371836645464865,0.3850110712385613,0.6937501866666665,0.5381604466023125,0.8288222512896717,0.35460996142003387,0.434240105191172,0.7963020546677688,0.7718177750679832,0.4367745380946123,0.7811207303654731,0.7582064561348858,0.590079947361488,0.5391423104784542,0.7841674153567268,0.14218746617859623,0.8636363764927671,0.7037037439316013,0.7057666380665387,0.390965214975539,0.7606169565700663,0.6940977573884966,0.3969378268229865,0.7475189713873827,LF
0.21516246542206613,0.36958109866581157,0.6885418666666667,0.5185910014795821,0.8185808467016157,0.3321513158455036,0.4340188285504553,0.7960790269837006,0.7719730988485175,0.428174404552293,0.7744043827616589,0.7624508391417781,0.5763200096468987,0.5425459775274885,0.7759523199908964,0.13828121589875011,0.8681818303615688,0.7003367394804682,0.7057980689926961,0.391168006450036,0.76060263949581,0.6912790874701132,0.41041742535238307,0.7419606921309765,LF
0.25198536252059534,0.39970611123821453,0.6583334399999999,0.4990215248886532,0.8193123766275152,0.3238770883932602,0.4341493927772663,0.7952421685809246,0.7712289356611811,0.4462841655475123,0.744160672819803,0.7224082655140638,0.5875199802867724,0.541865355649329,0.7755788161856544,0.1374999648193436,0.8613636458367757,0.7222222651047526,0.7057729846958588,0.3911090942742891,0.7606744851775331,0.6892042332246368,0.39991126317760634,0.7426017126094038,LF
0.21805036761678895,0.3982365470472113,0.69479168,0.49706457466595966,0.857411127130205,0.34278961879153264,0.4341542366440282,0.7954884072909364,0.7712312539265623,0.44367442897578113,0.7813224246209198,0.7511173413980933,0.5862399312134187,0.5527569786745914,0.7856609717278115,0.14062496401978325,0.8375000111647715,0.7070707458575659,0.7060839695325526,0.3909418121812551,0.760897831535933,0.7007100322320124,0.4009124460215697,0.7523838814180067,LF
0.2021658704554209,0.39382815542939115,0.68541696,0.5283757384932463,0.857411127130205,0.3569740160095633,0.43439290716993567,0.7959566645099755,0.7713263028071877,0.44828811786060063,0.7919870972558561,0.7540010124216346,0.587199902482438,0.5568415464309037,0.780059791198831,0.160937461381234,0.8329545647391506,0.7003367394804682,0.70644663406514,0.39076664730022,0.761047770349964,0.6980415753812962,0.40047433736742405,0.7501618280987941,LF
0.20938606955239614,0.41219695542895773,0.68437504,0.5185910014795821,0.8163862617154297,0.3569740160095633,0.4348193876207498,0.7960714581708929,0.771173297292034,0.45838206960346684,0.7907373512993696,0.7425831462083942,0.5830399396020262,0.5643295024071319,0.7811799967146349,0.1617187124606405,0.8397727425650808,0.7138047528742261,0.7068954314242167,0.3907138498104926,0.7612966271315846,0.7021994034975286,0.4045847907156629,0.7528389128373223,LF
0.18916957122888775,0.4063189996201344,0.6708334933333334,0.5577299290254331,0.8193123766275152,0.34751775893986,0.43546538330618567,0.7964829492938739,0.7710527474922168,0.4643763498064822,0.8037209153506274,0.7458453936978915,0.5788799767216143,0.5738598816760754,0.7852876208725306,0.1515624637799151,0.8397727425650808,0.7138047528742261,0.7073953040382996,0.3907458229879927,0.7616485668478514,0.7093014657373562,0.4085950504990623,0.75807479427949,LF
0.20288806780918567,0.4041145028560348,0.7020834133333334,0.5381604466023125,0.8258961363775861,0.3557919887147986,0.4357331170326649,0.7968298532142287,0.7711964799458452,0.44971776053577167,0.7979056741618639,0.7568284377988048,0.5820799683330067,0.5636488805289724,0.7893950920804652,0.1515624637799151,0.8420454680108456,0.690235725024375,0.7078441013973766,0.39071362879774496,0.7619101788410824,0.7080075454517774,0.4049747904615914,0.7577997116792068,LF
0.17039687613268464,0.3806023786655516,0.7218752,0.5636007796935139,0.8317483662017574,0.34160759149676795,0.43582008645861814,0.797738110751158,0.7719406431331822,0.43859393467708174,0.8232494698415539,0.7874585188358013,0.5798399479906337,0.5554800238454662,0.768483926335628,0.147656213500069,0.8556818340831592,0.6936027338862827,0.7078912477866129,0.3908111690903948,0.7618378125384772,0.6901200109614942,0.40803846924746845,0.7415212646651995,LF
0.20794226632509077,0.3923585912383879,0.7041668266666667,0.5812132804257423,0.8251646112431997,0.34751775893986,0.43598037441328663,0.797879899844423,0.7721400139559578,0.44001274517758737,0.7904775899551048,0.7615747050348506,0.5820799683330067,0.5582030690163411,0.7789395856830271,0.162499963540047,0.8556818340831592,0.649831684843101,0.7082394057378969,0.390851712651111,0.7617768998952772,0.6984281275419139,0.4054019599263381,0.7493692982650416,LF
0.19783386929328048,0.4004407428561214,0.7145834666666666,0.6007827698346747,0.8361375409656422,0.34633573164509524,0.4362857581950519,0.7984011387531162,0.772422842332453,0.44509712270871404,0.803939674219931,0.7661132960381432,0.5955199593152537,0.5547991231381882,0.7811799967146349,0.16562496274048663,0.8761363802143575,0.6767677116306171,0.7085561327630231,0.3907116642399876,0.7618518693022925,0.6970193725559567,0.39251891185883414,0.7510152636866806,LF
0.20505406839025583,0.43570907961944094,0.6979170133333332,0.6027397072393648,0.8346744811138429,0.353427926382952,0.43716051649710924,0.7988989143421055,0.7721655148751496,0.47108371411152367,0.8043719777709704,0.7393901241298151,0.5820799683330067,0.54731116716196,0.7752054653303734,0.16640621381989315,0.8579545572959697,0.6683502005027842,0.7087843091981093,0.3907616622349109,0.7617347296038309,0.6916827488411411,0.40523248482863816,0.743540466588412,LF
0.21516246542206613,0.3901543954294778,0.6833335466666667,0.6105675081301392,0.8346744811138429,0.35460996142003387,0.4374161405566836,0.7988618271593476,0.7721469687521008,0.4428007016796616,0.7791651730191865,0.7504856595234697,0.5868799557500955,0.5561606457236257,0.7729649013488045,0.16328120950226713,0.8590909226239654,0.6464646759811934,0.7089804502661503,0.39072669310683095,0.761594682586559,0.6926684133527238,0.4011599775287877,0.7453336628619864,LF
0.20866416793874346,0.3886848312384745,0.6770833066666667,0.6125244455348293,0.8390636558777278,0.34160759149676795,0.43774442261768726,0.7989317125309391,0.7720774207906678,0.44561624957003426,0.7831191862549276,0.7503796581130016,0.5846399354077223,0.5595643127726602,0.7759523199908964,0.1499999667382885,0.8681818303615688,0.6548821981359625,0.7091563425644551,0.3907839108515123,0.7615306462180667,0.6964127205529465,0.403217203839679,0.7481212336586337,LF
0.1920577691637227,0.4004407428561214,0.67916672,0.5929549689439003,0.8368690661000288,0.34988182127170653,0.4382594137247882,0.7993815523054792,0.772061192933,0.45731745077645236,0.8013285512913114,0.751415875982676,0.5830399396020262,0.5479917890401198,0.7845407662120076,0.16562496274048663,0.8670454650335732,0.6666667070987667,0.7094869717299975,0.3908397534057635,0.7615540741577591,0.6985670311315132,0.4038081553186103,0.7498590610648138,LF
0.21227426748723116,0.3894194628563814,0.7187502933333333,0.6105675081301392,0.8397951858036276,0.35106384856647127,0.4382809909494551,0.7995695111568716,0.7724205240670724,0.43239118620692196,0.7888765973633987,0.7684345105979773,0.5817600216006643,0.5541185012600288,0.7703509865119548,0.1484374645794755,0.8806818266399783,0.6599327004018878,0.7095202159788179,0.3910148446158827,0.761391900753,0.6907081038210087,0.4060665921390279,0.7424980218213739,LF
0.19927796826069805,0.3850110712385613,0.6708334933333334,0.6066536205027554,0.8346744811138429,0.34751775893986,0.4386132361741731,0.7997261855819918,0.7724066144747852,0.44783725413773745,0.7889040903523903,0.7522336011491416,0.5859199844810762,0.5234854978187198,0.7860344755330536,0.15078121270050862,0.8659091071487584,0.6430976891731585,0.7095498335823126,0.39098522890769144,0.7612091628233999,0.6902510849124314,0.40018182579540845,0.7434516247239107,LF
0.20288806780918567,0.39088902704738465,0.7041668266666667,0.6262230714576775,0.8456474108362854,0.35106384856647127,0.43882856806931836,0.8000776307900314,0.7726546688705644,0.4405700912212173,0.7944681025038173,0.7639002461828672,0.5868799557500955,0.552076356796432,0.779312936538308,0.1578124621807944,0.8465909226239654,0.6481481914390835,0.7097511123978985,0.390878602535414,0.7611435645922615,0.6957756199551391,0.4006528461183051,0.7481509315056909,LF
0.21010826690616094,0.37252022704781806,0.6885418666666667,0.6203522464256036,0.8376005960259284,0.36997638593282917,0.4388442005484137,0.8000377683759106,0.7729653164316331,0.43149722522605016,0.7796311317808879,0.7626909647858989,0.5855999066767418,0.5588836908945005,0.7696042848013929,0.15703121621857427,0.835227287951961,0.6296296757794003,0.7098680717096579,0.39076131843730333,0.7609131898519537,0.6913974020098973,0.40265841122506685,0.743886773686298,LF
0.19855577090693324,0.3982365470472113,0.6916667733333333,0.596868882207291,0.8434528258500995,0.34633573164509524,0.4391953808886558,0.8004366448108787,0.7730163182700179,0.45030964690993824,0.7977333689636151,0.7560842646314393,0.5811199970639874,0.5541185012600288,0.7707244903171969,0.15468746298035477,0.8443181971782008,0.6414141737152682,0.7099393957344002,0.39077401439180987,0.7607184776420663,0.6910705870924058,0.4066474748586845,0.7426769639337265,LF
0.19855577090693324,0.3769286186656382,0.6593753600000001,0.5851272065071363,0.8397951858036276,0.34160759149676795,0.43943405141456326,0.8005181356954421,0.7729398155124407,0.4463260635815952,0.7848716272946129,0.7508988486948844,0.5862399312134187,0.5479917890401198,0.793129212433119,0.15624996513916775,0.8590909226239654,0.6767677116306171,0.7103153579665157,0.3907257353849243,0.7609038186760767,0.7043241354411495,0.40032053001196016,0.7556599566310761,LF
0.22310456613269414,0.39970611123821453,0.7177083733333334,0.598825819611981,0.8478420006139845,0.3392435136802872,0.4394721418213731,0.8006059339240118,0.7730395009238286,0.436099264413588,0.7820879621592188,0.7596125972941518,0.5763200096468987,0.5493533116255572,0.7923823577725959,0.14687496753784887,0.8545454687551637,0.6784512160615709,0.710618182851226,0.39084849568778346,0.7610766648089178,0.7056348749505209,0.4096671381104421,0.7546300956975369,LF
0.21155236587357848,0.3886848312384745,0.6510417066666667,0.616438333162213,0.8434528258500995,0.33687945134844066,0.43991909861804473,0.8005070347699907,0.7726546688705644,0.45258481235096815,0.7752239582438379,0.7374734455650306,0.5830399396020262,0.5602452134799378,0.7748319615251315,0.1484374645794755,0.8761363802143575,0.68518522275845,0.7107408843514182,0.39097523422010116,0.7611141495124255,0.6960696663848964,0.40481500772095047,0.747454290483199,LF
0.20794226632509077,0.3842761386654648,0.7187502933333333,0.5909980315392102,0.8514996454519699,0.366430296306218,0.43980636862794825,0.8008145808637452,0.7731391863352163,0.4304064456753156,0.7911660997225223,0.7722008056107194,0.5894399228248111,0.5643295024071319,0.7860344755330536,0.1390624669781566,0.8636363764927671,0.6683502005027842,0.7109557630869762,0.3908965045679774,0.7612903796810001,0.7048597407229658,0.3982839352475268,0.7565800865365061,LF
0.21227426748723116,0.42836155961961436,0.68541696,0.5714285421302778,0.8463789407621851,0.32624116698397265,0.440462052046908,0.8011140535571717,0.772640759278278,0.46785225159013266,0.7930638269885164,0.7344686300723835,0.5920000209715187,0.5602452134799378,0.7864078263883344,0.12968746835340045,0.8636363764927671,0.6649832026678129,0.7110588202583198,0.390771779707361,0.7614257411103333,0.7032793136596746,0.39572004802892274,0.7557691843058454,LF
0.21732846600313627,0.40852319542904453,0.67916672,0.5812132804257423,0.8456474108362854,0.34751775893986,0.4408511026181981,0.8011635031341823,0.7723417030441146,0.45528120632002217,0.7815909552806389,0.7392127340143381,0.5904000251658225,0.5793056931887065,0.7752054653303734,0.13124997000049482,0.8500000126534076,0.6818182249234785,0.711154019698124,0.3906400315527621,0.7615952032074412,0.7024659011986597,0.39850608313031144,0.7544493918484947,LF
0.2014439688417682,0.3886848312384745,0.66875008,0.5772994056163621,0.8478420006139845,0.33806148638552247,0.4411197170477249,0.8013517142793348,0.7722211532442967,0.4501704636845213,0.7876403608928821,0.7488848218959974,0.5830399396020262,0.5500342123328349,0.7770725255067004,0.13828121589875011,0.831818199411155,0.6952862383172366,0.7111325620466126,0.390545634552524,0.7616212342515437,0.6939133259000096,0.40431822737140455,0.7456933088233814,LF
0.20288806780918567,0.396766982856208,0.6979170133333332,0.5733855179889783,0.8485735257483709,0.32978725661058395,0.44128815150558387,0.8016953383808063,0.7722652002865373,0.44622326011260155,0.7948617736651532,0.7582583751930739,0.5878399270191149,0.5670525475780066,0.7658701644487393,0.1304687158507765,0.8397727425650808,0.6936027338862827,0.7109911228789034,0.3904233408321322,0.7616108218339027,0.6913930522106405,0.4010440456462967,0.7442501947977425,LF
0.20433187103649103,0.4371786438104442,0.6583334399999999,0.565557717098204,0.8529626995539532,0.3191489722461159,0.44224591606988034,0.8021030450973835,0.7714538074031485,0.4839372134455493,0.796590039835208,0.7205153831842824,0.5859199844810762,0.5534378793818694,0.779312936538308,0.13203121749787086,0.8579545572959697,0.6885522316203576,0.7109708741091674,0.39040330234300774,0.7616706932353386,0.6964086607403068,0.4016021560318926,0.7484866681834381,LF
0.19350157239102805,0.3982365470472113,0.6187502933333333,0.5675146673208976,0.8536942290007016,0.31796692172439983,0.44295510219898343,0.8022960498239808,0.7707397816657663,0.473058848752389,0.7866145879932667,0.7244547417243183,0.5833600174063606,0.5629679798216944,0.7755788161856544,0.14609371645844238,0.8613636458367757,0.7104377506284802,0.7110975044751292,0.39046211629086686,0.7618125624256977,0.6975816566065476,0.4045665587333312,0.7488271867179147,LF
0.20433187103649103,0.3975019154293045,0.6739584,0.5440313018207845,0.8485735257483709,0.3286454119415951,0.4431671314577,0.8024951096008245,0.7705520021698966,0.45343544463317864,0.7887332072052963,0.7462715626338536,0.5875199802867724,0.5588836908945005,0.7819268513751579,0.14687496753784887,0.853409103427168,0.7037037439316013,0.7112694679076644,0.39038603879171546,0.7619953003552977,0.700111789840899,0.40013691630602627,0.7520380776734605,LF
0.19999986987435073,0.39970611123821453,0.7083336533333333,0.5694716047255877,0.8471104706880849,0.31442083209778854,0.44327655881136785,0.8029242612870237,0.7706586423774273,0.44584842599304986,0.8004788757263571,0.7627710066672722,0.5775999276482604,0.5527569786745914,0.7781927310225042,0.12968746835340045,0.8613636458367757,0.7154882550997926,0.7112250415024223,0.3905473044266177,0.7621046307405285,0.6964933368325052,0.40945795257896683,0.7467282032903201,LF
0.2108301685198137,0.43570907961944094,0.7145834666666666,0.5381604466023125,0.8544257589266013,0.32269505877580035,0.44370458049251554,0.8034545827710862,0.7704268158393164,0.46439413092338566,0.8029743384943916,0.745278610646003,0.5830399396020262,0.5575221683090631,0.7893950920804652,0.12187497393433185,0.853409103427168,0.7037037439316013,0.7113030143769287,0.3905498583517022,0.762361817456262,0.7055983366367643,0.40385904019316965,0.7559627236650566,LF
0.2007217714880034,0.4004407428561214,0.67500032,0.5616438038348134,0.8522311705863562,0.3309692862280438,0.44400313882566167,0.803743711420342,0.7702645372626385,0.45605008634060734,0.7929287321288165,0.7465938934534395,0.5827199928696837,0.5609258353580976,0.7748319615251315,0.12499997006445966,0.856818191967974,0.7104377506284802,0.7112144637868886,0.3905956816613912,0.7624651607013493,0.696367192654059,0.40514101909017936,0.7476370077456012,LF
0.20288806780918567,0.3806023786655516,0.7239586133333333,0.5694716047255877,0.8536942290007016,0.3404255642020032,0.44371162611689663,0.8040949043346212,0.7708162844233428,0.42801212631296687,0.7955901008649034,0.7779789641282572,0.5887998982881342,0.5663716468707286,0.7815535005198769,0.13828121589875011,0.8545454687551637,0.68518522275845,0.7113701073154574,0.3905057785870228,0.7626164010675852,0.7024589415198489,0.39921117858120825,0.7542865570430206,LF
0.207220068971326,0.3872152670474713,0.7072917333333333,0.5949119063485905,0.8544257589266013,0.34988182127170653,0.4436620865704674,0.8043310512942228,0.7711385233113175,0.4359860375312371,0.7902638082648429,0.7656546776908135,0.5859199844810762,0.5718177372124783,0.7710978411724777,0.14140621509918974,0.8613636458367757,0.6952862383172366,0.7114411291197557,0.3905241226450816,0.7626898086119545,0.6972629613143353,0.4027267988026645,0.7489731591865004,LF
0.17906117419707746,0.40191030704712466,0.71041664,0.6144813829395194,0.8690563301329697,0.353427926382952,0.44401502831680467,0.8052988501585728,0.7715488562837746,0.4529361426953026,0.8197995737401664,0.7697346503467758,0.5887998982881342,0.5656910249925693,0.7722181996382428,0.1390624669781566,0.8465909226239654,0.6784512160615709,0.7114450579855254,0.39040728057246626,0.7626903292328365,0.6954070469647825,0.3997220975389882,0.7480394387408918,LF
0.21444026806830133,0.4364437112373478,0.6927086933333334,0.5675146673208976,0.8507681155260701,0.35106384856647127,0.44463196080166867,0.8055854558702261,0.7711663424958911,0.47041211928227245,0.7950866947561271,0.7332982879690564,0.5833600174063606,0.5425459775274885,0.7778193801672233,0.13828121589875011,0.8715909189023748,0.6885522316203576,0.7113704095359012,0.39049767478627395,0.762633060935811,0.6916470804872354,0.40370829110570977,0.7438628644026505,LF
0.20938606955239614,0.396766982856208,0.6802086399999999,0.5499021281346588,0.8412582408639138,0.3569740160095633,0.44474248903414615,0.8055957999143967,0.7711199771882686,0.44964561416488746,0.7854390257053523,0.7478421141440491,0.5920000209715187,0.568414070163444,0.768483926335628,0.12187497393433185,0.8602272805087801,0.6734007137956457,0.7111917972536019,0.39038623524749116,0.7625924525070108,0.6932623059445806,0.3969984040546047,0.7467787903009852,LF
0.21010826690616094,0.34606897447532836,0.6781252266666665,0.5792563430210522,0.8339429559794564,0.34278961879153264,0.4442495155032358,0.8052140794551262,0.7714955361800085,0.4182002198727077,0.7700913016093471,0.7699271835208908,0.5904000251658225,0.5690946920416035,0.780433142054112,0.13593746777771698,0.84886364806973,0.6801347204925248,0.7113271920124344,0.3902447379750218,0.7627296361094315,0.7024519818410381,0.39785954174912225,0.7545805153935518,LF
0.18916957122888775,0.39162365866529153,0.60625024,0.5929549689439003,0.8449158809103856,0.35106384856647127,0.44498534289952973,0.8052678180260611,0.7708951054463006,0.4736006618663101,0.7858864978020422,0.7233752579728201,0.583679964138703,0.5452690226983632,0.7897685958857074,0.15078121270050862,0.8113636532799567,0.6616162048328416,0.7115499284795318,0.3900384839674775,0.762765558950293,0.7012418676878063,0.4028097013907121,0.7524150893250837,LF
0.19422376974479286,0.43570907961944094,0.7031253333333333,0.6575342365667645,0.8529626995539532,0.3652482457845019,0.44585966085006346,0.8059984607557686,0.7708533766694412,0.4727126279244061,0.8151155742449945,0.7456615137001413,0.5795200012582912,0.5507148342109945,0.7867811772436154,0.1617187124606405,0.8147727418207628,0.670033704933738,0.711885695392619,0.38993080164540556,0.7628066879999751,0.7016719178409916,0.4070661517484353,0.7518009982503437,LF
0.2007217714880034,0.3769286186656382,0.67916672,0.5380733797370694,0.8324798913361438,0.3711584132275939,0.44570619834401404,0.8059722222047018,0.7711176589228874,0.43982696316304404,0.7870878940192677,0.7593075728272953,0.5904000251658225,0.5364195441366977,0.7968633327857725,0.17421870926239902,0.835227287951961,0.6262626558905563,0.712306990691308,0.38969345851135195,0.762775711057493,0.7021967936179746,0.39584644859804285,0.7548004808031104,LF
0.19783386929328048,0.3688464670479047,0.6604168533333332,0.6144813829395194,0.820043906553415,0.3640662184897372,0.44577731511511015,0.8057595385648042,0.7712729827034218,0.4411535979885674,0.7834396217817946,0.7552795192295212,0.5904000251658225,0.5527569786745914,0.7938760670936419,0.17187496114136588,0.856818191967974,0.663299698236859,0.7128077699667225,0.38957713213514794,0.7629222658357905,0.7060875440598416,0.39655380246223504,0.7580287374488844,LF
0.22310456613269414,0.37913281447454833,0.68541696,0.5949119063485905,0.8171177916413295,0.3628841834526554,0.4456093210087748,0.8052534372817264,0.7713819411763343,0.4328571740981858,0.7695298284117527,0.7540529314798229,0.5747200138412023,0.5547991231381882,0.7908888014015111,0.14609371645844238,0.8386363772370852,0.6616162048328416,0.7130791639252754,0.3896881050914633,0.7630120729379444,0.7068075808301447,0.4114516610159284,0.7552205291652991,LF
0.20938606955239614,0.3923585912383879,0.7218752,0.5557729788027395,0.8361375409656422,0.38652486096734057,0.4453843013801057,0.8053821070994581,0.7719360066024199,0.4341942323370662,0.7929479298194055,0.7695010145849287,0.5926399144362037,0.5609258353580976,0.7837939115514847,0.162499963540047,0.8375000111647715,0.6885522316203576,0.7133886376597498,0.38945174423628837,0.7631656560981497,0.7015576631138473,0.3952863621008137,0.7543665902240727,LF
0.21155236587357848,0.3894194628563814,0.6802086399999999,0.5812132804257423,0.8514996454519699,0.34278961879153264,0.44543890496905864,0.8053858915058619,0.7718734134371298,0.4443151623262687,0.7814617856340837,0.7505483950521135,0.5926399144362037,0.5779441706032691,0.7946229217541648,0.1484374645794755,0.856818191967974,0.68518522275845,0.7138531504819056,0.3893092155709964,0.7635647120042421,0.7157356887979619,0.39524691044356175,0.766700257112886,LF
0.19855577090693324,0.38794989866537816,0.7031253333333333,0.5890410813165166,0.8566203448710898,0.3309692862280438,0.44543251987196336,0.8057600431523246,0.772100603444479,0.44029192915103754,0.7971595713226793,0.7661652150963314,0.5827199928696837,0.5731789809687974,0.7714713449777199,0.13593746777771698,0.8670454650335732,0.6885522316203576,0.713852546041018,0.3894428546124366,0.7636029776390728,0.6984855448921032,0.405782949544224,0.7493300367045256,LF
0.19999986987435073,0.3901543954294778,0.7333333333333334,0.5577299290254331,0.8602779873133184,0.31442083209778854,0.4451720519456272,0.8062790114171756,0.7725271642746031,0.43215206084166824,0.8029719684091337,0.7790454681152085,0.5817600216006643,0.5772635487251097,0.779312936538308,0.12656247150686656,0.8795454687551637,0.6548821981359625,0.713924172286204,0.3896466283658124,0.7636534778646318,0.7058549747929133,0.40636649060453023,0.7556033293803318,LF
0.20938606955239614,0.433504883810531,0.6958335999999998,0.5636007796935139,0.8588149308155784,0.3286052264356772,0.44572491328377617,0.806700594290567,0.7721261043636707,0.46897961527794446,0.799418736590502,0.7379320639123603,0.583679964138703,0.5690946920416035,0.780433142054112,0.11406247337463961,0.8761363802143575,0.6430976891731585,0.7138338083735009,0.38978449120643077,0.7636271865100881,0.7033483304745487,0.4041957555004126,0.7539279177883057,LF
0.20649816735767332,0.37839818285664145,0.7177083733333334,0.6203522464256036,0.8712509151191555,0.3191489722461159,0.4455146454311548,0.8070197458972934,0.7724807989669813,0.427419422416184,0.7904773529465788,0.7748573307546869,0.5779200054525949,0.5445881219910852,0.7696042848013929,0.11562497553345259,0.8818181845247931,0.6531986826780724,0.7134218819085704,0.39005530549327433,0.7633205408105599,0.6871859263694982,0.4093768379014447,0.7386488788307707,LF
0.17111907348644945,0.3806023786655516,0.6770833066666667,0.596868882207291,0.8632041051003121,0.3321513158455036,0.4457555177146813,0.8077471088081177,0.7727033524435675,0.4513846891503099,0.8130225519537502,0.7662755430949815,0.5811199970639874,0.5595643127726602,0.7789395856830271,0.1289062208560244,0.8590909226239654,0.6481481914390835,0.7133798732668789,0.39014287565530587,0.7632450507826624,0.699066678072807,0.40635366940405176,0.7497022664994191,LF
0.19133557180995792,0.37913281447454833,0.7020834133333334,0.6066536205027554,0.8573518715866756,0.3132387970607068,0.44571984924125224,0.8081530494683727,0.7729606799008708,0.4371501897367802,0.8005983280233548,0.7720061091425136,0.5823999150653493,0.6038122632392247,0.7860344755330536,0.13359371965668387,0.8750000074431808,0.6599327004018878,0.7138307861690627,0.3903093719252369,0.7635865780812882,0.7206512519447228,0.4063081717862073,0.7684821279363117,LF
0.21299616910088384,0.3850110712385613,0.7031253333333333,0.5753424553936685,0.8500365856001704,0.32624116698397265,0.44553446124972634,0.8081381641365176,0.7730742749045457,0.43413169185692296,0.7836951169725954,0.7628423953722809,0.5817600216006643,0.5711368365052006,0.7871546810488574,0.12968746835340045,0.8511363772370851,0.6666667070987667,0.713998820735828,0.3903416889003445,0.7637516149008986,0.7092324489224822,0.40567513383451287,0.7587019725410686,LF
0.21444026806830133,0.3820719428565548,0.6708334933333334,0.5694716047255877,0.8522311705863562,0.32033099954088057,0.4455058384006784,0.807950709872646,0.7728563579587212,0.4416394108032753,0.7749471322857162,0.7486901254277916,0.5865600090177531,0.5493533116255572,0.7886482374199422,0.13124997000049482,0.840909103427168,0.6565657025669164,0.7140190695055644,0.39021394353217614,0.7637565607992779,0.7015625928863384,0.40032436460953447,0.7532577028161612,LF
0.2108301685198137,0.38794989866537816,0.6916667733333333,0.6027397072393648,0.8441843557759993,0.34160759149676795,0.4455291770314406,0.8078984850642724,0.7729096780624866,0.4401253589179761,0.7840563179658981,0.756802478269711,0.5929599922405381,0.5643295024071319,0.7808066458593539,0.13124997000049482,0.8306818340831592,0.6868687271894037,0.7140187672851205,0.38993352746929383,0.7638726592559755,0.700615206608215,0.39526427199576925,0.7535516611666924,LF
0.21444026806830133,0.3872152670474713,0.68541696,0.5714285421302778,0.8361375409656422,0.34515368112337924,0.4454811787153448,0.8076858014243748,0.7728980867355814,0.4405003974181819,0.7793945972721503,0.7530578161978809,0.5920000209715187,0.5568415464309037,0.7748319615251315,0.1351562166983105,0.8556818340831592,0.6666667070987667,0.7139063412800183,0.3898005760230686,0.7637854552582319,0.6936039101795453,0.39625032817568195,0.7472401136370499,LF
0.20505406839025583,0.3828068754296512,0.7135419733333332,0.5459882443526761,0.8354060110397424,0.3238770883932602,0.44519583092791304,0.8076530032355413,0.7731739603159334,0.43192519831565823,0.79217148988892,0.7713289980919744,0.5843199886753799,0.5643295024071319,0.8117999671463483,0.13984371805756313,0.8420454680108456,0.6801347204925248,0.7145289153942934,0.3897074068714288,0.7642183515216577,0.7239512996475213,0.40158940540682964,0.7724362200982948,LF
0.2014439688417682,0.3445994102843251,0.7177083733333334,0.5479451856027673,0.8419897707898133,0.32505911801072,0.44439108851814224,0.8076083472399757,0.7738949408494586,0.4078285148209697,0.7849254282299671,0.7916769423135999,0.5811199970639874,0.5602452134799378,0.8047050772963219,0.12343746841736529,0.8704545610175602,0.68518522275845,0.7148093759661608,0.3898299707185122,0.7645840876912988,0.7178163427757809,0.4048426497586791,0.7663587318717294,LF
0.20505406839025583,0.38648063542956457,0.6572919466666667,0.5381604466023125,0.8514996454519699,0.32505911801072,0.4445110843083817,0.8075657095944919,0.7735680654307223,0.45114474626243994,0.7815203267399538,0.7434636069035041,0.5913599964348418,0.5588836908945005,0.7826737060356809,0.10703122389435385,0.8522727425650809,0.6666667070987667,0.7145736440199791,0.38968741749624825,0.7645994460073194,0.7001506480475926,0.3964842151025743,0.752881949547888,LF
0.2108301685198137,0.3982365470472113,0.7145834666666666,0.596868882207291,0.8653986900864978,0.32624116698397265,0.44453200100576284,0.8078518107186247,0.7736700691074913,0.4397738241929878,0.7918681189759099,0.762838068784099,0.583679964138703,0.5493533116255572,0.7677372246250661,0.1164062214956727,0.8261363802143575,0.6565657025669164,0.7141447932101946,0.389582878466588,0.7643024317941091,0.6867668957077631,0.4042393711071777,0.7394942607652178,LF
0.2166062686493715,0.39529741866520474,0.6822916266666668,0.5929549689439003,0.859546460741478,0.3345153944362161,0.4446674090993359,0.8078147235358668,0.7734660617539533,0.4459976238705159,0.7791400501154528,0.7471260637998692,0.5849600132120568,0.5507148342109945,0.7935027162383609,0.13359371965668387,0.8420454680108456,0.6481481914390835,0.7142662858286113,0.3895032156495296,0.7643505892256988,0.7057685587810124,0.40158742929519625,0.7566299185171613,LF
0.207220068971326,0.3798677470476447,0.7114585599999999,0.5851272065071363,0.8478420006139845,0.3191489722461159,0.4444459122828572,0.8078984850642724,0.7737141161497318,0.4300389692593102,0.7889811181232717,0.7709936875078416,0.593600016777215,0.5534378793818694,0.7871546810488574,0.13203121749787086,0.8443181971782008,0.6734007137956457,0.7142777702054766,0.3892757689751784,0.7644221745969808,0.701088464767351,0.39395201624551957,0.7542470438058344,LF
0.19638977032586302,0.394562787047298,0.7114585599999999,0.5772994056163621,0.8441843557759993,0.3321513158455036,0.4444811404047622,0.8082458935721478,0.7739436244224622,0.44267889080984,0.8027757253497803,0.7677920122528975,0.5884799515557918,0.5479917890401198,0.7834205606962038,0.14296871725800275,0.8397727425650808,0.6835017183274961,0.7142995300774319,0.38913152132184875,0.764432847325063,0.6970303920474071,0.39877728092685283,0.749662501585563,LF
0.21516246542206613,0.39529741866520474,0.68437504,0.5401174193206023,0.8397951858036276,0.35224588360355313,0.44448884655642906,0.8080854347406237,0.7738462572764556,0.44578241104178745,0.7808412973135678,0.7485689809586853,0.590079947361488,0.5575221683090631,0.7875280319041384,0.14374996833740925,0.8465909226239654,0.7020202417060346,0.7144588002513266,0.3889938549370061,0.7646270389140682,0.7033236816120937,0.3973685015333685,0.7554467864916071,LF
0.21299616910088384,0.3835415070475581,0.7114585599999999,0.5264187651981465,0.8339429559794564,0.3345153944362161,0.444135464458568,0.8079711456672266,0.7740780838145666,0.4306484323697262,0.7849967677962296,0.7674567016687648,0.5852799599443993,0.5582030690163411,0.7826737060356809,0.12265622091998925,0.8636363764927671,0.6750842071996632,0.7143768985110506,0.389041937488116,0.7646546318208168,0.7006987227539451,0.40217513430501567,0.7520874063007756,LF
0.20866416793874346,0.3930932228562948,0.6760418133333332,0.5283757384932463,0.8441843557759993,0.31796692172439983,0.4441843434777114,0.8079206869151752,0.7738114832957391,0.4487457261450477,0.7841508843676881,0.7478529306145054,0.5907199718981649,0.6051737858246621,0.7796864403435501,0.1304687158507765,0.8704545610175602,0.6835017183274961,0.7146721678846654,0.3890523250872577,0.7649914735315042,0.7154555617258264,0.3988311064437236,0.7656703961793467,LF
0.2108301685198137,0.39162365866529153,0.67500032,0.5440313018207845,0.8463789407621851,0.3286052264356772,0.44424489181223586,0.8078344024491667,0.77358429328839,0.44749798225199283,0.7816312467300232,0.7473445565030782,0.5852799599443993,0.568414070163444,0.780433142054112,0.12265622091998925,0.8625000111647714,0.6734007137956457,0.7146316703451931,0.38910391928535876,0.7650427546883862,0.7028771022217325,0.40266377495664313,0.7538705355075512,LF
0.2021658704554209,0.40264493866503154,0.6895833599999999,0.5577299290254331,0.8478420006139845,0.3215130283841087,0.44445097632538105,0.8080549071956324,0.7734289695078557,0.45271847729872544,0.7954227728456963,0.7518809842122794,0.5955199593152537,0.5561606457236257,0.7834205606962038,0.13671871885712347,0.8431818325945231,0.6481481914390835,0.7146362036518503,0.38884739715619954,0.7649847054600376,0.6991516441516225,0.3924419140805482,0.7528857246979376,LF
0.20577597000390851,0.38648063542956457,0.7291669333333333,0.5675146673208976,0.8580834013688299,0.32978725661058395,0.444173334689616,0.8083606872330653,0.7738485755418368,0.4292933886332882,0.7959102993832446,0.7768562144949357,0.587199902482438,0.5609258353580976,0.779312936538308,0.12734371920893006,0.8784091034271679,0.6481481914390835,0.7145567196751251,0.3889384052943064,0.764888390596858,0.6990165103880456,0.40065879797834375,0.7509682001493952,LF
0.21010826690616094,0.3901543954294778,0.69062528,0.5949119063485905,0.8668617451467839,0.34515368112337924,0.44424533216375967,0.8084981873324061,0.7738717581956475,0.442059821808683,0.7851024735987316,0.7555304613440976,0.5891199760924687,0.5479917890401198,0.7823002022304387,0.12343746841736529,0.8693181956895646,0.649831684843101,0.7143847562425899,0.3889330273174458,0.7647590163076682,0.6961349133737478,0.39824048431673115,0.7490031087102275,LF
0.20505406839025583,0.3842761386654648,0.68437504,0.6007827698346747,0.8632041051003121,0.3132387970607068,0.44431138489233185,0.8086316507315825,0.7737883006419279,0.4416641408624169,0.7865171774891672,0.7569668886206405,0.5878399270191149,0.5534378793818694,0.779312936538308,0.12187497393433185,0.8738636495583663,0.6767677116306171,0.7142058417398467,0.3889730306247788,0.764725956881658,0.6961520225841579,0.39979784848493405,0.7486703921525202,LF
0.2541516588417776,0.3828068754296512,0.68437504,0.5714285421302778,0.8697878648503828,0.31796692172439983,0.44398948792842347,0.8078868795513006,0.773401150323282,0.4266595351443776,0.7428606810558492,0.7420185264505968,0.5910399186305074,0.5371001660148571,0.7927558615778378,0.13359371965668387,0.8772727380991723,0.6414141737152682,0.7141973795674197,0.38894830175400874,0.7646421369196477,0.6994178518661365,0.3954992410790322,0.7524598877723392,LF
0.2021658704554209,0.3842761386654648,0.6864584533333334,0.5577299290254331,0.8668617451467839,0.3439716538286145,0.4439641677158041,0.8081215127483405,0.7734938809385269,0.44188037559441556,0.7894565572260048,0.7588705874208774,0.5878399270191149,0.5459496445765226,0.7864078263883344,0.13124997000049482,0.8761363802143575,0.68518522275845,0.714147513194189,0.3889845232876589,0.7646845675215349,0.6985197633129231,0.39913799187535814,0.7508773448715341,LF
0.2014439688417682,0.3975019154293045,0.6979170133333332,0.5694716047255877,0.8500365856001704,0.33806148638552247,0.44408504420909123,0.8083727973335578,0.7735541558384352,0.44712171746786267,0.7963373887467168,0.758396826014909,0.5855999066767418,0.5534378793818694,0.7871546810488574,0.13671871885712347,0.8852272730655991,0.6936027338862827,0.7142239749664762,0.38912236157130536,0.7648040500139657,0.7021257468967806,0.4014495719836303,0.7534932721792582,LF
0.21805036761678895,0.3710506628568148,0.6937501866666665,0.5440313018207845,0.8471104706880849,0.3274231966014325,0.44369775504389647,0.8081124301729712,0.7736700691074913,0.42666321399615076,0.7733546720009387,0.7632945238373374,0.5865600090177531,0.5575221683090631,0.779312936538308,0.1390624669781566,0.8647727343775817,0.6952862383172366,0.7142227660847007,0.38914551879586956,0.7648540296186426,0.6978374248028453,0.40114280417768816,0.7498336417211463,LF
0.20938606955239614,0.3894194628563814,0.7072917333333333,0.5596868664301232,0.8397951858036276,0.3593380783414099,0.4435757776717998,0.8081285769736278,0.7739389878916999,0.43675164746135725,0.7890109811975211,0.7639370221824173,0.5926399144362037,0.5554800238454662,0.7729649013488045,0.13828121589875011,0.8681818303615688,0.6936027338862827,0.7140928112938572,0.389077545097467,0.7648082149810221,0.6916520102597266,0.3957045684877947,0.7456615975629645,LF
0.25992775897133547,0.3850110712385613,0.6562500266666665,0.5401174193206023,0.8456474108362854,0.3404255642020032,0.4433767387830357,0.8069927504649458,0.7733084197080378,0.4353459173227116,0.7328006171702012,0.7261204781745257,0.5897600006291456,0.5643295024071319,0.780433142054112,0.13984371805756313,0.856818191967974,0.6969697361320285,0.7141689708457004,0.3890100134245599,0.7649269165421299,0.7007584599970712,0.398300708671272,0.7530103046495754,LF
0.19277967077737537,0.3828068754296512,0.6885418666666667,0.5401174193206023,0.8522311705863562,0.3652482457845019,0.4433476755824639,0.8073126589529531,0.7735912480845335,0.44307457175610604,0.79758168350711,0.7635519558341877,0.5955199593152537,0.5588836908945005,0.7852876208725306,0.13593746777771698,0.8590909226239654,0.7037037439316013,0.7142200461007063,0.3888277761355985,0.7651075719882017,0.7015167750008336,0.39242935165659315,0.7549446915350062,LF
0.21010826690616094,0.4298311238106176,0.6833335466666667,0.5401174193206023,0.8522311705863562,0.3286052264356772,0.44390141762366064,0.8075674756508139,0.7730742749045457,0.47006610283494366,0.7949440156236021,0.7335492300836328,0.6015999958056962,0.5650104031144099,0.7841674153567268,0.13359371965668387,0.8681818303615688,0.6919192294553289,0.7142702146943809,0.38858363072031027,0.7652793768792787,0.7022382617042224,0.3869620153703845,0.7567102033748834,LF
0.2267146656811818,0.3761939870477313,0.7031253333333333,0.5499021281346588,0.8463789407621851,0.3309692862280438,0.44348638631246556,0.8072215809055,0.7731994612351253,0.4244802242301032,0.7691084272528994,0.7625806367872489,0.5763200096468987,0.5636488805289724,0.7864078263883344,0.1304687158507765,0.856818191967974,0.7003367394804682,0.7143841518017022,0.3887818545980216,0.7654477977346223,0.7066535979364552,0.4105570235241975,0.7553025757597113,LF
0.207220068971326,0.4371786438104442,0.70625024,0.5733855179889783,0.8507681155260701,0.31087471924422594,0.44409693370023423,0.8076757096739646,0.77279144652805,0.46894384866348343,0.8047561685912746,0.7418822389228524,0.5942399102418999,0.5650104031144099,0.7819268513751579,0.12968746835340045,0.856818191967974,0.7070707458575659,0.7143820362585954,0.3886308292204294,0.7656219454196685,0.7015193848803877,0.3940185923874534,0.7546071931205692,LF
0.21155236587357848,0.3806023786655516,0.6937501866666665,0.5812132804257423,0.8390636558777278,0.3156028593925533,0.4439751765038995,0.8075404802184661,0.772821583978004,0.4346046286904249,0.7817502250099692,0.7609408598661352,0.5913599964348418,0.5432268782347665,0.7823002022304387,0.1351562166983105,0.8613636458367757,0.6969697361320285,0.7142726324579317,0.3885458129834823,0.7656149170377609,0.6940844180041091,0.3959801184349572,0.7477170409266534,LF
0.20360996942283835,0.3886848312384745,0.6968750933333333,0.565557717098204,0.8434528258500995,0.31796692172439983,0.4439571220914232,0.8076524986480208,0.7728656310202453,0.4411409263880154,0.7916576554050092,0.7612480476270829,0.5843199886753799,0.5432268782347665,0.7886482374199422,0.13124997000049482,0.8625000111647714,0.690235725024375,0.7142460370588752,0.38859799654891053,0.7656552651561199,0.6995961936356637,0.4022059522364408,0.7511217229180803,LF
0.2267146656811818,0.37325485866572483,0.6802086399999999,0.5714285421302778,0.8346744811138429,0.3215130283841087,0.4437078831289441,0.8070989661380145,0.7727543542819523,0.4297023543220684,0.7636799839782238,0.753241696195631,0.5929599922405381,0.5507148342109945,0.7781927310225042,0.11562497553345259,0.8522727425650809,0.7020202417060346,0.7139607409599065,0.3884481499059726,0.7656620332275865,0.6936595876100318,0.3949547987989005,0.7475705651047277,LF
0.21516246542206613,0.3835415070475581,0.67916672,0.5479451856027673,0.8427212959241999,0.3286454119415951,0.443622895284848,0.806890319198281,0.7726430775436586,0.4398465837058342,0.7764376789044045,0.751630042097703,0.5878399270191149,0.5507148342109945,0.780059791198831,0.13203121749787086,0.840909103427168,0.7407407807644358,0.7138658437405461,0.3883444458133592,0.765818219492202,0.6956860140904498,0.39966149678223156,0.7482956455909268,LF
0.2158843670357188,0.39088902704738465,0.7125000533333333,0.5440313018207845,0.8273591962293856,0.31442083209778854,0.4434062423351312,0.8067608924992686,0.7727311716281411,0.4341686847553084,0.7848166413166299,0.7636146913628321,0.5830399396020262,0.5602452134799378,0.790515297596269,0.12812496670630608,0.8386363772370852,0.7424242851953896,0.7139831052727494,0.38832217263978586,0.7661600071012689,0.7074165527260917,0.40388879949336254,0.7575367095590826,LF
0.20938606955239614,0.3798677470476447,0.71666688,0.5381604466023125,0.8339429559794564,0.3026004972116045,0.4430429523279843,0.806740708998448,0.772956043370109,0.4277993660520872,0.7881669938371859,0.7727697519566992,0.5920000209715187,0.5561606457236257,0.778566081877785,0.13124997000049482,0.8477272872076429,0.72390575850877,0.7138891147147205,0.3881780232143441,0.7662714199700279,0.6960728562376848,0.3960196171424862,0.749437502642605,LF
0.2021658704554209,0.3886848312384745,0.69479168,0.5342465635253201,0.8354060110397424,0.3286052264356772,0.44298724786022176,0.8068239659393331,0.7730348643930668,0.4421920560918618,0.7924767568701366,0.7607418368097469,0.5884799515557918,0.551395456089154,0.7688574301408699,0.1304687158507765,0.8306818340831592,0.7407407807644358,0.7136153029926169,0.3880313444207898,0.7662708993491459,0.6876849933375575,0.39972012142735486,0.7413231951259289,LF
0.19277967077737537,0.37325485866572483,0.6520836266666666,0.5401174193206023,0.828090721363772,0.3333333648187562,0.44306849271636567,0.8067233007289901,0.7729282241855354,0.44779944371673586,0.7872801079336826,0.7510978717512733,0.5948799347785768,0.5602452134799378,0.7722181996382428,0.1289062208560244,0.8272727455423532,0.7070934737959192,0.7134363884898739,0.3877414739237005,0.7662688168656175,0.6925843172337598,0.39379006919213727,0.7468867595924045,LF
0.20649816735767332,0.43570907961944094,0.6958335999999998,0.5499021281346588,0.8273591962293856,0.31678488668731797,0.4436766181707534,0.806976351370529,0.7724692076400753,0.4712842115331595,0.8026252249359042,0.737901777795084,0.587199902482438,0.5493533116255572,0.7815535005198769,0.13671871885712347,0.8238636495583663,0.7104377506284802,0.7134010286979466,0.38758593006326636,0.7663167139867664,0.6963506634168835,0.4001301645912789,0.7487685460538104,LF
0.2014439688417682,0.3901543954294778,0.7052083199999999,0.5283757384932463,0.8376005960259284,0.3191489722461159,0.44355089781070434,0.8071413514897379,0.7726106218283232,0.44021569516707204,0.7957327799974285,0.7651982226375744,0.5996799221956656,0.5650104031144099,0.7737117560093275,0.12343746841736529,0.8431818325945231,0.7222222651047526,0.7132254386200857,0.38729470893271895,0.7664263046824382,0.6948444729275745,0.3893261271129103,0.7497956385439799,LF
0.18844766961523507,0.3930932228562948,0.6968750933333333,0.5342465635253201,0.8251646112431997,0.32505911801072,0.44361959264841927,0.8074274526138707,0.7727566725473335,0.4484428340157264,0.80610616915417,0.764207433943815,0.6105599592103962,0.5554800238454662,0.7834205606962038,0.134374965618904,0.8340909226239654,0.7171717562226656,0.7131952165757032,0.3867344416173094,0.7666025348510126,0.6971086884340288,0.37827025302697953,0.7539651659354619,LF
0.2021658704554209,0.38648063542956457,0.6833335466666667,0.5303326797433374,0.8317483662017574,0.32505911801072,0.44358612593260943,0.8074039892941666,0.7727288533627599,0.44421726399297257,0.7894368855183643,0.7564065954510252,0.5961599838519306,0.572498359090638,0.7781927310225042,0.13671871885712347,0.8397727425650808,0.7070707458575659,0.7132743983319848,0.3865132815277816,0.7667566386320999,0.7013535125353966,0.39265740434913937,0.7547541722958349,LF
0.25270755987436017,0.38574570285646803,0.7052083199999999,0.5557729788027395,0.8258961363775861,0.3309692862280438,0.4431488568694618,0.8064604106308012,0.7726106218283232,0.42232830032347335,0.7490793107555062,0.7508404397544225,0.5881600048234493,0.567733169456166,0.7718446958330007,0.14218746617859623,0.856818191967974,0.6986532372549016,0.713296460424384,0.38654500913556195,0.7667446643518128,0.6959809304800583,0.400419829621537,0.7483819706887284,LF
0.20649816735767332,0.37031603123890794,0.6895833599999999,0.5283757384932463,0.8412582408639138,0.3392435136802872,0.44283334500264876,0.8063872454403264,0.7728401301010529,0.43085138235921094,0.782344168375597,0.765325856988954,0.5747200138412023,0.568414070163444,0.7972368365910146,0.13281246857727735,0.8363636532799567,0.6986532372549016,0.7136503605641006,0.386708583125829,0.767050529120018,0.7164174473348055,0.41155968845188595,0.7635515302948241,LF
0.19855577090693324,0.3850110712385613,0.6979170133333332,0.5479451856027673,0.8310168362758577,0.3640662184897372,0.44276883350440993,0.8065017868074836,0.7731693237851711,0.43997820484705075,0.7952002218399801,0.7650576085216481,0.5878399270191149,0.5405038330638916,0.7677372246250661,0.14140621509918974,0.8511363772370851,0.7087542484029137,0.7133771532828845,0.3866965256525936,0.7668368142479357,0.6829338526027023,0.40000802207222586,0.7371249765940696,LF
0.21227426748723116,0.3982365470472113,0.6822916266666668,0.5499021281346588,0.8397951858036276,0.34869979397694184,0.4429075442344114,0.8064384610736588,0.7730418191892097,0.4491336406264595,0.7837704856837964,0.7471758195639662,0.5916799431671843,0.5650104031144099,0.7852876208725306,0.14218746617859623,0.8715909189023748,0.6868687271894037,0.7135612055331726,0.38670529249158553,0.7669526523941924,0.7042835373147529,0.39624247077942554,0.7565284928191612,LF
0.20938606955239614,0.3886848312384745,0.7177083733333334,0.5479451856027673,0.8339429559794564,0.36170215615789064,0.44269177198774234,0.8064967409322783,0.7734359243039985,0.43310815354137516,0.79098218110651,0.769211133176711,0.5961599838519306,0.5486726897473975,0.7834205606962038,0.1390624669781566,0.8715909189023748,0.6683502005027842,0.7135412589838804,0.3866083661232348,0.7668880954048178,0.6962981758391852,0.39159754980977574,0.7505836381976729,LF
0.20433187103649103,0.3886848312384745,0.6875003733333332,0.5459882443526761,0.840526710938014,0.34160759149676795,0.44270608341226636,0.806551993265775,0.7734753348154774,0.4437449403014329,0.7890614640135143,0.7566294147424165,0.5926399144362037,0.5752214042615128,0.7841674153567268,0.134374965618904,0.8693181956895646,0.663299698236859,0.7137144312981909,0.38659741371373785,0.7669750390921205,0.7071642643691993,0.3957420440334132,0.7591421550368554,LF
0.20505406839025583,0.39162365866529153,0.69062528,0.5616438038348134,0.8397951858036276,0.37470451833883944,0.44277147561355273,0.8066279336876127,0.7736422499229177,0.4444751923784002,0.7899360254736765,0.7564996170969458,0.5916799431671843,0.5609258353580976,0.7864078263883344,0.12734371920893006,0.8840909226239654,0.670033704933738,0.7137479777674551,0.38665205297636274,0.7670265805594436,0.7035733600894318,0.396043354007225,0.7559544183349475,LF
0.19566786871221034,0.3960323512383013,0.7020834133333334,0.5557729788027395,0.8397951858036276,0.34988182127170653,0.44287121523369677,0.8069468330005789,0.7738462572764556,0.44664060540819833,0.8018305353489328,0.7629354170182016,0.5891199760924687,0.5738598816760754,0.791262152256792,0.1374999648193436,0.8761363802143575,0.6801347204925248,0.7140498959908342,0.38673318921173916,0.7672475841238746,0.7122341003962667,0.39861006424244816,0.762919318499846,LF
0.2007217714880034,0.3901543954294778,0.7270835199999999,0.5753424553936685,0.840526710938014,0.3321513158455036,0.44274263258874297,0.8072473148690462,0.774247317187388,0.43382655154040684,0.8010066937132896,0.77581783333117,0.5929599922405381,0.6072159302882593,0.7778193801672233,0.1390624669781566,0.8818181845247931,0.6919192294553289,0.7144080272167643,0.3868040115188897,0.7675550107547259,0.7145803821153653,0.3968745912507187,0.765341454771689,LF
0.19999986987435073,0.3835415070475581,0.7250001066666666,0.5596868664301232,0.8427212959241999,0.3439716538286145,0.442500439250645,0.8075281178242135,0.7747341529174211,0.43044875247070674,0.7992115911389623,0.7780654958919048,0.5846399354077223,0.5793056931887065,0.7920090069173149,0.14609371645844238,0.8863636458367757,0.68518522275845,0.7148259980905712,0.38700933236149937,0.7678246923716285,0.7154004642685741,0.40296654348904154,0.7646903672264628,LF
0.20649816735767332,0.3930932228562948,0.7000000000000001,0.5577299290254331,0.8456474108362854,0.3321513158455036,0.44251431032364513,0.8076451821289733,0.7747712451635188,0.4421710048844933,0.7910772215253514,0.7597445582337137,0.5948799347785768,0.5616067360653753,0.7882748865646614,0.1304687158507765,0.8715909189023748,0.6767677116306171,0.7148897666042179,0.38694324954993825,0.7679092932649619,0.7047718747779791,0.39295680878673334,0.7576622962174002,LF
0.19999986987435073,0.3717852944747216,0.7072917333333333,0.565557717098204,0.8397951858036276,0.34160759149676795,0.4422500994093565,0.807734998707625,0.7751769416052136,0.4283544639085225,0.7920311808416529,0.7750044347528869,0.5859199844810762,0.5554800238454662,0.7811799967146349,0.1351562166983105,0.8681818303615688,0.6582491959709339,0.7148622645438298,0.3870416738935789,0.7677762746295977,0.6985200532995403,0.4015655038661213,0.7503312064976876,LF
0.1971116719395157,0.37913281447454833,0.6927086933333334,0.5675146673208976,0.8478420006139845,0.3404255642020032,0.442203862499356,0.807924471321579,0.7753670393664643,0.4382317721580819,0.7936480530045867,0.7657585158071898,0.5913599964348418,0.5663716468707286,0.7823002022304387,0.14374996833740925,0.8625000111647714,0.6801347204925248,0.7149870815871288,0.3870045928659099,0.7678249526820696,0.7026668619243223,0.3967569655582563,0.7550103791458697,LF
0.2108301685198137,0.39162365866529153,0.6885418666666667,0.5753424553936685,0.8332114260535567,0.3333333648187562,0.4422950152647856,0.8077965583851282,0.7752673539550766,0.4434195663001645,0.7844570993830076,0.7536397423084076,0.5904000251658225,0.5793056931887065,0.7882748865646614,0.15078121270050862,0.8431818325945231,0.6784512160615709,0.715373621534778,0.38690108522907224,0.7680230489276902,0.7119560032304509,0.3977597481116371,0.7628657113691412,LF
0.21227426748723116,0.3872152670474713,0.7052083199999999,0.5185910014795821,0.8354060110397424,0.3640662184897372,0.44206559212087815,0.8077193564944891,0.7754945439624258,0.43511782851277714,0.7854003933156485,0.7630370918404873,0.5932799389728806,0.5588836908945005,0.7759523199908964,0.1453124653790359,0.8397727425650808,0.7053872439517805,0.7153409817268453,0.3867283023743179,0.7680186236501927,0.6950135351253539,0.39504972273271766,0.7487272710799345,LF
0.2021658704554209,0.3872152670474713,0.70104192,0.5381604466023125,0.8332114260535567,0.3439716538286145,0.4419786226949249,0.8077849528721562,0.7756684138660089,0.43937589505952684,0.793363405765114,0.7643480480597413,0.5887998982881342,0.5541185012600288,0.7737117560093275,0.13359371965668387,0.8500000126534076,0.6969697361320285,0.7151593472401078,0.38669421729722875,0.7679150200946645,0.6921986350329933,0.3992367033564726,0.7453575721456343,LF
0.207220068971326,0.3739897912388213,0.6697919999999999,0.5420743605706934,0.8295537812155713,0.34515368112337924,0.44189319449930486,0.8075094480859544,0.7756266850891489,0.4389082721230306,0.7787276552805795,0.7542497912421199,0.5833600174063606,0.5636488805289724,0.7722181996382428,0.1374999648193436,0.8590909226239654,0.7003367394804682,0.7150816765860453,0.3868208576016586,0.7678561899349927,0.6953867479015845,0.40479000049873287,0.7468658704287967,LF
0.19494567135844554,0.40484943542913115,0.6572919466666667,0.5518591039933592,0.8258961363775861,0.34278961879153264,0.4424306435341204,0.8074360306017193,0.7752673539550766,0.46573752496254217,0.7953957538737563,0.7383452530837755,0.5769599031115835,0.5541185012600288,0.7796864403435501,0.1351562166983105,0.8590909226239654,0.7188552562428449,0.7150810721451577,0.38709000201440846,0.7679090329545208,0.6981700394526793,0.41001770972425716,0.7480527776044005,LF
0.2021658704554209,0.3894194628563814,0.6864584533333334,0.5342465635253201,0.8361375409656422,0.33687945134844066,0.44245111987997776,0.8074781636596825,0.7752441713012653,0.4451570062403545,0.7909366754695583,0.7565125968614927,0.5878399270191149,0.5711368365052006,0.7707244903171969,0.15468746298035477,0.8818181845247931,0.7138047528742261,0.7151768760258495,0.3872378595426171,0.7679350639986235,0.6964750676756268,0.40090632948556165,0.748701851736267,LF
0.19855577090693324,0.3923585912383879,0.6822916266666668,0.5753424553936685,0.8529626995539532,0.3404255642020032,0.4426583052719325,0.8077183473194481,0.7751908511975,0.44932637158324085,0.7940362729698294,0.7544098750048674,0.5843199886753799,0.5813478376523036,0.7703509865119548,0.16406246058167362,0.8556818340831592,0.7087542484029137,0.7154147235151381,0.3873303165420699,0.7679975385044698,0.7005053016803275,0.40462791229451966,0.7513557822211573,LF
0.2014439688417682,0.38648063542956457,0.7072917333333333,0.5792563430210522,0.8741770348227544,0.34633573164509524,0.44261713240445577,0.8081379118427575,0.7754551334509469,0.4372399128439139,0.7950921459522203,0.7678612376638151,0.5878399270191149,0.5609258353580976,0.7837939115514847,0.14374996833740925,0.8693181956895646,0.7037037439316013,0.7155280561815716,0.3873896461863403,0.7680946342989723,0.7021811343406502,0.399799424669213,0.7539133205414472,LF
0.20938606955239614,0.3806023786655516,0.7156249600000001,0.5342465635253201,0.8397951858036276,0.34988182127170653,0.44227674067654726,0.8081356411989151,0.7758191011157809,0.42858480090565165,0.78816675682866,0.7719390470256867,0.5881600048234493,0.5956434065557188,0.7744586106698504,0.1304687158507765,0.8750000074431808,0.7104377506284802,0.7156525710044266,0.3875054323091611,0.7683177203469314,0.7083703187097916,0.40124264486545025,0.7589702598712624,LF
0.21949446658420643,0.39088902704738465,0.6989585066666666,0.5381604466023125,0.8193123766275152,0.34869979397694184,0.442139791352641,0.8077756180030268,0.7758283741773057,0.4372529932057739,0.7788132153583895,0.7560474886318893,0.5916799431671843,0.5575221683090631,0.7744586106698504,0.1304687158507765,0.8602272805087801,0.6885522316203576,0.7154673098723632,0.38745030190709695,0.7682164595853724,0.693625659175829,0.3965959124601366,0.7471832347096355,LF
0.20433187103649103,0.3894194628563814,0.6770833066666667,0.5753424553936685,0.8302853063499579,0.3593380783414099,0.44231659248945243,0.807684035368053,0.7757843271350644,0.44733059449631524,0.787090975130103,0.7514504886881348,0.5929599922405381,0.5459496445765226,0.7897685958857074,0.1484374645794755,0.8261363802143575,0.6548821981359625,0.7155806425387966,0.3871801015445525,0.768131338071157,0.7002860717977865,0.39416237803391946,0.7535035909227272,LF
0.19855577090693324,0.37839818285664145,0.7156249600000001,0.6046966446440549,0.8536942290007016,0.35815605104664516,0.44218911072330824,0.8079875447616436,0.7762642080689546,0.43045304446444194,0.7969668833912129,0.7764062493239704,0.5875199802867724,0.5466305452838006,0.7781927310225042,0.16484371166108014,0.806818199411155,0.6734007137956457,0.7156577087519714,0.386954373858239,0.767960053800962,0.6928629943728096,0.3999274014226121,0.7457806406278629,LF
0.19999986987435073,0.3872152670474713,0.7197917866666668,0.636007809753142,0.8412582408639138,0.3392435136802872,0.44223887044549925,0.8082345403529362,0.7766073113453592,0.43437102160283086,0.7992096950707559,0.773914134530933,0.5817600216006643,0.54731116716196,0.7778193801672233,0.16874996194092629,0.8159091071487584,0.6885522316203576,0.7158045878876693,0.3868786647136671,0.7678249526820696,0.6936253691892119,0.4053785524135381,0.7451967507535199,LF
0.20866416793874346,0.36443777447489495,0.6781252266666665,0.5929549689439003,0.8295537812155713,0.3439716538286145,0.442075500030164,0.807916650215011,0.7767023602259846,0.4299989106511139,0.7764846065925107,0.7620138537353597,0.6028799138070581,0.5629679798216944,0.7808066458593539,0.15937496433960738,0.8454545578169923,0.7003367394804682,0.7159581158731313,0.38654031875391637,0.7679173628886338,0.6988778967850635,0.38586604974343486,0.7540117261194075,LF
0.19566786871221034,0.3820719428565548,0.7281250133333333,0.5440313018207845,0.857411127130205,0.3404255642020032,0.4417987390974467,0.8083753202711602,0.777205423813686,0.4298936546142714,0.8032094509519744,0.7816154614955284,0.5750399605735449,0.5616067360653753,0.790515297596269,0.1515624637799151,0.84886364806973,0.72390575850877,0.716270914032488,0.3867589740323037,0.768153204148203,0.709024818504626,0.4114269596205113,0.7571551677273999,LF
0.18483757006674736,0.4011756754292178,0.6916667733333333,0.5146770882161915,0.8258961363775861,0.34278961879153264,0.44202089644121106,0.808735848054569,0.7772309247328778,0.4562317807420694,0.8104865607278058,0.7593162260036603,0.5894399228248111,0.5847515047013379,0.7520538885539284,0.1617187124606405,0.8238636495583663,0.7306397762325855,0.7162186298957066,0.3866332423358366,0.768072768221926,0.6875855279278861,0.40094761610361596,0.7409600256911544,LF
0.18772547226147027,0.4004407428561214,0.6895833599999999,0.5205479388842723,0.8441843557759993,0.35106384856647127,0.44224107220311826,0.8091700456159733,0.7772517891213078,0.45552012730462194,0.8073224969085201,0.7577110617880054,0.593600016777215,0.5554800238454662,0.790515297596269,0.16874996194092629,0.8397727425650808,0.7003367394804682,0.716552281265687,0.38644044554892976,0.768222707035957,0.7042728078099196,0.39383495515638095,0.7570406548425612,LF
0.2007217714880034,0.37839818285664145,0.7000000000000001,0.5518591039933592,0.8471104706880849,0.36170215615789064,0.44208034389692596,0.8092815594580073,0.7775531636208524,0.4345124530154425,0.7918273535094742,0.7683479788343304,0.5990398976589887,0.5806672157741439,0.7923823577725959,0.13828121589875011,0.8375000111647715,0.7020202417060346,0.716849061741521,0.3861468178351296,0.7685746467522238,0.7143553525004822,0.3894326254148658,0.7667337301099928,LF
0.19422376974479286,0.3923585912383879,0.69062528,0.5479451856027673,0.8500365856001704,0.32624116698397265,0.442206064256975,0.8095782569200709,0.7775067983132299,0.44811766439511197,0.7995573865780887,0.7597142721164368,0.5913599964348418,0.5731789809687974,0.7774458763619813,0.12265622091998925,0.8670454650335732,0.690235725024375,0.716739960161301,0.3861657758174875,0.7686160361123469,0.7016791675064196,0.39726080344934994,0.7540409206131246,LF
0.2007217714880034,0.38648063542956457,0.7229166933333333,0.5557729788027395,0.8580834013688299,0.3286454119415951,0.4420178139805443,0.8099196103777,0.7778128093435369,0.43273638513163454,0.7990205622671762,0.7755041556879492,0.5945599880462343,0.5656910249925693,0.7867811772436154,0.11796872365448571,0.8693181956895646,0.68518522275845,0.7166668228138959,0.3861163180759475,0.7687204205991982,0.7052529625757772,0.39347283269956607,0.7579700967847802,LF
0.19566786871221034,0.3806023786655516,0.6958335999999998,0.5733855179889783,0.8749085599571408,0.3215130283841087,0.4419990990407822,0.8103106657061001,0.7778985851626382,0.43865586201526274,0.7959768987789915,0.7670175529682557,0.5887998982881342,0.5616067360653753,0.7957431272699687,0.11874996961670584,0.8670454650335732,0.670033704933738,0.7167248491391098,0.38614929808929815,0.768859166064265,0.7109207510073411,0.3982412841714399,0.7618592563659097,LF
0.18555947168040005,0.3806023786655516,0.7239586133333333,0.5851272065071363,0.8683248049985834,0.3191489722461159,0.4419013410024955,0.8109643588389288,0.7783251459927624,0.43331396486001666,0.8106543627640646,0.7835451198248599,0.5897600006291456,0.5779441706032691,0.779312936538308,0.11718747257507922,0.8772727380991723,0.6986532372549016,0.7166405296352834,0.3862505955986588,0.7689773470044906,0.7050322827601507,0.3988300007622144,0.7566090293535533,LF
0.20288806780918567,0.433504883810531,0.6979170133333332,0.5577299290254331,0.8580834013688299,0.33687945134844066,0.44253214456035966,0.8114189921949141,0.7779148130203059,0.47024841037836795,0.8056397363754169,0.7411856582254932,0.5833600174063606,0.5731789809687974,0.7841674153567268,0.12812496670630608,0.8613636458367757,0.6936027338862827,0.7167070181329243,0.386389391604212,0.7690957882551575,0.7076221532376281,0.4044205617238468,0.757592833456487,LF
0.207220068971326,0.3960323512383013,0.7333333333333334,0.5753424553936685,0.8493050556742706,0.32505911801072,0.4424015803335487,0.8116465611666669,0.7781628674160844,0.4337192516970237,0.7983929636908865,0.77400066629458,0.5907199718981649,0.568414070163444,0.8065721374726488,0.12031247177551885,0.8670454650335732,0.6801347204925248,0.7169862698230167,0.38637144045770466,0.7694500707653934,0.7209560278793133,0.39606259757051193,0.7710603037435394,LF
0.2021658704554209,0.3975019154293045,0.6708334933333334,0.5459882443526761,0.8507681155260701,0.32505911801072,0.4426638096659802,0.8116970199187186,0.7777965814858693,0.45498281056509005,0.7899530900875331,0.7455446958192175,0.5904000251658225,0.5731789809687974,0.7699776356566739,0.1304687158507765,0.8613636458367757,0.68518522275845,0.7168309285148916,0.3863861746408844,0.769354536833537,0.6963483435239464,0.3985941377236888,0.749110071294967,LF
0.2108301685198137,0.3960323512383013,0.7093751466666666,0.5694716047255877,0.840526710938014,0.32269505877580035,0.44265610351431334,0.8116707813676517,0.7777664440359144,0.43993712433558413,0.7901159149447503,0.7613908250371005,0.5920000209715187,0.5493533116255572,0.7935027162383609,0.1351562166983105,0.8681818303615688,0.7003367394804682,0.716886537076555,0.38635798323706716,0.7694737590155267,0.7043548740225638,0.3949667025189777,0.756868004646958,LF
0.19855577090693324,0.39382815542939115,0.7000000000000001,0.5577299290254331,0.8397951858036276,0.32978725661058395,0.4427276606369332,0.8118118135796358,0.7777803536282015,0.4449902316266391,0.7982227915693697,0.7620116904412685,0.5929599922405381,0.5582030690163411,0.7766990217014582,0.13281246857727735,0.84886364806973,0.6936027338862827,0.7167327068706492,0.38624335129192877,0.7694039958173319,0.695346729748422,0.39528735015663036,0.7489656088864013,LF
0.19422376974479286,0.3475385386663316,0.7239586133333333,0.5322896209934286,0.8390636558777278,0.32624116698397265,0.4419786226949249,0.8118385567182234,0.7784990158963455,0.4099514166747227,0.7932555668858798,0.7955167893254413,0.5891199760924687,0.5663716468707286,0.7789395856830271,0.1257812175618357,0.8681818303615688,0.6986532372549016,0.7166290452584181,0.38630344220233015,0.7694287253092292,0.7005183510780977,0.3990588768346079,0.7526327896446123,LF
0.19638977032586302,0.3960323512383013,0.7197917866666668,0.5381604466023125,0.8419897707898133,0.3345153944362161,0.4419310647303529,0.8121377771178894,0.7787146145767888,0.44112478031634456,0.8050050275433533,0.7710802192714892,0.5977599796576268,0.5459496445765226,0.7789395856830271,0.1304687158507765,0.8465909226239654,0.7020202417060346,0.7163869666829159,0.38607363805867023,0.7693480290725113,0.6918349918151278,0.3902462893799055,0.7469869269070548,LF
0.19783386929328048,0.40191030704712466,0.6760418133333332,0.5283757384932463,0.8471104706880849,0.32033099954088057,0.44221288970559425,0.8122805753861955,0.7783552834427171,0.4575177438174341,0.7960790494536065,0.7473640261498988,0.5939199635095574,0.5575221683090631,0.7871546810488574,0.12421872256708362,0.8465909226239654,0.6936027338862827,0.7163192693034998,0.38592231799741433,0.7694170113393832,0.7025636266886284,0.3937859052426241,0.7555650745264956,LF
0.20649816735767332,0.38574570285646803,0.7072917333333333,0.5362035047754113,0.8324798913361438,0.3333333648187562,0.4420294832959255,0.8121874789886603,0.7784711967117726,0.435262734396508,0.7904652655117637,0.7665632612091086,0.5955199593152537,0.5425459775274885,0.7740852598145697,0.12656247150686656,0.8636363764927671,0.7037037439316013,0.7159550936686933,0.38582986099796146,0.7692514538988908,0.6873204801598407,0.39250070340164095,0.7425848502725154,LF
0.20649816735767332,0.3960323512383013,0.6979170133333332,0.5772994056163621,0.8522311705863562,0.3085106646546965,0.4421629098076412,0.8122684652857032,0.7782741441543782,0.4446877482586257,0.791491512428431,0.7574082006152408,0.5923199677038612,0.552076356796432,0.7718446958330007,0.11562497553345259,0.8511363772370851,0.6868687271894037,0.7155449805264257,0.38575265387809965,0.769051795790624,0.6896139843146238,0.39595377027984563,0.743834928292283,LF
0.25054126355317785,0.3761939870477313,0.68541696,0.5753424553936685,0.8529626995539532,0.3156028593925533,0.4418119496431611,0.8113579371049316,0.7778939486318759,0.42314541417841744,0.7444896406535985,0.7468275292152865,0.593600016777215,0.5568415464309037,0.7916356560620341,0.13203121749787086,0.8784091034271679,0.690235725024375,0.7156217445191567,0.3857520153968285,0.769173360766583,0.7055861571988454,0.3938181346823588,0.758185783690949,LF
0.20288806780918567,0.3886848312384745,0.7000000000000001,0.5596868664301232,0.8471104706880849,0.3286052264356772,0.4418066654248754,0.8114495197399053,0.7779217678164488,0.4404141487821672,0.7929441376829929,0.7629505600768404,0.5833600174063606,0.5588836908945005,0.7968633327857725,0.12734371920893006,0.8681818303615688,0.68518522275845,0.7157810146930512,0.3859077311560664,0.7693329310669319,0.7114206879352519,0.4031689302554924,0.7611837561836958,LF
0.21010826690616094,0.38648063542956457,0.6927086933333334,0.5440313018207845,0.8434528258500995,0.3037825245063692,0.4417333468961602,0.8113306893788237,0.7777363065859603,0.4390832219629086,0.7844817482696897,0.7582042928407945,0.5839999108710454,0.5643295024071319,0.7841674153567268,0.13203121749787086,0.8522727425650809,0.7154882550997926,0.7158278588618439,0.38599021802490097,0.7694636069083268,0.7042307597504375,0.4035055514621814,0.7548550946404949,LF
0.19061367019630523,0.39529741866520474,0.7156249600000001,0.5342465635253201,0.8485735257483709,0.3345153944362161,0.44173532847801733,0.8117742218093573,0.7779727696548336,0.44364745072944484,0.8089227784746488,0.7713376512683394,0.5897600006291456,0.5745405035542348,0.7890217412251843,0.12499997006445966,0.8477272872076429,0.6986532372549016,0.7159493514802605,0.3859373714212296,0.7696762805386449,0.7107911269894894,0.39815899323699316,0.761764625937999,LF
0.18989147284254043,0.3930932228562948,0.6916667733333333,0.5401174193206023,0.8434528258500995,0.32033099954088057,0.44187954360206666,0.8120519972394017,0.77792408608183,0.44955384725121306,0.8037415350923712,0.7612956400970886,0.5939199635095574,0.5616067360653753,0.7778193801672233,0.1304687158507765,0.8625000111647714,0.6969697361320285,0.7158369254751583,0.38588506507094156,0.7696507701154242,0.6973044294005831,0.39443381108184583,0.7508529322345466,LF
0.19133557180995792,0.3930932228562948,0.68437504,0.5244618265116561,0.8390636558777278,0.32269505877580035,0.4420180341563063,0.8122374331531912,0.7778058545473934,0.45128127253935396,0.8009358281640787,0.7574211803797877,0.5990398976589887,0.5534378793818694,0.7845407662120076,0.1164062214956727,0.8590909226239654,0.6818182249234785,0.7156277889280331,0.38569794094455895,0.7696210947251473,0.6985191833396889,0.38898665936446364,0.7530608916602406,LF
0.19927796826069805,0.37545905447463496,0.6739584,0.5538160413980494,0.8529626995539532,0.3132387970607068,0.4420010806226394,0.8122291074591029,0.7776667586245266,0.44087073516334413,0.7868395090842406,0.7580333926075913,0.5897600006291456,0.5697753139197632,0.7849141170672885,0.11718747257507922,0.8670454650335732,0.6565657025669164,0.7155924291361059,0.3857390984295743,0.7696104219970653,0.7060394062814,0.3982314036132731,0.7576174977701448,LF
0.2158843670357188,0.3842761386654648,0.6625002666666665,0.5675146673208976,0.8646671601605981,0.3333333648187562,0.44211381061273597,0.8120060797750346,0.7773004726943115,0.4451402470267214,0.7726007478804032,0.7433640953753097,0.5795200012582912,0.5486726897473975,0.7677372246250661,0.11328122229523309,0.8852272730655991,0.6767677116306171,0.715123080786849,0.3860814226187835,0.7692707168715267,0.6871012502772996,0.4081346635387642,0.7388716126836987,LF
0.2021658704554209,0.37325485866572483,0.6916667733333333,0.6046966446440549,0.8712509151191555,0.32505911801072,0.442063830714783,0.8121526624497445,0.7773955215749369,0.433344213196818,0.7873630609177089,0.7663274621531696,0.5881600048234493,0.5459496445765226,0.7811799967146349,0.10781246985657396,0.8852272730655991,0.6717172093646918,0.7147743183946774,0.3862289854633286,0.7690994326013318,0.6946948398331416,0.3991341337526454,0.7475516893544795,LF
0.20505406839025583,0.3850110712385613,0.6989585066666666,0.5851272065071363,0.8697878648503828,0.3191489722461159,0.4420523815751638,0.8123300249632059,0.777404794636461,0.43774330239487125,0.7897686974544692,0.7634437911296288,0.5907199718981649,0.552076356796432,0.7860344755330536,0.12499997006445966,0.8750000074431808,0.6868687271894037,0.7146960432997274,0.3862628986416139,0.7690983913595676,0.700141658462462,0.3966690050654328,0.7528336276272527,LF
0.19638977032586302,0.3930932228562948,0.69479168,0.5401174193206023,0.8580834013688299,0.3132387970607068,0.44212856238878373,0.8126113325058938,0.7773236553481226,0.44671295615973666,0.7987814206646549,0.7606163657524587,0.5855999066767418,0.5507148342109945,0.7815535005198769,0.13124997000049482,0.8715909189023748,0.7070707458575659,0.7146083993710186,0.3863938118591659,0.7690843345957521,0.6970678003210152,0.40167828338005424,0.7490428736240835,LF
0.2014439688417682,0.3960323512383013,0.7041668266666667,0.5303326797433374,0.8478420006139845,0.31796692172439983,0.4421268009826884,0.8127748188625411,0.777295836163549,0.44430146882244653,0.797239917212922,0.7620116904412685,0.5939199635095574,0.5541185012600288,0.7837939115514847,0.13281246857727735,0.8625000111647714,0.7154882550997926,0.7145739462404229,0.3863147384094346,0.7691678942473215,0.6988668772936129,0.39385800979210367,0.7523353078207013,LF
0.207220068971326,0.3769286186656382,0.7041668266666667,0.5479451856027673,0.8361375409656422,0.32505911801072,0.4418696356927808,0.8126183967311811,0.777446523413321,0.430391730268223,0.7866141139762151,0.768901782121672,0.5923199677038612,0.5534378793818694,0.7766990217014582,0.12499997006445966,0.8693181956895646,0.7070707458575659,0.7143636008115222,0.38630943410348995,0.7691184352635266,0.6936621974895858,0.3957305402406904,0.747404458502544,LF
0.20288806780918567,0.394562787047298,0.6145834666666666,0.5283757384932463,0.8354060110397424,0.3321513158455036,0.4424088461336916,0.8122490386661632,0.7766026748145969,0.4694006394253144,0.7767434199026725,0.7211665347057272,0.5868799557500955,0.5575221683090631,0.778566081877785,0.12968746835340045,0.8522727425650809,0.7121212517513531,0.7142729346783754,0.3863291533519788,0.7691285873707266,0.697252231809502,0.4008848275089796,0.7493828888052203,LF
0.20505406839025583,0.3835415070475581,0.6895833599999999,0.5068493129614241,0.8354060110397424,0.3392435136802872,0.4422360081605945,0.8121027082852135,0.7766374487953134,0.4396323927803761,0.7873896058725973,0.7597315784691662,0.593600016777215,0.603131362531947,0.780433142054112,0.14140621509918974,0.84886364806973,0.7272727673706777,0.714660985728244,0.38623067989439425,0.7695346716587269,0.7148515196023703,0.39597788354680047,0.7657730802606968,LF
0.207220068971326,0.39088902704738465,0.6739584,0.5127201379934979,0.8258961363775861,0.3404255642020032,0.442279602961452,0.8118483961748735,0.7764264866456325,0.44837354897399895,0.7843473644355672,0.7483829376668438,0.5939199635095574,0.5690946920416035,0.7845407662120076,0.14374996833740925,0.856818191967974,0.7188552562428449,0.7148377846878802,0.3861330413738565,0.7697262601433218,0.7049806651423036,0.3943107981326686,0.757553571895971,LF
0.2021658704554209,0.3872152670474713,0.6833335466666667,0.5283757384932463,0.8317483662017574,0.34751775893986,0.4422778415553568,0.8117409190330035,0.7764172135841078,0.44468509131012296,0.789647586097791,0.7560712848668923,0.5814399437963298,0.5602452134799378,0.7897685958857074,0.12734371920893006,0.8806818266399783,0.7356902784985105,0.7149227086325946,0.38638899869266047,0.769961320471568,0.7070958275275596,0.4054315545505617,0.7569007226140548,LF
0.20288806780918567,0.3886848312384745,0.6656251733333333,0.5244618265116561,0.8397951858036276,0.3309692862280438,0.4423956355879772,0.8116147721528744,0.7761436582691368,0.4506863204553765,0.7857397895245788,0.7469746332134867,0.5868799557500955,0.5554800238454662,0.7763256708461774,0.11406247337463961,0.8545454687551637,0.7222222651047526,0.7146352969905191,0.3864193756669827,0.7699464827764295,0.6948653519640069,0.40094272287480953,0.7472934690910848,LF
0.21371836645464865,0.4041145028560348,0.76354176,0.5205479388842723,0.8419897707898133,0.31796692172439983,0.4420074657197347,0.8118534420500784,0.7765864469569292,0.42762829944463643,0.8015788322945447,0.7828095998338587,0.5897600006291456,0.5636488805289724,0.7714713449777199,0.13124997000049482,0.8545454687551637,0.7087542484029137,0.7144820712255008,0.38640110527983984,0.7698785417513219,0.6939724831699017,0.39878654983141887,0.7470010208005734,LF
0.20938606955239614,0.39088902704738465,0.6885418666666667,0.5342465635253201,0.8361375409656422,0.33687945134844066,0.4419977779862108,0.8116919740435132,0.7764960346070655,0.44336887989795687,0.7855084692034086,0.7544509775925994,0.5897600006291456,0.5779441706032691,0.7987303929620994,0.14218746617859623,0.831818199411155,0.7138047528742261,0.7149520240156452,0.38625371433409855,0.770285927591527,0.7190473359654452,0.3977202258789697,0.7690385850536273,LF
0.18267127374556508,0.3923585912383879,0.6895833599999999,0.5459882443526761,0.8237015513914003,0.335697424053676,0.4422001195114035,0.8119437632162508,0.776584128691548,0.4518234944145833,0.8092991480136019,0.7630392551345785,0.603519938343735,0.567733169456166,0.7834205606962038,0.14453121941681576,0.8431818325945231,0.6986532372549016,0.7150871165540341,0.3859045878636547,0.7703890105261735,0.702481270489367,0.38527474538742607,0.7572631370188194,LF
0.19350157239102805,0.3960323512383013,0.7093751466666666,0.5753424553936685,0.8361375409656422,0.3286052264356772,0.4423278214533097,0.8122013551454743,0.7767255428797959,0.4451130643997309,0.805282090510001,0.7670911049673558,0.5916799431671843,0.5650104031144099,0.7938760670936419,0.1515624637799151,0.8465909226239654,0.6936027338862827,0.7154479677639585,0.38579791237743344,0.7705709675244503,0.7104808413091735,0.3957624638536247,0.7620210844647037,LF
0.19350157239102805,0.39088902704738465,0.7197917866666668,0.5538160413980494,0.8361375409656422,0.34869979397694184,0.4422604476701661,0.8124685342375879,0.7771103749330599,0.43869612500411315,0.8059793695928728,0.7743619364078065,0.5878399270191149,0.552076356796432,0.7879015357093804,0.14609371645844238,0.84886364806973,0.7171717562226656,0.7155742959094765,0.38577745641978556,0.770659993695281,0.7018641789681406,0.39926220460659856,0.7537580360360723,LF
0.2021658704554209,0.3901543954294778,0.68541696,0.5538160413980494,0.8368690661000288,0.32033099954088057,0.4423504995567861,0.8124158048416937,0.7769596876832879,0.4459375359582213,0.7909293282052589,0.7556905451068452,0.5887998982881342,0.5575221683090631,0.7710978411724777,0.12734371920893006,0.8545454687551637,0.6952862383172366,0.7153201285162214,0.3857900050324603,0.7704848047684708,0.6915513849035867,0.39950307849962313,0.7447349240641151,LF
0.20288806780918567,0.3747244228567281,0.6864584533333334,0.5283757384932463,0.8332114260535567,0.32978725661058395,0.4421521211953078,0.8122326395717464,0.7770130077870533,0.4356234662509292,0.7860896141086435,0.7630046424291198,0.5904000251658225,0.5772635487251097,0.7849141170672885,0.13593746777771698,0.8431818325945231,0.7053872439517805,0.7155044829869533,0.3857133381659817,0.7706649395936607,0.7087589007767292,0.3978821494072136,0.7600592648222458,LF
0.20649816735767332,0.3798677470476447,0.6989585066666666,0.5420743605706934,0.8361375409656422,0.3274231966014325,0.44195836652482945,0.8120956440599264,0.777103420136917,0.43404707826614086,0.787018924538263,0.7653388367535015,0.5881600048234493,0.5718177372124783,0.7841674153567268,0.1351562166983105,0.8545454687551637,0.7087542484029137,0.7156308111324713,0.38573443260490076,0.7708031644378454,0.7064714863409055,0.39985110939848095,0.7576323466936732,LF
0.21444026806830133,0.38574570285646803,0.6666666666666667,0.5440313018207845,0.8376005960259284,0.3345153944362161,0.4420224376715444,0.8116374785912976,0.7768020456373724,0.44522751756600626,0.7751175414157586,0.745060117942794,0.607999965921282,0.5731789809687974,0.7845407662120076,0.13359371965668387,0.8500000126534076,0.7003367394804682,0.7157365882878093,0.38535507650196643,0.7709478970430556,0.7048084130917359,0.3811526941459104,0.7601020498561416,LF
0.19638977032586302,0.3872152670474713,0.7562500266666666,0.5459882443526761,0.8346744811138429,0.31442083209778854,0.44163382745177815,0.8119932127932615,0.777425659024891,0.4244191144145384,0.8101410022972052,0.7926179752432624,0.5887998982881342,0.5690946920416035,0.7823002022304387,0.1304687158507765,0.8579545572959697,0.6885522316203576,0.7157662058913039,0.38538756537587776,0.7709689821887787,0.7040167496270047,0.39926178115410565,0.7556300071073491,LF
0.2108301685198137,0.3886848312384745,0.6916667733333333,0.5499021281346588,0.840526710938014,0.34515368112337924,0.44161136952406366,0.8118365383681412,0.7773955215749369,0.440594821280359,0.7842670185453248,0.7564628410973958,0.593600016777215,0.5554800238454662,0.767363720819824,0.13671871885712347,0.8602272805087801,0.6952862383172366,0.7155038785460658,0.38534370662394607,0.7707331409292094,0.6874225554490659,0.3951076180985478,0.7421129565163117,LF
0.20938606955239614,0.3930932228562948,0.6781252266666665,0.5596868664301232,0.8368690661000288,0.3439716538286145,0.44177165747873215,0.8116478226354681,0.7771938324867801,0.44791410126366515,0.7839577224191698,0.7485819607232321,0.5942399102418999,0.5582030690163411,0.7897685958857074,0.1351562166983105,0.8761363802143575,0.6952862383172366,0.7155924291361059,0.38534147193949714,0.770820344926953,0.7046651597028797,0.3933648993641626,0.7574820957216979,LF
0.1971116719395157,0.3850110712385613,0.68541696,0.5499021281346588,0.8463789407621851,0.3392435136802872,0.4418207566736374,0.8117525245459752,0.7772077420790665,0.44413326354415267,0.7938250983733512,0.7596904758814343,0.5907199718981649,0.5595643127726602,0.7920090069173149,0.13281246857727735,0.8761363802143575,0.7053872439517805,0.7157087840069776,0.3853965532276174,0.7709726265349531,0.7072315412643707,0.3965855613992,0.7590163167018679,LF
0.19783386929328048,0.3872152670474713,0.6979170133333332,0.5479451856027673,0.8383321259518282,0.33687945134844066,0.4418110689401135,0.8118430980059079,0.7773143822865979,0.44159649086592206,0.7964710615552618,0.7642874758251882,0.5939199635095574,0.5602452134799378,0.7893950920804652,0.13593746777771698,0.8647727343775817,0.7070707458575659,0.7158112367374334,0.38534626054903054,0.771103302376348,0.7051946752657366,0.39375235839513384,0.757859610726661,LF
0.207220068971326,0.394562787047298,0.7072917333333333,0.5772994056163621,0.8478420006139845,0.3333333648187562,0.4418564251470664,0.8119195430152663,0.7773584293288391,0.44069701160739055,0.7924158456790088,0.7622669591440274,0.5920000209715187,0.5711368365052006,0.791262152256792,0.14062496401978325,0.8613636458367757,0.6868687271894037,0.7160699374373458,0.385323422565102,0.7712540221217019,0.7108462244467417,0.3958113726165506,0.7623281300020737,LF
