xa_S1,ya_S1,za_S1,xgb_S1,ybg_S1,zbg_S1,tilt_x_S1,tilt_y_S1,tilt_z_S1,tilt_accx_S1,tilt_accy_S1,tilt_accz_S1,xa_S2,ya_S2,za_S2,xgb_S2,ybg_S2,zbg_S2,tilt_x_S2,tilt_y_S2,tilt_z_S2,tilt_accx_S2,tilt_accy_S2,tilt_accz_S2,Posture
0.7504958984126984,0.7330623757463542,0.8225524907428248,0.5235601959581698,0.3249258290292677,0.490090074885968,0.7967621341846194,0.19508734783245138,0.806329068468624,0.781027709551485,0.2124007700601651,0.8181273729543148,0.18546383140003522,0.47245034067869907,0.7131784141268899,0.5342465635253201,0.25294753940022624,0.47810221394786667,0.48478364691835807,0.7837296911164674,0.844438082774415,0.49833391676812977,0.7750651485586415,0.7834784962110031,LF
0.7579363555555555,0.7411924908894535,0.8312937273672719,0.5235601959581698,0.3382789458232431,0.466666662732733,0.7965303983844704,0.19497842753782552,0.8067116861997008,0.789903418259258,0.20462948183811144,0.8270373896162099,0.18483711267140057,0.4431416101093705,0.763012170063368,0.5577299290254331,0.2700965251222755,0.4708029320095639,0.48465848738111894,0.784311974873677,0.8444053656142649,0.460248860165458,0.7835647991514886,0.8160122035232751,LF
0.7336307809523809,0.7696477551369275,0.8289627548035507,0.5183245768519912,0.3338279101312847,0.4684684554971196,0.7966031058785091,0.1953704018465111,0.8071197137800973,0.8057185401269691,0.22912905674144682,0.8284193051372659,0.19924830708950786,0.4525206343816053,0.7508307667185282,0.5518591039933592,0.2808146447087394,0.4197080421093295,0.4845831446333731,0.7846716266069174,0.8438409946016687,0.46368501215954094,0.7721967976488668,0.7988608404684575,LF
0.7589284571428571,0.7188346048692443,0.8173077726376211,0.5026177795465445,0.31454007389837796,0.4936936840183433,0.7958512794507892,0.1951428486195219,0.807260622944506,0.7688022483853996,0.20525882034861184,0.8125244440217991,0.16979945616623476,0.49706907892430685,0.7906980436271598,0.5675146673208976,0.291532757274837,0.41788325748241895,0.4855387212318333,0.7859144053714461,0.8439091553519822,0.5048198361658113,0.8109598740200947,0.8281492963291014,LF
0.7524801015873015,0.7364499005970836,0.8295455277813117,0.5727813889463776,0.3412463094299489,0.5171171020724789,0.7958525170251557,0.19514111421992603,0.8076913303904107,0.7876698516004689,0.20896839951920107,0.8239083524956929,0.17105263698192794,0.4607270405260091,0.7619049347044122,0.5479451856027673,0.2722401448273485,0.43430659403338007,0.4858639713450532,0.7867225216129874,0.8438491738917065,0.48238175296100577,0.7956866025296215,0.8198897746284813,LF
0.7554562031746032,0.7201896703108852,0.8251749094690882,0.5727813889463776,0.3471810269252601,0.5189189019179461,0.7956235657673316,0.19510122302921912,0.8079874286345482,0.7765498206962239,0.20571974891608497,0.8176031353093579,0.17355899861331422,0.4618991784662367,0.709856254450941,0.5146770882161915,0.27867101798330013,0.4197080421093295,0.4863600806949648,0.7872123920772286,0.8431103113583073,0.4968439323196644,0.7803887929756298,0.7913714201358134,LF
0.7723213206349206,0.7107047672328914,0.8321678271602522,0.4999999742801044,0.3620178060863879,0.5027026832456793,0.7949701265017577,0.1947737683855029,0.8083377065574001,0.7744865500507453,0.18853444260217792,0.8225424210633872,0.18107782686589713,0.46776082854258166,0.743078758408593,0.5557729788027395,0.27867101798330013,0.43795622304997645,0.4868343694676601,0.7877850744533506,0.8427095261464636,0.48817574124411567,0.7851739012561555,0.8025317390020665,LF
0.7385910857142857,0.6957996023883342,0.8333333731157743,0.49607326638044424,0.3575667703944295,0.48108106385683097,0.7943794941352896,0.19493923010695693,0.8084704257703752,0.7765632651183274,0.2132467287101492,0.8147850797636379,0.1835839318557074,0.45603752838989153,0.7751940270072892,0.5459882443526761,0.2818864510510927,0.47810221394786667,0.4867890814772119,0.788473573488842,0.8428294890670155,0.46787933262656417,0.7899805732894701,0.8203326444247612,LF
0.7420633396825396,0.7012195866481513,0.8327506001380133,0.5366491879971763,0.35311574442057136,0.5063062923780546,0.7940100781868543,0.1950557817598051,0.8086884044777615,0.7776026683293932,0.21141278677737638,0.8161809560710706,0.16979945616623476,0.45603752838989153,0.743078758408593,0.5342465635253201,0.25830659217309193,0.5127737386110078,0.487077689489069,0.7890594577639594,0.8428785648072413,0.48461637351887393,0.7906668954903054,0.8118787520913292,LF
0.744543492063492,0.7018969806155989,0.8359557918420376,0.5863874108998517,0.32937686472122607,0.48108106385683097,0.7939543873403567,0.19497599937839113,0.8088979832349594,0.7798962867402445,0.20848629755463552,0.8188335054826437,0.167919813263483,0.4572096663301191,0.7508307667185282,0.5283757384932463,0.22615224745443274,0.560219004275668,0.48732512660051863,0.7895795325728722,0.843192104258684,0.48435854638199805,0.794185133294479,0.816760161401437,LF
0.7271824253968253,0.722899801194167,0.8208041718095417,0.5615183037351633,0.3649851794111939,0.5441441292589897,0.793787624194455,0.19555806388279343,0.8090983220469503,0.7806034633428869,0.230376984191616,0.8109729757618492,0.1754386415160659,0.46307131640646426,0.726467506429767,0.5048923499207271,0.2497321063324336,0.5273722953160804,0.487635966898596,0.7899627877012863,0.8429821691477183,0.49208944322514686,0.7837239247755177,0.7984327329987208,LF
0.744543492063492,0.7100270957586978,0.8356643456794955,0.568062809185295,0.3813056500937748,0.556756737618701,0.7937102757965413,0.1957738231925301,0.8095260895102891,0.7830921752567064,0.2097036050151634,0.8205387447229745,0.20050123126362512,0.4618991784662367,0.7353267500986578,0.5127201379934979,0.24866029296971395,0.5547445428219409,0.48759850137922506,0.7900123948369056,0.8426277332460878,0.47535347067732686,0.7688806270798797,0.7879268772758583,LF
0.7371030349206349,0.7215447357525261,0.8248834633065462,0.5955497121857951,0.38427301370048056,0.5459459338251773,0.7937297675928155,0.19621158565054903,0.8097963579075976,0.7810214354878369,0.2208316910377897,0.8149248899576422,0.1879699363898455,0.47010558461064034,0.7286824307467602,0.5009784622933433,0.26688108503411656,0.5583941957436473,0.4878517024167318,0.7903160385138016,0.8423550902448338,0.4906364947189951,0.7770858209105049,0.7903774234819406,LF
0.7420633396825396,0.7242548666358078,0.8307109543895109,0.5968586148190151,0.36053414371923553,0.5747747596769752,0.7938606410820853,0.19642422304101298,0.810250375215275,0.7857192153357238,0.21529533631498193,0.8202073277942059,0.17230581779762108,0.47831199075504416,0.7353267500986578,0.4735811848116401,0.24758848101106756,0.5620438247602437,0.4882901725060726,0.7908263119128539,0.8423360052347454,0.5035980061842902,0.7908118931383693,0.8016140143686646,LF
0.7430554412698411,0.7201896703108852,0.8292540816187698,0.5667539014080958,0.32789319263597344,0.5747747596769752,0.7937672042174058,0.1964360169582655,0.8106493728492191,0.782604590881754,0.21440475065881842,0.8184377475383998,0.1923559409239836,0.46893296648280924,0.7475086070425794,0.4735811848116401,0.2400857994066527,0.5346715772543833,0.48819712627115147,0.7910407427571441,0.8421533344239053,0.48185292243854616,0.7789176245310442,0.7976700127940163,LF
0.7440475428571428,0.7174798169343497,0.8260490092620683,0.5523559938759215,0.30267064182318554,0.5531531402881268,0.7935150484402075,0.196318771545579,0.8109387511332058,0.7786608937314037,0.21427477857512817,0.8158173686345643,0.18483711267140057,0.45134801625377413,0.754152926394477,0.4520547964520279,0.22936768052222542,0.529197103848101,0.4877199555354275,0.7912873782338324,0.8422187687442061,0.4695463061455093,0.782689236430488,0.8095881310894595,LF
0.7385910857142857,0.7113821612003387,0.8266317822398294,0.5615183037351633,0.30563799862722113,0.5423423246928021,0.7932984729260496,0.1962906742721245,0.8111552598493091,0.7777756532271244,0.21761659212545081,0.8139508721950708,0.19110276010829044,0.46307131640646426,0.7142861030849273,0.4735811848116401,0.2122186948001762,0.5364963857864039,0.48776812548890436,0.7911829632145045,0.8417116527618735,0.4874695655363464,0.7699541673588136,0.7826518059246137,LF
0.7440475428571428,0.7256099320774487,0.822843817558044,0.5667539014080958,0.2952522415527114,0.5459459338251773,0.7931505827892387,0.19618418213693287,0.8114106183350333,0.7795386651122923,0.2164764861281675,0.8155782142940244,0.1954887646424284,0.47713937262721307,0.7641198590214053,0.46966729718425637,0.2090032617323835,0.5364963857864039,0.4876927827411585,0.7913503872972198,0.8416489448715854,0.48204593667637324,0.7826866339085997,0.8026006298592658,LF
0.744543492063492,0.6998645212065104,0.8053613443091496,0.5798429123083589,0.28931752405740013,0.5531531402881268,0.7925500498278379,0.1960908714386706,0.8113056189576796,0.7543240996046443,0.21811856450882608,0.7978263662602191,0.18170428895295576,0.4337630660247391,0.743078758408593,0.4951076372612695,0.21007507509510315,0.5072993013970624,0.48721396516941823,0.7914255981157395,0.8416489448715854,0.4602470795913084,0.7787789472932806,0.8095930518649739,LF
0.7400793396825396,0.7161247514927088,0.8307109543895109,0.5667539014080958,0.2789317708701305,0.556756737618701,0.7924829114184487,0.19588759980602471,0.8116367869938531,0.7827112499637747,0.21575105296932473,0.8180003095652632,0.1585213421081483,0.4478311222454879,0.7275747417887227,0.5107632005888078,0.2047160082815049,0.48175184296446305,0.48739882251224836,0.791692636527239,0.8415835105512844,0.48832815839132965,0.7925840246498976,0.8123954335203228,LF
0.7380951365079365,0.7107047672328914,0.8350815727017344,0.5719895098833843,0.2655786540761551,0.5549549330525134,0.7924761047594324,0.1954817503005715,0.812031584652703,0.7843434028071357,0.2151536374267482,0.8193306308757966,0.17669182233175904,0.45369277232183286,0.7087485654929035,0.5322896209934286,0.2336549269527377,0.5073613396041218,0.4877644201078677,0.7918134539059248,0.8411663667593657,0.48893782698018545,0.776619411809233,0.7906923531148508,LF
0.73015873015873,0.708672030317057,0.8245921364913271,0.5392669932636165,0.3100890359712566,0.5243243085354283,0.792144434829179,0.1956440901027527,0.8121109641819825,0.7769149114475669,0.22467515122691697,0.8106710990477328,0.18734347430278686,0.4618991784662367,0.7043191704579989,0.5694716047255877,0.2497321063324336,0.47810221394786667,0.4883543991107085,0.7918498591425487,0.8404275042259665,0.4913622567424112,0.7696862934987367,0.7801594331266606,LF
0.7450396444444444,0.6971543903232287,0.8377039914279979,0.55366490508244,0.32195847514066217,0.5153152998666514,0.7919427102074204,0.1954862597395209,0.8123373428395569,0.7791870187830529,0.206874187674477,0.8189569269274232,0.1898495792925973,0.44900326018571546,0.7176082627608762,0.5479451856027673,0.22829586715950578,0.5036496768268165,0.4884696776318498,0.7917872501367065,0.8399694639838597,0.475733089086042,0.7692832743948876,0.7882516484597972,LF
0.7405752888888889,0.689701946654323,0.8219697177650638,0.5811518089402701,0.3382789458232431,0.5261261095610756,0.7915856700026513,0.1955792235578641,0.812320752937935,0.7644516333927178,0.2144751114860793,0.8061028869489916,0.1748121794290074,0.4607270405260091,0.7397565987326441,0.5499021281346588,0.2336549269527377,0.5127737386110078,0.4888459796615751,0.7921353002011328,0.8399476525437595,0.4867146020968754,0.78726372633248,0.806141127841748,LF
0.7375991873015872,0.7059621769405215,0.8324592733227941,0.5706806024491171,0.34569734512190725,0.5189189019179461,0.791509868572696,0.19573601328133836,0.8124994618781911,0.7803644513943807,0.21574421233334093,0.8164148498254395,0.18734347430278686,0.46424393453429535,0.7530456910355214,0.5479451856027673,0.2250804340917131,0.5456204762567274,0.4890283667503807,0.7923481308152417,0.8400021811440098,0.47906098217182336,0.782981834248504,0.8046550536364528,LF
0.7504958984126984,0.7113821612003387,0.8312937273672719,0.5811518089402701,0.339762627626596,0.4954954767827299,0.7914597468108482,0.19566247473846984,0.8126643109006363,0.7788506094655305,0.20652336077188438,0.8188604154042104,0.18233100768159027,0.48182888476333047,0.7342195147397023,0.5577299290254331,0.24222942121783558,0.5401460148030003,0.4897739717567622,0.7926591755567259,0.8398058781831073,0.5015777667540453,0.7843963048948083,0.7941319751992915,LF
0.7286704761904761,0.7337397697138018,0.8283799818257896,0.5850785082666317,0.3501483905319659,0.5027026832456793,0.7916815820160641,0.19610613415511494,0.8128432298396471,0.790918322745602,0.22819384407910384,0.8187962767189725,0.17105263698192794,0.4665886906023541,0.7452936827255862,0.5636007796935139,0.24437304724123826,0.5054744889446037,0.4903001358639712,0.7931416449563788,0.8398495010633078,0.4918850333127618,0.7922772988559165,0.8100137781714398,LF
0.7499999492063492,0.7147696860510679,0.8280886550105705,0.5811518089402701,0.3575667703944295,0.4864864657535928,0.7916036148309673,0.19614220966671075,0.8129541091821326,0.7778180778479843,0.20843026948848337,0.8174475433568408,0.20175441207931827,0.4419694721691429,0.7785161866832382,0.5714285421302778,0.2550911591052993,0.5456204762567274,0.4897822059368437,0.7933074688089129,0.8401194176345491,0.4452361272797136,0.7758886608418758,0.814270248991241,LF
0.7415673904761905,0.7127372266419796,0.8231352637205859,0.5602094096752418,0.3575667703944295,0.48288286842301853,0.7913579563191939,0.1963676816141849,0.8129423492518689,0.7748686704034194,0.2165592252491132,0.8123826105254213,0.17230581779762108,0.47245034067869907,0.7497235313595725,0.5694716047255877,0.22615224745443274,0.49270077782447236,0.49041006216805955,0.7937313297781768,0.8401166912045372,0.4947439231675132,0.793661468711664,0.8102991831512643,LF
0.744543492063492,0.7249322606032553,0.8240093635135661,0.5785340045311598,0.3694362151031523,0.4792792592906433,0.7913223760561535,0.1966302697130123,0.8130019888982059,0.7800761432314953,0.21559534706455288,0.816276051282622,0.17418546070037272,0.45134801625377413,0.7275747417887227,0.5812132804257423,0.22615224745443274,0.5310219243326768,0.4907941866688623,0.7939177565942946,0.8400621626042861,0.48294868777026895,0.7828299585068782,0.8022906210018701,LF
0.7326388825396825,0.7154470800185153,0.8356643456794955,0.569371705817206,0.363501497607841,0.4720720646294948,0.7914046747515335,0.19693136148287002,0.8131273581547661,0.7880265769336142,0.21999192153464786,0.8199839552121787,0.19360912173967676,0.46893296648280924,0.7331118257816646,0.6007827698346747,0.2550911591052993,0.5218978338623533,0.49133434888220995,0.7940323730810281,0.8396995474126177,0.48542368583834605,0.7742269506161805,0.7894473969097527,LF
0.7321427301587301,0.7005421926807041,0.8350815727017344,0.6007853227186754,0.35905046191588263,0.46126123723236906,0.7915132719022044,0.19718978702266715,0.813131768128615,0.7813862274742441,0.21848926183022843,0.8160644138543607,0.1904762980212318,0.4478311222454879,0.732004590422709,0.5694716047255877,0.25616297948838523,0.5145985806101826,0.4913635802214994,0.7941101842735925,0.8394514422814767,0.47019728405463795,0.7724183837982156,0.795502411180002,LF
0.7237101714285714,0.7039297175314331,0.8277972088480287,0.5968586148190151,0.3338279101312847,0.47567566196006905,0.7915482333780612,0.19751550726678738,0.8130633085345804,0.7789384463566064,0.2280967721970494,0.8107255258815782,0.18859665511848,0.44431422823720157,0.7674420186973543,0.5420743605706934,0.1854234028543827,0.5346715772543833,0.49097533863065573,0.7941205857697706,0.839721358852718,0.4578215814845929,0.7823970104013133,0.8158227536659776,LF
0.7405752888888889,0.7235771951616145,0.8330419269532323,0.5955497121857951,0.32937686472122607,0.4648648581665453,0.7917474828510865,0.19753874822137313,0.8131983377338572,0.7876232442705102,0.2156308532227539,0.8213674893751335,0.17355899861331422,0.44900326018571546,0.7774089513242824,0.4227005815656345,0.13826365701691581,0.5346715772543833,0.4902449668574251,0.7942111988037851,0.8402857298653142,0.46700364625974383,0.7960373853012835,0.8290178132073612,LF
0.7455355936507936,0.7154470800185153,0.8251749094690882,0.568062809185295,0.32937686472122607,0.5369369227960402,0.7915801009180016,0.19751411974711067,0.8133768366753585,0.7767610475057161,0.21307440983227416,0.8149841727171838,0.19110276010829044,0.46893296648280924,0.726467506429767,0.4285714322337153,0.16077172359329586,0.5127737386110078,0.4900584626785787,0.7939235574287018,0.8398467746332952,0.4886867660250784,0.7741696951346373,0.7875750418265917,LF
0.7380951365079365,0.6964769963557814,0.839160864198739,0.5746073034901384,0.30712167945876395,0.49729728134891754,0.7915507085267943,0.1973472705059799,0.8135257257924461,0.7815908814551524,0.21185319343689837,0.8187147376333231,0.1879699363898455,0.4841736408313892,0.7408638340915998,0.5127201379934979,0.19292608235268766,0.5018248348276417,0.4905031084029807,0.7939615628955069,0.8395114237417522,0.4986515711964355,0.7827743760751205,0.7935636256273989,LF
0.7450396444444444,0.6910570120959639,0.8310024005520529,0.5863874108998517,0.2522255372821797,0.44324322697589585,0.79137033206286,0.19681723798945625,0.813413796456187,0.7712721381082742,0.20818042340279297,0.813105738793687,0.19172947883692495,0.4466589843052603,0.6677740532253164,0.5440313018207845,0.18756702255945568,0.5328467328646975,0.4908295936432128,0.7933734783038904,0.8386007961175634,0.48752440722015694,0.7547563690031017,0.762599645704163,LF
0.7375991873015872,0.6985094557648696,0.8336246999309933,0.6034031194118169,0.2255193036942289,0.45765765170359585,0.7914266416965412,0.1962885929926093,0.8133906965931692,0.7781550846953779,0.21432298877158465,0.8154566138213809,0.1754386415160659,0.4525206343816053,0.7275747417887227,0.5225048762889624,0.24124442732099102,0.5346715772543833,0.4909485775453908,0.7936123126584448,0.838570805387426,0.48323678466768966,0.7821960585326505,0.8012818620214542,LF
0.7599205587301586,0.7188346048692443,0.8339161460935354,0.6007853227186754,0.2195845959170179,0.4720720646294948,0.791548542771653,0.19541549623600596,0.8135782254811229,0.782043510332636,0.19910648264270062,0.8237768378414196,0.1729325365262556,0.44548636617742915,0.7441859937675488,0.47162427304295684,0.24124442732099102,0.541970823335021,0.49063485528428497,0.7939501612554655,0.8388161840885544,0.474100302590771,0.7870146278088833,0.8128383033166028,LF
0.7594246095238095,0.7174798169343497,0.8397436371765001,0.5706806024491171,0.3097693049332867,0.5081080969442422,0.7915961893847677,0.19499750593338103,0.8139303933927672,0.7862560959250554,0.197456912136917,0.8272316266440597,0.1685465319921175,0.44900326018571546,0.7652270943803611,0.4794520482977243,0.17577710365100468,0.5383212062709797,0.49032360327720365,0.7942033976816514,0.8393314793609248,0.4732580910179649,0.7961346080832545,0.8256150969392774,LF
0.7554562031746032,0.7276423914865371,0.8263403360772873,0.5654450047761846,0.3130563979258853,0.5261261095610756,0.7914987304033967,0.19479562182041193,0.8141731519532089,0.7806641126248203,0.206378404437944,0.8201415704670693,0.18609029348709372,0.45838228445795026,0.7707641783733029,0.5264187651981465,0.20364420193915156,0.5237226423943739,0.4901593313845773,0.7943828234907263,0.8395795844920666,0.46972970528292785,0.7875217477882653,0.8159777580946758,LF
0.7569444571428571,0.7154470800185153,0.8417832829250023,0.569371705817206,0.3367952737379905,0.5207450288158675,0.7915667969935605,0.19455454027657432,0.8145542996930029,0.7875616986937699,0.19852405135037413,0.8277198495067695,0.1635338087293449,0.4607270405260091,0.7751940270072892,0.5381604466023125,0.2679528983968362,0.5273722953160804,0.4903524229074889,0.7951883393582231,0.8401712198047876,0.48267020597325655,0.804254848163668,0.8313379588623165,LF
0.7519839492063491,0.7249322606032553,0.8344989190712964,0.5890052161662919,0.35459942622392426,0.5099098944293492,0.7917227313637543,0.19457465931188736,0.8148306580541977,0.7868407789040884,0.20615754961904173,0.8243998126422003,0.17982464605020398,0.46307131640646426,0.754152926394477,0.5518591039933592,0.26366565196632386,0.5456204762567274,0.4905866853308082,0.7956130004425774,0.8403429848955779,0.4818119692331032,0.7881517439796605,0.8100556047633106,LF
0.7574404063492063,0.7215447357525261,0.8295455277813117,0.5798429123083589,0.3382789458232431,0.5117116954549966,0.7916896262494473,0.1944390292634837,0.8150383468226033,0.7802162639863071,0.2028883771079746,0.8211394631976473,0.18107782686589713,0.4419694721691429,0.7519380020774837,0.5380733797370694,0.2593784125561779,0.5036496768268165,0.4903536580345011,0.7958948409832537,0.8404275042259665,0.46461197906187246,0.782974026682839,0.8127497293573466,LF
0.735614984126984,0.7107047672328914,0.8423659365554405,0.5955497121857951,0.32195847514066217,0.5117116954549966,0.7919488980792536,0.1944688609365341,0.8152979052834217,0.7906619824308292,0.21475590330598168,0.8237509395710397,0.18546383140003522,0.46893296648280924,0.7585827750284633,0.49119372399787886,0.23579855157206714,0.529197103848101,0.49031289884309764,0.7961546783589374,0.8404847592562302,0.48230162712426944,0.7865703401436622,0.8076616474756424,LF
0.7341269333333333,0.6978320617974223,0.8377039914279979,0.5667539014080958,0.32195847514066217,0.5153152998666514,0.7918764999788064,0.19452193356417039,0.8154295745026232,0.7818833723271369,0.21567482873979205,0.8174691926922366,0.17105263698192794,0.47362247861892665,0.7176082627608762,0.5185910014795821,0.2207931876612008,0.5182482048457571,0.4909366379842726,0.7963363044845114,0.8402093898249636,0.5054173968504492,0.7860994695762961,0.7943140438933174,LF
0.7485118984126984,0.7249322606032553,0.8289627548035507,0.5785340045311598,0.31454007389837796,0.5045044878118671,0.7918947542007141,0.19443070414542318,0.815586863569899,0.7831686590802281,0.21076357784806624,0.8201919506961678,0.18045110813726262,0.44431422823720157,0.7441859937675488,0.5342465635253201,0.2090032617323835,0.529197103848101,0.4907826588167482,0.7963719096060446,0.8402911827253395,0.4691214611533918,0.781772591042536,0.8085965948233439,LF
0.7475197968253967,0.7107047672328914,0.822843817558044,0.5759162112673376,0.35459942622392426,0.5117116954549966,0.7916760129314145,0.19456841547334192,0.8156026134765021,0.7724259682896872,0.2115652352364417,0.8126152902983663,0.18483711267140057,0.4900352909077342,0.7286824307467602,0.5890410813165166,0.2433012338785186,0.5164233927279698,0.4918032854378524,0.7965685378895682,0.8398713125034081,0.508601775659765,0.7826191542339239,0.7879440999901587,LF
0.7465276952380951,0.7100270957586978,0.8208041718095417,0.5667539014080958,0.34421366331855435,0.5009008904812927,0.7913780669026514,0.1946776826478871,0.8155551537579383,0.7707158377981264,0.21293433966689362,0.8109391866122129,0.1879699363898455,0.4665886906023541,0.7696569430143474,0.5831702306484359,0.23579855157206714,0.5456204762567274,0.4920169624109679,0.7968333759845685,0.8401030590544741,0.47577582286563475,0.787426569844921,0.8124520224387362,LF
0.7475197968253967,0.7222224072267196,0.8277972088480287,0.5876963135330718,0.3486646990105127,0.5045044878118671,0.7914161223144249,0.19477931846420998,0.815677373033178,0.7813007807026533,0.21156686395929503,0.818626319319604,0.17982464605020398,0.46424393453429535,0.7585827750284633,0.6144813829395194,0.2433012338785186,0.5383212062709797,0.49250607270781,0.7971698243801804,0.8402939091553522,0.48148861696751843,0.7895455803452789,0.8121100285404976,LF
0.739087238095238,0.708672030317057,0.8292540816187698,0.5942408181258736,0.3575667703944295,0.4792792592906433,0.791432210781191,0.19501970624820927,0.8156588931427636,0.7786163777559946,0.21597777119049874,0.8151425972930237,0.17669182233175904,0.46541607247452293,0.7209304224368249,0.5753424553936685,0.21864956795612778,0.5675182862139708,0.49309934538268346,0.7972366339902484,0.8401739462348002,0.4949202000083331,0.7818207376974701,0.7943361873831314,LF
0.7430554412698411,0.7100270957586978,0.8266317822398294,0.6073298187381786,0.3560830983091769,0.4864864657535928,0.791455415300565,0.1951855148495825,0.8156483932050284,0.7761954854825637,0.21383502340474747,0.8143138526408649,0.18546383140003522,0.46541607247452293,0.743078758408593,0.5440313018207845,0.21864956795612778,0.5583941957436473,0.49329079006957866,0.7972952424206374,0.8401739462348002,0.48393512584920034,0.7818028918330929,0.8003690581635666,LF
0.7628966603174603,0.7168021454601562,0.8452798014442457,0.5968586148190151,0.34421366331855435,0.48828827031978045,0.7917134495560045,0.1948542445267552,0.8159881711901449,0.7896524557133268,0.19281081732570224,0.8312296721339669,0.17230581779762108,0.45955442239817795,0.7807311110002314,0.5479451856027673,0.20793144836966385,0.5802920057008906,0.49329861254065627,0.7976928996206829,0.840885544468074,0.47534706061038795,0.7996954157097442,0.8292638519830724,LF
0.7475197968253967,0.7120595551677863,0.8321678271602522,0.5955497121857951,0.32195847514066217,0.49729728134891754,0.7917697591896856,0.19475156807067465,0.8160938005637627,0.7804982980855442,0.20872865151520087,0.8191495453133742,0.18483711267140057,0.46541607247452293,0.723145346753818,0.5577299290254331,0.21329050816289583,0.5638686332922642,0.49368603071349165,0.7976228895502525,0.8406565243470198,0.4900535347423848,0.776932643907935,0.7904955220942816,LF
0.7341269333333333,0.7147696860510679,0.8280886550105705,0.5942408181258736,0.3041543177956783,0.46306304179855673,0.7918288533656916,0.19482545349346234,0.8160322709286334,0.7813829410599522,0.221203365592904,0.8150276737182127,0.18421065058434208,0.45955442239817795,0.6987820864650571,0.5831702306484359,0.21329050816289583,0.5346715772543833,0.4942525423031,0.7973964569796027,0.840111238344512,0.4926734715462471,0.7699575134583844,0.7798026769018795,LF
0.7499999492063492,0.728997456928178,0.8251749094690882,0.5837696142067101,0.32789319263597344,0.4540540425712206,0.7918415385029496,0.19481088453685627,0.8160175710158039,0.7815200741654076,0.21136978849405028,0.8188488825806817,0.16917299407917613,0.45838228445795026,0.7464009180845419,0.5596868664301232,0.1939979027357736,0.5529197342899203,0.49454032689694916,0.797576282846223,0.8403811549157533,0.4859019480549543,0.7923797266816641,0.8134681625824229,LF
0.7385910857142857,0.7154470800185153,0.8403264101542611,0.5837696142067101,0.30712167945876395,0.49729728134891754,0.79203800343365,0.19473734599398787,0.816222739799153,0.790400264347215,0.2137017938753506,0.8239722888506935,0.19924830708950786,0.47010558461064034,0.7818383463591871,0.5342465635253201,0.20150057521371226,0.5474452967413032,0.4943101815636707,0.7976064871908944,0.8405720050166313,0.46888108364318287,0.7836244712604995,0.8112169077846669,LF
0.7460317460317459,0.7161247514927088,0.8356643456794955,0.5772251078992486,0.32195847514066217,0.5135134976608241,0.7920893627698646,0.19464611657524067,0.8164306385663133,0.785343369046698,0.20935277811257078,0.8221921874225455,0.1785714652345108,0.4665886906023541,0.7497235313595725,0.5380733797370694,0.20364420193915156,0.529197103848101,0.49451150726666376,0.7977375060369859,0.840629260046895,0.4866330518008192,0.7884313291882347,0.807752681822655,LF
0.7400793396825396,0.686314421803594,0.8310024005520529,0.5890052161662919,0.3382789458232431,0.5135134976608241,0.7918941354135308,0.19469225160449305,0.8164062787107672,0.7703952630221925,0.21148738228405584,0.8112675685874214,0.17919818396314532,0.43493568415257017,0.7198231870778694,0.49706457466595966,0.20578782866459086,0.5164233927279698,0.4941158549137469,0.7975776830476317,0.8404438628060414,0.46935542859666185,0.7746230916264677,0.7989100482235999,LF
0.7475197968253967,0.7046071114988807,0.8333333731157743,0.621727730557002,0.3115727170943424,0.5117116954549966,0.7920398597951999,0.19450840524732196,0.8165211480295922,0.7782841511475711,0.20732045773627075,0.8181789671648375,0.16478698954503804,0.46541607247452293,0.7497235313595725,0.47749507243902384,0.18649521621710233,0.5182482048457571,0.49418255177240716,0.7978309194738176,0.8406565243470198,0.49299255043387247,0.7974195103184044,0.8163295935439424,LF
0.744543492063492,0.7046071114988807,0.8356643456794955,0.620418827923782,0.33234422832793187,0.5531531402881268,0.7922279710989258,0.19447232973572598,0.8167647465850528,0.7808054284393745,0.20895439250266298,0.8192727644279164,0.17167935571056245,0.4525206343816053,0.7331118257816646,0.4579256471201087,0.19292608235268766,0.5328467328646975,0.49393840833299013,0.7978637241925336,0.8406946943671959,0.4836260181768132,0.7861626736792982,0.80637732506643,LF
0.7504958984126984,0.7032520460572398,0.8315850541824912,0.619109925290562,0.3367952737379905,0.5459459338251773,0.7922985128378229,0.19438214095673645,0.8169405155427428,0.7756523308295836,0.2053054018222151,0.8171499155777086,0.16729335117642435,0.45017587831354655,0.7375416744156509,0.4500978205933274,0.2143623215256155,0.5328467328646975,0.4936707974803408,0.798072154173644,0.8408446480178852,0.48278629940781664,0.7898359474302475,0.8117778761932879,LF
0.7410714412698411,0.7168021454601562,0.8298368545965308,0.6243455272501437,0.37388725079511065,0.5207450288158675,0.7925104474481062,0.19468011080732134,0.8170589548403978,0.7820778683002336,0.21533507715260153,0.817729187047223,0.18421065058434208,0.49120742884796176,0.7497235313595725,0.47553816067034055,0.19506970907812696,0.5018248348276417,0.4939886368314874,0.7981689680996108,0.8406074486067939,0.5038825419334115,0.7889477438886465,0.7989592559787424,LF
0.7554562031746032,0.7242548666358078,0.8438229286735046,0.620418827923782,0.3427299912333017,0.5387387155604269,0.7929466924123386,0.1945094458870795,0.8174957522501892,0.7932442077695017,0.20025538374339144,0.8309144416241858,0.18233100768159027,0.46307131640646426,0.7142861030849273,0.43639920748848265,0.19078246264761461,0.5182482048457571,0.4938408332990242,0.7979649387514989,0.8401903048148752,0.4920093173884105,0.7758823404315756,0.788022832398386,LF
0.7430554412698411,0.7215447357525261,0.831876500345033,0.6073298187381786,0.32789319263597344,0.5585585421848887,0.7931397540135309,0.19455176523722076,0.8177595106861018,0.7852776407608587,0.2137346940769865,0.8204986833359805,0.16979945616623476,0.45134801625377413,0.723145346753818,0.41095886741146953,0.19935695550863924,0.5310219243326768,0.49344888632714384,0.7979881420891273,0.8401466819346747,0.48651161664381004,0.7845842441540294,0.8026621395531935,LF
0.7400793396825396,0.7046071114988807,0.8342074729087544,0.6387434390689672,0.32937686472122607,0.5639639440816505,0.7933996446305206,0.19458506570946307,0.8179726594221296,0.7806333398364501,0.21300046581473608,0.8176340918356716,0.18233100768159027,0.4806562666354993,0.7563678507114701,0.385518629878484,0.18649521621710233,0.47445258493127035,0.49317180616740086,0.7980923570796825,0.8399940018539727,0.4942628120322654,0.7901694420207943,0.8058704851884659,LF
0.7336307809523809,0.7073172423821624,0.8324592733227941,0.6269633325165838,0.33234422832793187,0.6036035855287732,0.7935973471355875,0.19475573062970503,0.8182395678393627,0.7818248143997529,0.21911013098189183,0.8161249105953264,0.17105263698192794,0.4419694721691429,0.7663347833383986,0.36986297682492153,0.19078246264761461,0.5091241143754336,0.4921219482070072,0.7982685824283949,0.8404029663558535,0.46587440613400677,0.7934885869005109,0.8262080503887411,LF
0.7460317460317459,0.7052845054663279,0.8272144358702676,0.6335078285360871,0.3160237547299209,0.6234234003514341,0.7936824303732927,0.19466380745111936,0.8185241161519913,0.7739920940822732,0.21058637280163137,0.8140459674066222,0.1829574697686489,0.4607270405260091,0.7785161866832382,0.3522505273647069,0.2068596420273105,0.5164233927279698,0.49113055292519237,0.7984798128123225,0.8407246850973332,0.47109932291887385,0.7921482881280238,0.8214422793032182,LF
0.7564483047619047,0.7093497017912506,0.8458624550746839,0.6125654206977602,0.29080120586075303,0.5999999763963979,0.7939522215852151,0.19414730325144428,0.8190499530337786,0.7883435665303204,0.19679988533791115,0.82888284371102,0.19172947883692495,0.46776082854258166,0.7530456910355214,0.38943247905185735,0.19292608235268766,0.5218978338623533,0.49053110461525784,0.7983803985123111,0.8406074486067939,0.4795940860722422,0.7806191161627466,0.8011982088377124,LF
0.7410714412698411,0.7256099320774487,0.8307109543895109,0.5759162112673376,0.3086053602903069,0.5819819661399247,0.7939843985187472,0.1941500782907977,0.8193412213065577,0.7865175152437339,0.2162842968314826,0.8203724292678782,0.16979945616623476,0.4747946165591542,0.7530456910355214,0.4187866939382508,0.18971064928489498,0.4726277763992497,0.49048581662480945,0.7986142321475491,0.840591090026719,0.4970440688540902,0.7966422857458985,0.8130449758881999,LF
0.7534722031746031,0.7364499005970836,0.8231352637205859,0.5824607115734901,0.2997032772446698,0.5207450288158675,0.7939627409673313,0.19397733209104065,0.8194539906378355,0.78227923586685,0.21026844610067463,0.8197765667189016,0.1829574697686489,0.47010558461064034,0.7441859937675488,0.4677103854155731,0.20793144836966385,0.4908759334347866,0.4905035201119848,0.7986702402038937,0.8403811549157533,0.48877828753637265,0.7846123142115392,0.8014467080011812,LF
0.7524801015873015,0.7093497017912506,0.8263403360772873,0.5602094096752418,0.31899111736481656,0.5297297127925503,0.7936474688974356,0.19382088924748558,0.8194955703912676,0.773561275045091,0.20624028873998743,0.815384179596412,0.18233100768159027,0.4747946165591542,0.7386489097746066,0.5029353996980335,0.2143623215256155,0.5000000227098546,0.4907983037589031,0.798737449871507,0.8401248704945744,0.4945437866330875,0.7843691643094015,0.7979455762228128,LF
0.7495037968253967,0.7174798169343497,0.8336246999309933,0.5837696142067101,0.32195847514066217,0.5135134976608241,0.79366510433216,0.1937109283131022,0.8196259796179408,0.7835215004692104,0.20741068898234138,0.8216881828013229,0.17230581779762108,0.47713937262721307,0.7663347833383986,0.4892367865931887,0.22722406081715238,0.5000000227098546,0.4910066285149655,0.7991717123369491,0.8403184470254651,0.4938721540638223,0.7989851131286522,0.8179583702391497,LF
0.7614086095238095,0.7107047672328914,0.8377039914279979,0.5968586148190151,0.35311574442057136,0.5261261095610756,0.7937065630734417,0.19351494115875925,0.8198471083066478,0.7813228893078901,0.19559365319278538,0.8245843378186575,0.18233100768159027,0.4618991784662367,0.7342195147397023,0.5166340256208817,0.25080391267478697,0.5255474867840598,0.4910881468977725,0.7993293350098042,0.8401957576749005,0.4852961967292277,0.7809509377035079,0.7984770199783487,LF
0.7460317460317459,0.7127372266419796,0.8368298916350176,0.5876963135330718,0.3709198969065051,0.5369369227960402,0.7938133038625624,0.19386251483778852,0.8200646670165246,0.7848393526002857,0.2085071452071573,0.8221687171150137,0.17606536024470054,0.45486539044966395,0.763012170063368,0.5146770882161915,0.24115760806572692,0.560219004275668,0.4909724566676272,0.799650581218694,0.8405938164567316,0.4745792770370392,0.7915790794121632,0.8187161696683398,LF
0.7415673904761905,0.7235771951616145,0.8208041718095417,0.6007853227186754,0.34421366331855435,0.5099098944293492,0.7937854584393135,0.1941008213422726,0.8200031373813954,0.7775940041462599,0.21886679978761459,0.8133523793530086,0.1748121794290074,0.4572096663301191,0.7486158424015351,0.5029353996980335,0.2143623215256155,0.5383212062709797,0.49095187121742345,0.7997980024241436,0.8407628551175094,0.48131483293050814,0.7890014673761984,0.811475248499163,LF
0.7514879999999999,0.7032520460572398,0.8312937273672719,0.5732984068582273,0.32937686472122607,0.5315315138181977,0.7935725956482552,0.1939641506541114,0.8200755869517694,0.7751985068923576,0.204601793549606,0.8171049982650184,0.16102770373953462,0.48300102270355805,0.7297896661057159,0.493150661402569,0.2250804340917131,0.5711679152305671,0.4916591872864258,0.800172256257788,0.8408882708980858,0.5147757384664201,0.7976080072608873,0.8046599744119672,LF
0.7614086095238095,0.719512276343438,0.8330419269532323,0.5981675174522352,0.3486646990105127,0.5261261095610756,0.79362209862292,0.19379730141298063,0.8202668958173078,0.7813016769974602,0.1982771369658196,0.8235815891623832,0.16666663244778984,0.45134801625377413,0.6854929941621797,0.5636007796935139,0.2593784125561779,0.5729927237625877,0.4923068055498373,0.8002304646306316,0.8405801843066693,0.49877122577929495,0.7768205495723164,0.7855698258045465,LF
0.7460317460317459,0.7012195866481513,0.8243006903287852,0.5706806024491171,0.38427301370048056,0.5099098944293492,0.7932904286926666,0.19406439895075758,0.8201558064760676,0.7699321773719621,0.21095935033502833,0.8111526450126103,0.17418546070037272,0.47010558461064034,0.726467506429767,0.5694716047255877,0.2743837785731541,0.541970823335021,0.49297006875540356,0.8005481103216138,0.840454768526092,0.4984478735137103,0.7857708082406848,0.7976798543450444,LF
0.7380951365079365,0.7188346048692443,0.8321678271602522,0.606020924678257,0.3620178060863879,0.5063062923780546,0.7934735896989259,0.1943689595198072,0.8202049461846692,0.7854661614352428,0.2172465462931897,0.8192968417261602,0.1954887646424284,0.45603752838989153,0.754152926394477,0.5440313018207845,0.2347267389113841,0.5766423766842942,0.49278644653958575,0.8004887017761341,0.8405474671465184,0.46761046592996003,0.7762742058701889,0.8020913295935439,LF
0.7509920507936507,0.7269647200123435,0.8266317822398294,0.5994764200854552,0.36053414371923553,0.5171171020724789,0.7935385623531732,0.19450181452885731,0.8202851657089674,0.7816055209369986,0.20980458583206563,0.8194951253587569,0.18483711267140057,0.47245034067869907,0.754152926394477,0.4618395347474924,0.22722406081715238,0.5620438247602437,0.49266293383836296,0.800617720334499,0.8406537979170071,0.4868150264789182,0.7864272014398044,0.8049650624938492,LF
0.7485118984126984,0.7168021454601562,0.8210956179720836,0.5955497121857951,0.34569734512190725,0.5045044878118671,0.7934107827998201,0.19460449098493776,0.8201965462344808,0.7733724556057714,0.21219261927951813,0.81302096242424,0.18170428895295576,0.47245034067869907,0.759690010387419,0.48532289896580505,0.23043949388494506,0.560219004275668,0.4926707563094404,0.8008383520707416,0.8408446480178852,0.4868880300190558,0.7900359698268073,0.809767739395729,LF
0.7485118984126984,0.7188346048692443,0.8455711282594648,0.5903141102262134,0.33234422832793187,0.5009008904812927,0.7936753143206845,0.19446435149758465,0.820450434728922,0.7938282932186634,0.20452622080921473,0.829724132837894,0.18045110813726262,0.48182888476333047,0.7342195147397023,0.5518591039933592,0.22615224745443274,0.6003649951735582,0.4933381366050475,0.800939566629707,0.8408582801679484,0.5025553019622284,0.7856628035823193,0.7952908178328905,LF
0.7291666285714284,0.7100270957586978,0.8409090637846993,0.6073298187381786,0.28635017016879466,0.46306304179855673,0.7939652161160645,0.19442862286590798,0.8204292248546966,0.7906494343035326,0.2202772737785393,0.8216475144236168,0.16666663244778984,0.47362247861892665,0.709856254450941,0.5538160413980494,0.20578782866459086,0.5638686332922642,0.49416484828523194,0.8009907739955076,0.840686515077158,0.5098218250671366,0.7869460327676839,0.7930543253616769,LF
0.724702273015873,0.7066395709079688,0.8359557918420376,0.6308900318429455,0.25816025477749094,0.4540540425712206,0.7942637809320109,0.19436445008085765,0.8202981856317592,0.7863119649680187,0.2249901462267378,0.8169135938604913,0.17230581779762108,0.47362247861892665,0.7774089513242824,0.5538160413980494,0.18435158949166303,0.5985401866415375,0.4944711597842644,0.8012514114862819,0.8413435847101806,0.48783529546669385,0.8013597284573276,0.8245226847751204,LF
0.7539681523809523,0.7201896703108852,0.8476107740079671,0.6269633325165838,0.25964393658084384,0.5153152998666514,0.7947328216169589,0.1937522070234858,0.8206356536305739,0.7948482767089131,0.19968337627732588,0.8322071295105733,0.14536358514731018,0.48769053483967545,0.7342195147397023,0.5048923499207271,0.24124442732099102,0.6058394327221752,0.49541932562065116,0.8019279087954136,0.8417907192322376,0.5253747841498987,0.8098549175840805,0.8154561558901685,LF
0.7490078476190476,0.7405148194152599,0.8371212184502368,0.6125654206977602,0.28931752405740013,0.5387387155604269,0.7951313205630097,0.1935312445149612,0.820965771672974,0.7962396250141539,0.209850190071957,0.8293609500618625,0.16228088455522777,0.48886267277990303,0.7032114814999615,0.46379644651617563,0.1939979027357736,0.5766423766842942,0.4961624603730083,0.8019793161899871,0.8415698784012213,0.5261831648138606,0.7906239538791481,0.7891669127054426,LF
0.7251984253968253,0.7188346048692443,0.8412005099472413,0.6073298187381786,0.3175074355614637,0.556756737618701,0.7954920734908786,0.19376955101944543,0.8212129402072645,0.7954825546672609,0.2245738446654441,0.8232691912759249,0.1835839318557074,0.4994138349923656,0.7308973550637533,0.4892367865931887,0.23687036493478678,0.5711679152305671,0.4967833175511547,0.8021025339139447,0.8413054146900053,0.5163433559478121,0.7856668932595725,0.7878260013778169,LF
0.7375991873015872,0.7127372266419796,0.8333333731157743,0.6034031194118169,0.3471810269252601,0.5603603467510763,0.7955852009619664,0.19398461656934374,0.8213670792932197,0.7839221442478937,0.21640677679004788,0.8185710831648092,0.17355899861331422,0.47948412869527174,0.759690010387419,0.5146770882161915,0.24758848101106756,0.5656934776819501,0.49707233727201605,0.8025051918333068,0.8415780576912593,0.4970130868638854,0.7967614440694994,0.8132221238067121,LF
0.748015746031746,0.7249322606032553,0.8557692376546533,0.6086387213713985,0.33234422832793187,0.5747747596769752,0.7961195236947535,0.1938122172495059,0.8219439458724009,0.8045626185910068,0.20244992491587646,0.8377246750829301,0.19674194545812154,0.45486539044966395,0.7585827750284633,0.4990215248886532,0.25723478583073855,0.5328467328646975,0.49652558771460326,0.8025033915743529,0.8415398876710839,0.4646415365927574,0.7763825823173957,0.8039046353705344,LF
0.769345219047619,0.732384981778907,0.8307109543895109,0.5955497121857951,0.33531158221653734,0.5459459338251773,0.7961430376077192,0.19349447524352703,0.8222060243182758,0.7831677627854214,0.19434539999804554,0.8262893747287511,0.16228088455522777,0.47010558461064034,0.7375416744156509,0.5107632005888078,0.2400857994066527,0.5565693872116266,0.4969068302523775,0.8028658437104106,0.8417225584819241,0.5015207883812551,0.7966331769192893,0.8105722861923036,LF
0.7450396444444444,0.7452574097076301,0.8298368545965308,0.5863874108998517,0.3427299912333017,0.5207450288158675,0.7963227952844703,0.19367415904166785,0.8223706633419665,0.7933320446605777,0.21612924241585205,0.8250339156060348,0.16917299407917613,0.4759672346869854,0.7308973550637533,0.4951076372612695,0.2347267389113841,0.5328467328646975,0.49726789904895213,0.8030836750438358,0.8416353127215221,0.5045577356509762,0.7913033979864215,0.8017493356953054,LF
0.744543492063492,0.7432249502985416,0.8449883552817038,0.5746073034901384,0.31454007389837796,0.5459459338251773,0.7966755039789561,0.19360963937669834,0.8227944408289659,0.8046140061599355,0.21122548364925128,0.8344853679830609,0.18170428895295576,0.45838228445795026,0.7641198590214053,0.4618395347474924,0.22936768052222542,0.5072993013970624,0.4967598501379224,0.8032188944941532,0.8417607285020994,0.4740686083709065,0.7887125874465944,0.8151412262572577,LF
0.7524801015873015,0.7330623757463542,0.8435314825109627,0.5575916044088017,0.31899111736481656,0.5351351182298526,0.7967813165873019,0.1934143459821939,0.8231369487978936,0.7974024181436361,0.2039356459026219,0.832353009611698,0.16102770373953462,0.4865179167118443,0.7308973550637533,0.48140901133842134,0.2090032617323835,0.5072993013970624,0.4973547696488121,0.8034771316396557,0.8416462184415727,0.5173305062564034,0.7985125695115006,0.8044951284322409,LF
0.7534722031746031,0.7398374254478126,0.8193472990388005,0.5523559938759215,0.33531158221653734,0.5585585421848887,0.7965105971946044,0.19348025316684023,0.8232366982063796,0.780662618800142,0.21199358934684956,0.8180336940544248,0.16666663244778984,0.4806562666354993,0.743078758408593,0.5342465635253201,0.24115760806572692,0.5091241143754336,0.49793157396352256,0.8038335829125334,0.8416325862915103,0.5062713602126433,0.7970618494531805,0.8085498474559587,LF
0.7485118984126984,0.7439026217727353,0.8412005099472413,0.5549737991423616,0.3249258290292677,0.5207450288158675,0.7966810730636059,0.19343446501750705,0.8235416163982149,0.8010443627089973,0.2093739515096632,0.8327768914589325,0.1829574697686489,0.47713937262721307,0.7818383463591871,0.5636007796935139,0.2454448556897015,0.48175184296446305,0.4981123142163118,0.8041786325453698,0.84177163422215,0.48366768361191603,0.7960342250961334,0.8196412754650133,LF
0.7271824253968253,0.7249322606032553,0.8412005099472413,0.55366490508244,0.3338279101312847,0.5243243085354283,0.7967707972051856,0.19374457566526365,0.8236881955290005,0.7976291807297813,0.22384710852831863,0.8249956751911768,0.16666663244778984,0.45017587831354655,0.7508307667185282,0.5616438038348134,0.2550911591052993,0.46350368592892627,0.49817324714891503,0.8045046794448035,0.8418425214024761,0.4793355467057064,0.7937679862146646,0.8190015746481643,LF
0.7455355936507936,0.7242548666358078,0.8298368545965308,0.5562827017755816,0.3382789458232431,0.5117116954549966,0.7966009401233676,0.19382643932619267,0.8236999554592642,0.7842448103783768,0.21278449716439354,0.8201589708674808,0.17230581779762108,0.45838228445795026,0.7153933384438831,0.5264187651981465,0.22722406081715238,0.529197103848101,0.49839145292107534,0.804459872999728,0.8416053219913848,0.4930801546820376,0.7820843359858732,0.7956992422005704,LF
0.7460317460317459,0.7174798169343497,0.8397436371765001,0.5785340045311598,0.33531158221653734,0.5153152998666514,0.7966488961300738,0.19380354525152607,0.8238240647232963,0.7891672614578593,0.20821495232728207,0.8252018497030299,0.17230581779762108,0.5158266472811731,0.7342195147397023,0.4735811848116401,0.22936768052222542,0.5346715772543833,0.49931862159825435,0.8047451140295394,0.8413354054201427,0.5347203056319917,0.7969564473167033,0.7930961519535478,LF
0.7495037968253967,0.746612475149271,0.8467366742149869,0.55366490508244,0.388724049392439,0.5369369227960402,0.7969202343099548,0.19403838295681827,0.8242516221878804,0.8063782131048459,0.20712403376016728,0.8372075189962802,0.16478698954503804,0.47831199075504416,0.7308973550637533,0.4990215248886532,0.23687036493478678,0.5182482048457571,0.4997467989624932,0.805005551491541,0.8412536125197668,0.5087281964243935,0.7946162224558379,0.803921858084834,LF
0.7440475428571428,0.7215447357525261,0.8304196275742919,0.5549737991423616,0.339762627626596,0.5081080969442422,0.7967274821023541,0.19414522197192907,0.8242312523086739,0.7838913714595236,0.2134135099303233,0.8196826854887742,0.17919818396314532,0.4865179167118443,0.7552606153525145,0.5381604466023125,0.2390139867459697,0.5127737386110078,0.50017374119972,0.8052359846376438,0.8412018103495283,0.501071015351042,0.7930164150722007,0.8059541383722076,LF
0.7405752888888889,0.708672030317057,0.8277972088480287,0.5615183037351633,0.33086054652457897,0.4918918794521556,0.7964372709133823,0.19423541075091874,0.8240643032986815,0.7771159802492476,0.21525852717849822,0.8143988313405492,0.17230581779762108,0.5298947035019217,0.8006645226550063,0.5264187651981465,0.23151130724766472,0.5237226423943739,0.5011606076824899,0.8059666897441663,0.8416162277114345,0.5282083898517245,0.8180898545220007,0.8251008758980413,LF
0.7380951365079365,0.7215447357525261,0.8280886550105705,0.5706806024491171,0.29080120586075303,0.5171171020724789,0.7963255798267951,0.19419343828069663,0.8240195735639289,0.7833613624637112,0.21897266677307653,0.8172170892165065,0.16666663244778984,0.47010558461064034,0.7441859937675488,0.5146770882161915,0.21543413488833513,0.5310219243326768,0.5013701675655646,0.8061395146037434,0.8417307377719612,0.4973677772345049,0.7955139066128891,0.8113473083357939,LF
0.7504958984126984,0.7215447357525261,0.8324592733227941,0.569371705817206,0.32195847514066217,0.5117116954549966,0.7962265738774658,0.1940748053483333,0.8240636733024174,0.7840939340858825,0.2075520621260045,0.822022230023177,0.16416052745797954,0.49355218491602043,0.7297896661057159,0.5068493129614241,0.23151130724766472,0.5036496768268165,0.5020951871217423,0.8064085533029693,0.8415180762309828,0.5217676970374452,0.7973514729604668,0.800543745694321,LF
0.7326388825396825,0.7188346048692443,0.83886953738352,0.5628271977950848,0.35311574442057136,0.5441441292589897,0.7962568944494478,0.19437867215754456,0.8242079424469013,0.7919968641632356,0.21940916449775075,0.8228880011087698,0.17105263698192794,0.48300102270355805,0.7419715230496372,0.5499021281346588,0.2400857994066527,0.5054744889446037,0.5026497591502326,0.8066413867943442,0.8414117454604941,0.5062118890360435,0.7942537283356784,0.8048051372896367,LF
0.7261903238095238,0.719512276343438,0.8371212184502368,0.5615183037351633,0.35905046191588263,0.5063062923780546,0.7962872150214301,0.19483204421192696,0.8242089924406749,0.7923395475444063,0.2252344546547271,0.8208940366197497,0.16040098501090008,0.4841736408313892,0.7796234220421939,0.5518591039933592,0.24758848101106756,0.5145985806101826,0.5031121083618098,0.8072786784640349,0.8419106821527895,0.5023021043181416,0.8117954694406674,0.8306736541678966,LF
0.739087238095238,0.7113821612003387,0.8458624550746839,0.5811518089402701,0.33531158221653734,0.5045044878118671,0.7964335581902825,0.1948473069283714,0.8243263817445562,0.7929475341884186,0.2109427373619251,0.8267306569763971,0.17606536024470054,0.4618991784662367,0.7729791026902961,0.5577299290254331,0.2497321063324336,0.5200730133777777,0.5030178269998764,0.8075617191773469,0.8422351273242819,0.4774438647290697,0.7955170668180392,0.822423974018305,LF
0.7430554412698411,0.719512276343438,0.8219697177650638,0.5667539014080958,0.3382789458232431,0.4846846729892062,0.7961591260744852,0.19500028097273456,0.8241132330085283,0.776465867749311,0.21670157562648823,0.8134112574520757,0.1754386415160659,0.3950762715583826,0.7153933384438831,0.5812132804257423,0.2454448556897015,0.5182482048457571,0.5021931738647124,0.8072530747811346,0.8422187687442061,0.4409873212437097,0.7691159694163525,0.8076493455368564,LF
0.7366070857142856,0.7140922920836205,0.822843817558044,0.5890052161662919,0.31899111736481656,0.47567566196006905,0.7960056668530247,0.19513729854081494,0.8238461145925405,0.7763368012971178,0.22084374358690373,0.8117464842592135,0.1685465319921175,0.45603752838989153,0.7286824307467602,0.5772994056163621,0.2497321063324336,0.529197103848101,0.502473547696488,0.8073656909801413,0.8421805987240307,0.48936943815407163,0.7876855207728093,0.8052381655348885,LF
0.7291666285714284,0.7127372266419796,0.8382867644057589,0.569371705817206,0.3338279101312847,0.4864864657535928,0.796029490159582,0.19535548600998598,0.8238013848577879,0.7897271469472349,0.2215203150601488,0.8205504798767406,0.1904762980212318,0.47362247861892665,0.7663347833383986,0.5420743605706934,0.23151130724766472,0.5145985806101826,0.5024047922928073,0.807367691267868,0.8421533344239053,0.48119375388832886,0.7860853416003308,0.8076272020470424,LF
0.7460317460317459,0.7330623757463542,0.839160864198739,0.5471203919163398,0.3382789458232431,0.4720720646294948,0.7960499101366312,0.1953672799272384,0.8238784544007655,0.7953289894903459,0.21054988940971828,0.8284846578039279,0.18483711267140057,0.45486539044966395,0.7131784141268899,0.5499021281346588,0.22722406081715238,0.49817521059206743,0.5024484334472394,0.8070596469579736,0.8416325862915103,0.484388103912883,0.772511331008513,0.787739887806318,LF
0.7708332698412698,0.708672030317057,0.8406177369694802,0.5628271977950848,0.32195847514066217,0.466666662732733,0.7958515888443809,0.1947876435822705,0.8239179341666504,0.7807821247743952,0.1868122310571389,0.8274252566811974,0.1704261748948693,0.46776082854258166,0.6965671621480639,0.5596868664301232,0.2336549269527377,0.5200730133777777,0.503058174482276,0.8069450304712401,0.8411391024592402,0.5069098741027243,0.7799551012923827,0.7853139454778069,LF
0.7410714412698411,0.7093497017912506,0.8342074729087544,0.5798429123083589,0.32344215694401507,0.4846846729892062,0.795781665892667,0.1947824403834827,0.8238267947071074,0.7824133813229491,0.21286593330705667,0.8188895509583879,0.167919813263483,0.47948412869527174,0.7497235313595725,0.5694716047255877,0.25616297948838523,0.47992702247988733,0.5035966898596071,0.8073070825497524,0.8411063852990893,0.5028006650800564,0.7978215999501506,0.8114727881114066,LF
0.7475197968253967,0.7100270957586978,0.8266317822398294,0.5654450047761846,0.3412463094299489,0.4918918794521556,0.7954895983421452,0.19480394693847247,0.8236802155763217,0.7751928303585807,0.21024043206759857,0.8149896356335922,0.17230581779762108,0.4759672346869854,0.7165005738028386,0.5772994056163621,0.25830659217309193,0.5383212062709797,0.5042685989542591,0.8074070969360818,0.8408446480178852,0.5069892877098007,0.7853683468200975,0.7924835154020272,LF
0.7296625777777778,0.7215447357525261,0.8251749094690882,0.569371705817206,0.3486646990105127,0.4864864657535928,0.7953822387658411,0.19522575292020858,0.823496256667198,0.782946975497989,0.22672343308717907,0.813970498228093,0.17731828441881767,0.45603752838989153,0.7331118257816646,0.5733855179889783,0.25187572603750663,0.5127737386110078,0.5043653505702169,0.8074272998421204,0.8407192322373088,0.48349817295286496,0.7830082312562284,0.802224190532428,LF
0.7286704761904761,0.722899801194167,0.8324592733227941,0.5589004984687233,0.3620178060863879,0.49729728134891754,0.7953581060656921,0.19567843121475265,0.8234481669523699,0.7895371324481725,0.22528266485118367,0.8189820158768537,0.1754386415160659,0.4806562666354993,0.7408638340915998,0.565557717098204,0.23579855157206714,0.494525586356493,0.5048495203590102,0.8075449167604436,0.8405311085664434,0.5023184856003188,0.7906155886302213,0.802049503001673,LF
0.7296625777777778,0.7262873260448962,0.8377039914279979,0.568062809185295,0.35905046191588263,0.4774774665262567,0.7954957862139783,0.1960454301692566,0.8234485869498794,0.79490115810252,0.22321972448524222,0.82339524301379,0.1754386415160659,0.46541607247452293,0.7253602710708112,0.5694716047255877,0.22936768052222542,0.5237226423943739,0.5051657128741405,0.8074861083012819,0.8403402584655654,0.49430625804151795,0.7838334165892479,0.7973600039366207,LF
0.7539681523809523,0.7222224072267196,0.8231352637205859,0.5628271977950848,0.3249258290292677,0.4954954767827299,0.7952114535032481,0.19591639083931756,0.8233450575638087,0.7760962955239337,0.20787096606067323,0.8164909259946808,0.17355899861331422,0.4747946165591542,0.7585827750284633,0.5870841439118265,0.2207931876612008,0.5164233927279698,0.5055399563588455,0.807646131319409,0.8404902121162554,0.4934811399805491,0.7956282316815548,0.8136453105009345,LF
0.7410714412698411,0.7262873260448962,0.8307109543895109,0.5654450047761846,0.33086054652457897,0.466666662732733,0.7951690665811914,0.19600241705927696,0.823252238114228,0.7868058234066194,0.21637941424611307,0.8205312585041928,0.1660401703607312,0.4806562666354993,0.7342195147397023,0.5851272065071363,0.22936768052222542,0.5164233927279698,0.5062427436288032,0.807830757876573,0.8404275042259665,0.509064724938686,0.7950857917622598,0.8043696486566283,LF
0.739087238095238,0.7161247514927088,0.8347902458865154,0.5615183037351633,0.34569734512190725,0.48288286842301853,0.7950972872679277,0.19612694695026645,0.823210658360796,0.7861840935755681,0.21521031698204177,0.8205537171605379,0.18546383140003522,0.45369277232183286,0.7585827750284633,0.5616438038348134,0.24866029296971395,0.5273722953160804,0.505928197949689,0.8078473602647037,0.8405529200065437,0.46981695341626306,0.7838572110750839,0.8110028540497982,LF
0.7395831873015873,0.7168021454601562,0.8397436371765001,0.5523559938759215,0.35905046191588263,0.4720720646294948,0.7950598506433375,0.1962906742721245,0.82320771837823,0.7902942027950655,0.21328614380319816,0.8240574698806151,0.18546383140003522,0.4572096663301191,0.7397565987326441,0.5675146673208976,0.24758848101106756,0.5145985806101826,0.5058417390588331,0.8077649484103683,0.8404002399258409,0.478208087154119,0.7794870191413253,0.8004551717350656,LF
0.7351190349206349,0.7242548666358078,0.8283799818257896,0.5837696142067101,0.32640951083262054,0.4990990859151051,0.7950886242473613,0.19645821727309373,0.8231411487729878,0.7854171639857991,0.22165484756782822,0.8175853302484717,0.17167935571056245,0.46424393453429535,0.723145346753818,0.5499021281346588,0.21650594123068848,0.5109489264932207,0.506079706863189,0.8076917378795752,0.8401984841049132,0.49593726396263926,0.7855523822964862,0.7987624249581733,LF
0.7504958984126984,0.7005421926807041,0.8245921364913271,0.5706806024491171,0.3204747933373093,0.5027026832456793,0.7947055949808932,0.19627922723479127,0.822969579790392,0.7688772383842434,0.20717550140233038,0.811858170550227,0.18734347430278686,0.4618991784662367,0.7375416744156509,0.5342465635253201,0.2068596420273105,0.4890511129502108,0.5059133764255425,0.8074194987199866,0.8398931239435083,0.4816809189756856,0.7784448950194721,0.7971361086507232,LF
0.7440475428571428,0.722899801194167,0.8385780912209779,0.5628271977950848,0.3412463094299489,0.5297297127925503,0.7947455067542167,0.19629622435083158,0.8231501787194402,0.7909744905535009,0.21093263928023478,0.8254027636287119,0.15977452292384145,0.47245034067869907,0.7308973550637533,0.5342465635253201,0.23258312061038436,0.49817521059206743,0.5063254971386223,0.8076579330169958,0.8398685860733954,0.5065623060287037,0.796910717289237,0.808188170455664,LF
0.7470236444444445,0.7215447357525261,0.8344989190712964,0.5628271977950848,0.3249258290292677,0.5225225063296008,0.7946916722692687,0.19620083237305402,0.8232553880955487,0.7864930165190122,0.2096847118300656,0.8228447024379782,0.18922311720553867,0.46424393453429535,0.7519380020774837,0.5616438038348134,0.25080391267478697,0.4890511129502108,0.5062069249454484,0.807634329621822,0.8396968209826051,0.4783768855835102,0.7814095392391147,0.8029327822064756,LF
0.7395831873015873,0.7100270957586978,0.8429487095332016,0.5575916044088017,0.32789319263597344,0.490090074885968,0.7946830092487025,0.1961574723831552,0.8233095677742631,0.7899670551905478,0.2113075712810557,0.8245815051953348,0.16228088455522777,0.45017587831354655,0.776301262366245,0.5420743605706934,0.24115760806572692,0.5054744889446037,0.5059080242084893,0.8080451887208632,0.8402911827253395,0.4744642519469688,0.8034566175216348,0.8348735360692843,LF
0.7331348317460317,0.7384823600061717,0.8344989190712964,0.5654450047761846,0.29228488766410593,0.4954954767827299,0.794857816627987,0.1961821008574178,0.8233786573645618,0.7967944314996238,0.22322330767551937,0.8246713398207152,0.18233100768159027,0.46424393453429535,0.7641198590214053,0.5459882443526761,0.21543413488833513,0.5145985806101826,0.5057474576968998,0.8079787791683404,0.8404438628060414,0.47852965884555415,0.7893401670105217,0.8134853852967227,LF
0.7400793396825396,0.728997456928178,0.8304196275742919,0.5431936925899781,0.3575667703944295,0.5351351182298526,0.7946443350497459,0.1965636687685277,0.8234901667033114,0.7879491968152852,0.2176556814739291,0.8208201860831194,0.17731828441881767,0.4841736408313892,0.7685492540563098,0.4618395347474924,0.23151130724766472,0.5310219243326768,0.5055852443492939,0.8082138129762144,0.8406592507770324,0.49635071328019864,0.7974860605209773,0.8145654955220943,LF
0.7326388825396825,0.7371272945645309,0.8289627548035507,0.5850785082666317,0.3813056500937748,0.5153152998666514,0.794823164545722,0.19709092624569782,0.8235231365078005,0.7919314346423321,0.2252868995306021,0.8205982298127535,0.16729335117642435,0.4900352909077342,0.7364344390566954,0.5596868664301232,0.25187572603750663,0.529197103848101,0.5063296142286631,0.8085078552720227,0.8406047221767821,0.5154559177916037,0.7964746089785221,0.8027703966145066,LF
0.7321427301587301,0.7120595551677863,0.8359557918420376,0.5549737991423616,0.3338279101312847,0.4990990859151051,0.794735296765692,0.19724216589046498,0.8234861767269721,0.7869348898588127,0.21981732244477822,0.8193126234846732,0.1748121794290074,0.4525206343816053,0.7286824307467602,0.616438333162213,0.24866029296971395,0.5109489264932207,0.5065577010169211,0.8084884524810749,0.8404765799661923,0.48324746811258784,0.7829059893249013,0.8022266509201852,LF
0.7256943746031745,0.7113821612003387,0.8400349639917192,0.5798429123083589,0.2937685694674588,0.4738738573938814,0.7948692641908784,0.19726471308521237,0.8234240170955787,0.7913043270424394,0.22351940949024238,0.8208519519303823,0.17230581779762108,0.4431416101093705,0.7497235313595725,0.5909980315392102,0.2175777545934081,0.5255474867840598,0.5064016633043764,0.8084610485392206,0.8407165058072962,0.4709451251975102,0.7884759438491774,0.8165780927074104,LF
0.742559492063492,0.7222224072267196,0.8409090637846993,0.620418827923782,0.24332346589826295,0.4468468479100721,0.7952507464893881,0.19675549336384027,0.8234025972225985,0.7928632824765702,0.211270762144572,0.8265505830651615,0.1785714652345108,0.46776082854258166,0.7375416744156509,0.5459882443526761,0.20042876887135888,0.5565693872116266,0.5064992383383423,0.8083072264130461,0.8407056000872456,0.49109089724199745,0.7853811735351185,0.8012006692254696,LF
0.7534722031746031,0.7222224072267196,0.8414918367624604,0.5929319154926534,0.29821960515941714,0.48108106385683097,0.7954317417405059,0.19635831585636673,0.8235208265214988,0.7909520831833284,0.2023251647453167,0.8286016046811124,0.167919813263483,0.46776082854258166,0.6722039018593027,0.5362035047754113,0.20364420193915156,0.5255474867840598,0.5071032154473217,0.8079399735864446,0.8400158132940729,0.5149605620631584,0.7752235306049882,0.7746924515303614,LF
0.739087238095238,0.722899801194167,0.8365384454724758,0.569371705817206,0.32640951083262054,0.5153152998666514,0.795480935321579,0.19639508512780093,0.8236090259984759,0.7904471704421093,0.21558101430344415,0.8232940778951181,0.1785714652345108,0.47245034067869907,0.7253602710708112,0.5538160413980494,0.24758848101106756,0.48175184296446305,0.5073951171312115,0.8079301721765844,0.8396177545122419,0.4983969490930289,0.7829418669480761,0.7939277630154514,LF
0.7361109333333333,0.7452574097076301,0.8441142554887237,0.5667539014080958,0.35905046191588263,0.5333333136636649,0.7958506606636059,0.19666599834468895,0.8239454440035171,0.8066282793559704,0.21856548605976112,0.8330700679728433,0.18170428895295576,0.47362247861892665,0.7308973550637533,0.5459882443526761,0.2679528983968362,0.5109489264932207,0.5075923257441639,0.8079967817578797,0.8393396586509627,0.49614024941570456,0.7825144956751291,0.794592067709871,LF
0.7405752888888889,0.7330623757463542,0.8449883552817038,0.5510470998159999,0.3768546144018164,0.527927910586723,0.7960155674479577,0.19690638612868824,0.8242278923285986,0.8011321996000733,0.2130138213421328,0.8314690288047444,0.18859665511848,0.48182888476333047,0.7918052789861153,0.5401174193206023,0.2990354437935083,0.49817521059206743,0.5074206430894643,0.808477850956124,0.8395986695021542,0.4815662500004451,0.7957810368952836,0.8204728865269166,LF
0.7380951365079365,0.722899801194167,0.8371212184502368,0.5431936925899781,0.36795254301789965,0.5099098944293492,0.7959283184551111,0.1971630772688895,0.8242923619462937,0.7911295495550942,0.21618494473743358,0.8235259483471138,0.17919818396314532,0.4806562666354993,0.7641198590214053,0.5518591039933592,0.28403007777653205,0.48175184296446305,0.5075886203631272,0.8088561053652217,0.8396068487921913,0.4937090534717101,0.7943860851631417,0.81184430666273,LF
0.7504958984126984,0.7235771951616145,0.8333333731157743,0.55366490508244,0.33531158221653734,0.5261261095610756,0.7957850692221752,0.19705936017305142,0.8243889613734591,0.7856582672888547,0.2075491304248686,0.8230808218249581,0.17167935571056245,0.46893296648280924,0.7818383463591871,0.5538160413980494,0.24758848101106756,0.4872263044181902,0.5075161595784099,0.809240960723817,0.8399940018539727,0.4830597955972099,0.8021278442032246,0.8282304891250859,LF
0.7385910857142857,0.7249322606032553,0.8307109543895109,0.5785340045311598,0.3100890359712566,0.4954954767827299,0.7957999201145745,0.19705207569474845,0.8243360416872728,0.7867837148013825,0.21818534214580984,0.8198313982132217,0.17418546070037272,0.46776082854258166,0.7397565987326441,0.5322896209934286,0.2229368073662738,0.4616788773969056,0.5075680349129235,0.8092303591988661,0.839775887452969,0.4927632124833918,0.7889109367933689,0.8050068890857202,LF
0.7430554412698411,0.722899801194167,0.8359557918420376,0.5890052161662919,0.30563799862722113,0.490090074885968,0.7959177990729948,0.1969018766897388,0.8243467516237629,0.789106612175926,0.21258677021000752,0.823519069119044,0.1748121794290074,0.4607270405260091,0.7530456910355214,0.5616438038348134,0.2143623215256155,0.4708029320095639,0.5075297459755445,0.8092247583932316,0.8397677081629312,0.48290274895720675,0.790804643255966,0.8130154512351143,LF
0.7748014730158729,0.7262873260448962,0.8304196275742919,0.5628271977950848,0.32344215694401507,0.5081080969442422,0.7956885384215789,0.1963499907383061,0.8244444010447018,0.7791436978673861,0.18917550791722182,0.8254592137649308,0.18107782686589713,0.4665886906023541,0.7153933384438831,0.5694716047255877,0.22186500102392046,0.48175184296446305,0.5078031207542508,0.8089723220821363,0.8392633186106113,0.4951897789345971,0.7776139469594141,0.788583800807007,LF
0.7405752888888889,0.7242548666358078,0.8312937273672719,0.5471203919163398,0.3249258290292677,0.4936936840183433,0.7955421952527264,0.19638918816917467,0.8244015612987414,0.7865169177138627,0.21630123554915656,0.8203657523700458,0.18233100768159027,0.48300102270355805,0.743078758408593,0.5792563430210522,0.24437304724123826,0.48175184296446305,0.508238297171559,0.8090155282970307,0.8389797698893069,0.5000051636650342,0.7869867436457941,0.7984524161007776,LF
0.739087238095238,0.7215447357525261,0.8429487095332016,0.5549737991423616,0.3575667703944295,0.4990990859151051,0.7956059303326072,0.19653973405410358,0.8245107606511893,0.7949489604922212,0.2132894012489047,0.8271976351641859,0.18609029348709372,0.48300102270355805,0.7165005738028386,0.6262230714576775,0.2540193527629459,0.5328467328646975,0.5089900778130018,0.8088863097098931,0.8385135503571622,0.505670950609366,0.7773066634821714,0.7824648164550735,LF
0.7281745269841269,0.7120595551677863,0.8275058820328094,0.5732984068582273,0.35311574442057136,0.48108106385683097,0.7954790789600289,0.19691505812666807,0.8242848019911243,0.7811218205062095,0.22578463723455894,0.8130954199515824,0.18421065058434208,0.4431416101093705,0.7397565987326441,0.616438333162213,0.23043949388494506,0.5036496768268165,0.5088245707933632,0.8086766795561466,0.8384481160368614,0.46745413151961673,0.7778719684151995,0.8043130597382143,LF
0.7351190349206349,0.708672030317057,0.8275058820328094,0.5837696142067101,0.339762627626596,0.4846846729892062,0.7953482054707591,0.19709925136375833,0.8240716532550962,0.7781138551342605,0.2197352348129738,0.8133740286884044,0.1904762980212318,0.4712777225508679,0.7497235313595725,0.5459882443526761,0.2122186948001762,0.5255474867840598,0.5087154679072831,0.8084666493448551,0.8383526909864224,0.48413312569464645,0.7812026387489931,0.7994562543056785,LF
0.7227180698412699,0.7079946363496097,0.8263403360772873,0.6034031194118169,0.32937686472122607,0.527927910586723,0.7953574872785089,0.1974430093636765,0.8239170941716316,0.7797233018425133,0.22995709944004514,0.8105389774027475,0.1754386415160659,0.48182888476333047,0.7685492540563098,0.5362035047754113,0.18971064928489498,0.5218978338623533,0.5088237473753551,0.8085494612567359,0.8386144282676266,0.4954230341482072,0.7983290917183737,0.8162139553193586,LF
0.7460317460317459,0.7147696860510679,0.8245921364913271,0.5994764200854552,0.3412463094299489,0.5333333136636649,0.7952569343612212,0.19746486279858558,0.8238599745103511,0.7758928366027678,0.21276918716957288,0.8145113269525122,0.16917299407917613,0.4431416101093705,0.7685492540563098,0.493150661402569,0.20257238857643192,0.5474452967413032,0.5080740252789329,0.8086100699748514,0.839225148590436,0.46721197343525817,0.7955397459373518,0.8282280287373287,LF
0.735614984126984,0.7235771951616145,0.8336246999309933,0.5981675174522352,0.29228488766410593,0.5027026832456793,0.7954363826443807,0.19738230537781806,0.8238606045066152,0.7891926564773881,0.2194228457697182,0.8209887271708265,0.1785714652345108,0.46893296648280924,0.7508307667185282,0.5420743605706934,0.19292608235268766,0.5364963857864039,0.5080559100827534,0.8084914529126648,0.8393342057909374,0.4882309390427563,0.7891414458749062,0.8078215726798543,LF
0.7152776126984127,0.7276423914865371,0.8336246999309933,0.5850785082666317,0.29821960515941714,0.4990990859151051,0.7956733781355879,0.1976917222657363,0.8238053748341273,0.7955001817984634,0.2362798015564076,0.8187584409645892,0.17982464605020398,0.4865179167118443,0.7585827750284633,0.5479451856027673,0.24124442732099102,0.5437956438195967,0.508330519988472,0.808671278779285,0.8394459894214514,0.49979256311156045,0.7934984393048025,0.8073024308631042,LF
0.7460317460317459,0.722899801194167,0.8409090637846993,0.606020924678257,0.2715133715714664,0.5009008904812927,0.7959406941987772,0.19727789452214164,0.8239355740620459,0.7923924289380132,0.20858011199098345,0.8272421478164015,0.17919818396314532,0.4806562666354993,0.7419715230496372,0.5459882443526761,0.1939979027357736,0.5109489264932207,0.5085989542591296,0.8085398598756481,0.8392987622007747,0.5000375701145585,0.7883909900989657,0.8003149296329098,LF
0.7415673904761905,0.732384981778907,0.8222610445802829,0.6047120220450369,0.28635017016879466,0.527927910586723,0.7960028823106997,0.19717244302670767,0.8239051242426132,0.782522430524455,0.2196391401646313,0.816395628452892,0.16165416582659325,0.49355218491602043,0.6998893218240125,0.5048923499207271,0.21114688143745652,0.5255474867840598,0.5093882004199431,0.8085372595016036,0.8389061562789681,0.5311972616194037,0.7909243592628289,0.7868984351933862,LF
0.7375991873015872,0.7364499005970836,0.8382867644057589,0.5772251078992486,0.3011869600198327,0.5333333136636649,0.7962374026531738,0.1971138203203644,0.8241178529811318,0.797934219729062,0.2180866415409022,0.8273965257874946,0.1660401703607312,0.4806562666354993,0.7464009180845419,0.5401174193206023,0.2175777545934081,0.5054744889446037,0.5097381530734075,0.8087220860875403,0.8389797698893069,0.5056713067241958,0.7983763089012049,0.8106485582127744,LF
0.7460317460317459,0.7411924908894535,0.8426573827179825,0.5903141102262134,0.3382789458232431,0.5333333136636649,0.7966120782926671,0.1970898856059403,0.824436421092023,0.8015776581191015,0.21051894367550633,0.8327068851968118,0.16666663244778984,0.47245034067869907,0.7508307667185282,0.5322896209934286,0.22829586715950578,0.5164233927279698,0.5098530198855448,0.8089337165290131,0.8391706199901849,0.49740944266960774,0.7977137811862057,0.8142899320932979,LF
0.7524801015873015,0.7350948351554427,0.8420746097402214,0.5759162112673376,0.3249258290292677,0.5207450288158675,0.7968103995849174,0.1968723918966076,0.8246987095366525,0.7971114210963299,0.204686161393405,0.8318777358841781,0.16729335117642435,0.5111371351450555,0.7441859937675488,0.5440313018207845,0.2540193527629459,0.5255474867840598,0.5107896578698176,0.8093465759157807,0.8391215442499591,0.5306616649151752,0.8022447717937786,0.8023545910835543,LF
0.7723213206349206,0.7364499005970836,0.8324592733227941,0.5523559938759215,0.35905046191588263,0.4792792592906433,0.7966430176518325,0.1965660969279621,0.8247848090260825,0.7856770894797995,0.19191664847926154,0.828873536520102,0.17355899861331422,0.47713937262721307,0.7386489097746066,0.5929549689439003,0.27331195819006815,0.5127737386110078,0.5112540656264152,0.8095826098675181,0.8390424777795958,0.5010510729205655,0.7906654083349407,0.8028097628186202,LF
0.7326388825396825,0.7079946363496097,0.8292540816187698,0.5301046834043746,0.35459942622392426,0.4414414342115093,0.7962389496211318,0.19686302613878942,0.8244616209425879,0.7797833535945754,0.22105254585669198,0.8140020617451187,0.17731828441881767,0.46541607247452293,0.7109634898098968,0.6536203361213773,0.27759920462058046,0.4890511129502108,0.5118761579315739,0.8095658074506148,0.8385817111074757,0.4974411368894722,0.7787659346838389,0.7888839681133746,LF
0.7351190349206349,0.6991871272390632,0.8315850541824912,0.5431936925899781,0.363501497607841,0.4594594444679825,0.7958726276086132,0.19709717008424327,0.8242003824917318,0.7773705279744066,0.21706315209991242,0.8138869358400702,0.18107782686589713,0.45838228445795026,0.7342195147397023,0.6399217230165326,0.2679528983968362,0.5346715772543833,0.5121252418790397,0.8095708081699313,0.8385244560772128,0.4830975437691834,0.7811842352013542,0.8000073811632713,LF
0.7499999492063492,0.7222224072267196,0.8365384454724758,0.540575887323538,0.36795254301789965,0.45045043343884533,0.7957043174947533,0.19714816143236424,0.8241367528690555,0.7877555971369954,0.20672011049255837,0.8248077104006847,0.1729325365262556,0.4478311222454879,0.726467506429767,0.5909980315392102,0.27331195819006815,0.4908759334347866,0.5120758367985506,0.8096234157371405,0.8383963138666229,0.48109083670247643,0.7827660108261937,0.8032354099006005,LF
0.7534722031746031,0.7154470800185153,0.8484848738009473,0.5445025952231981,0.36053414371923553,0.44324322697589585,0.7956922511446789,0.1969806184313951,0.8242098324356937,0.7936388762494724,0.19916316219799407,0.8315839523795554,0.18483711267140057,0.4618991784662367,0.7685492540563098,0.598825819611981,0.2497321063324336,0.5109489264932207,0.5118963316727736,0.8097044273900673,0.8385898903975136,0.4739514465918565,0.7884119961684929,0.814801692746777,LF
0.7366070857142856,0.7168021454601562,0.8327506001380133,0.5719895098833843,0.378338286487069,0.466666662732733,0.7956458421059308,0.19730425739600013,0.8240766932252092,0.7854010306792749,0.2179635100931955,0.818980397234955,0.16729335117642435,0.4712777225508679,0.7342195147397023,0.5851272065071363,0.2497321063324336,0.5310219243326768,0.5122956894067272,0.8098768521920992,0.8386444189977648,0.5007911090947098,0.7926306841494668,0.8055900009841551,LF
0.7450396444444444,0.76422777087711,0.8350815727017344,0.5510470998159999,0.37388725079511065,0.4774774665262567,0.7959094454460202,0.19760222724658513,0.8242566621579935,0.8056940414022473,0.21703285785484175,0.8330225203670676,0.17794500314745218,0.4384525781608565,0.7032114814999615,0.6066536205027554,0.2647374653290435,0.5364963857864039,0.5122536950883115,0.8096596209449918,0.8383826817165606,0.47766109477533253,0.7717649649098256,0.7904733786044676,LF
0.7400793396825396,0.7147696860510679,0.8336246999309933,0.5824607115734901,0.4065282018783727,0.4792792592906433,0.7958945945536209,0.19801362683074544,0.8241596427333187,0.7844617137216461,0.2146070380371935,0.8196173328221124,0.18233100768159027,0.4607270405260091,0.7685492540563098,0.6262230714576775,0.26902471175955583,0.5182482048457571,0.5122009963357899,0.8098470479049731,0.8386389661377395,0.4743552808090075,0.7898965490113614,0.816573171931896,LF
0.7251984253968253,0.7398374254478126,0.8301281814117498,0.568062809185295,0.38724035787098576,0.48108106385683097,0.7960378437865567,0.19864356076399609,0.8241014730782648,0.7956985617157233,0.23126919857063286,0.8208375864835309,0.1904762980212318,0.4525206343816053,0.7109634898098968,0.5831702306484359,0.24651666835038455,0.5383212062709797,0.5121091852278808,0.809467193265694,0.8382327280658705,0.4802087402687171,0.7677234343116783,0.7837023914968999,LF
0.7524801015873015,0.7222224072267196,0.8374126646127787,0.5719895098833843,0.35311574442057136,0.47567566196006905,0.7960362968185984,0.19853741550872364,0.8241254129363014,0.7879115524333957,0.2044408757317038,0.8257629114511833,0.18859665511848,0.45955442239817795,0.7519380020774837,0.5812132804257423,0.2400857994066527,0.5164233927279698,0.5118864506566757,0.8093539769803693,0.8382163694857955,0.4748716473124192,0.781007263712948,0.8043499655545715,LF
0.7440475428571428,0.719512276343438,0.8490676467787083,0.5431936925899781,0.35459942622392426,0.47567566196006905,0.796087656154813,0.19849683055817835,0.8242680020907476,0.7978398100094022,0.20705432442204777,0.8314856198842064,0.18671675557415235,0.4665886906023541,0.7297896661057159,0.5812132804257423,0.24866029296971395,0.5182482048457571,0.5119741446745439,0.8092059556886017,0.8379464529145534,0.4880984643260189,0.7776239852581263,0.792493356953056,LF
0.7336307809523809,0.7120595551677863,0.8269231090550484,0.5746073034901384,0.3768546144018164,0.4360360323147474,0.7959230587640529,0.1988836016680762,0.8239313740869517,0.7794176653133611,0.2216017512028118,0.8135447954087223,0.18107782686589713,0.43962471610108417,0.7486158424015351,0.5772994056163621,0.23687036493478678,0.5109489264932207,0.5114772119066244,0.8090987402664567,0.8380773215551559,0.4636896416523301,0.7816852206648566,0.8115416789686051,LF
0.744543492063492,0.7242548666358078,0.8417832829250023,0.569371705817206,0.3620178060863879,0.48108106385683097,0.7960356780314152,0.19893077733708608,0.8240174735763817,0.7939860411046774,0.2096746137483754,0.8279072073065497,0.18421065058434208,0.47245034067869907,0.763012170063368,0.5949119063485905,0.2615220252408846,0.5145985806101826,0.5115562600354069,0.809259763428447,0.8381836523256446,0.4845793375765603,0.7892375532903536,0.8099768723550833,LF
0.7351190349206349,0.7140922920836205,0.8414918367624604,0.5589004984687233,0.32640951083262054,0.47567566196006905,0.7960393907545148,0.19892314597886393,0.8240044536535899,0.7915122674376396,0.2159064331295258,0.823890142774332,0.18609029348709372,0.46424393453429535,0.7397565987326441,0.5694716047255877,0.25294753940022624,0.5109489264932207,0.5114813289966651,0.8091857527825633,0.8380227929549048,0.48361248581327554,0.7802898971438735,0.7985262277334906,LF
0.7375991873015872,0.7262873260448962,0.8286713086410087,0.5706806024491171,0.3204747933373093,0.48828827031978045,0.7959908159606253,0.19896477156916687,0.8239212941467258,0.785955538399809,0.21984989690184337,0.8186380544733699,0.17355899861331422,0.46307131640646426,0.7209304224368249,0.5557729788027395,0.2336549269527377,0.5273722953160804,0.5116081353699204,0.8091049411584091,0.8378782921642399,0.4946438549003003,0.7835121910304604,0.7967449069973428,LF
0.7559523555555555,0.7249322606032553,0.8219697177650638,0.5484292945495598,0.31454007389837796,0.4990990859151051,0.7956155215339484,0.1987046116297737,0.8238211247407303,0.7758599724598482,0.20701979549755853,0.8166499575612327,0.17731828441881767,0.47831199075504416,0.7452936827255862,0.5380733797370694,0.22722406081715238,0.494525586356493,0.5117300012351269,0.8091415464238056,0.8377828671138009,0.4981551471235003,0.7901410001744433,0.8036930420234228,LF
0.7509920507936507,0.7120595551677863,0.8362471186572566,0.5510470998159999,0.3011869600198327,0.5153152998666514,0.7954094654019068,0.19832859379737075,0.8238841243671425,0.7829980643019819,0.20462036099013317,0.8223761056082908,0.16917299407917613,0.46307131640646426,0.7862681949931735,0.5185910014795821,0.25187572603750663,0.4708029320095639,0.5113001770348717,0.809577409119429,0.8382654452260213,0.4783597920716732,0.8039274880890009,0.8333161106190333,LF
0.7395831873015873,0.7066395709079688,0.831876500345033,0.5575916044088017,0.3338279101312847,0.5423423246928021,0.795174945059433,0.19834073459454246,0.8238946243048779,0.7797421240334582,0.21443927958330752,0.8164872840504087,0.18922311720553867,0.4759672346869854,0.7131784141268899,0.5557729788027395,0.2593784125561779,0.48540149588616954,0.5115319692041664,0.8093675789369099,0.8376192813130484,0.49927156711535947,0.7731145584033424,0.7803808680248009,LF
0.7430554412698411,0.7012195866481513,0.8374126646127787,0.5562827017755816,0.3471810269252601,0.5261261095610756,0.7949719828633077,0.19829598708496682,0.8239219241429899,0.7811006081957794,0.20911335585314134,0.8194129792823954,0.18609029348709372,0.47362247861892665,0.7419715230496372,0.5499021281346588,0.2593784125561779,0.5182482048457571,0.5115377331302234,0.8093695792246366,0.8374720540923717,0.49064575370457353,0.7825144956751291,0.7976109634878458,LF
0.7227180698412699,0.728997456928178,0.8304196275742919,0.5837696142067101,0.32195847514066217,0.5099098944293492,0.7951359614668845,0.1986116478114305,0.8238805543883125,0.7918627187071366,0.23160666994582868,0.8181160424610237,0.1748121794290074,0.4665886906023541,0.7818383463591871,0.5185910014795821,0.2250804340917131,0.5000000227098546,0.5111359051422454,0.8095954117089683,0.837916462184416,0.4794217264945517,0.7996015390273439,0.8268452908178329,LF
0.7499999492063492,0.7350948351554427,0.8330419269532323,0.5811518089402701,0.32937686472122607,0.5207450288158675,0.795253531031713,0.19849266799914797,0.82402230354774,0.7904438840278174,0.20963975907931554,0.8255302316782384,0.17355899861331422,0.45603752838989153,0.7441859937675488,0.5380733797370694,0.19078246264761461,0.5237226423943739,0.510900819300918,0.8094333884031149,0.8380609629750808,0.48230340769841923,0.788455495462912,0.8101909260899514,LF
0.7619047619047618,0.6903793406217706,0.8382867644057589,0.5772251078992486,0.3130563979258853,0.5603603467510763,0.7949893089044403,0.197919969252564,0.8241552327594697,0.7731313523027158,0.19227073282756058,0.8202613499675766,0.1829574697686489,0.5005859729325931,0.7087485654929035,0.4833659231071045,0.21543413488833513,0.529197103848101,0.5113734612375972,0.8092019551131485,0.837477506952397,0.5238741162565351,0.7802871087275647,0.7766386182462354,LF
0.7648808634920635,0.7147696860510679,0.8310024005520529,0.5549737991423616,0.33086054652457897,0.5297297127925503,0.7946901253013107,0.1975207104655753,0.8242337722937303,0.7768832423643898,0.19547443067992662,0.8216254604277464,0.18546383140003522,0.4806562666354993,0.7464009180845419,0.5381604466023125,0.2400857994066527,0.5200730133777777,0.5114385112602412,0.8091877530702898,0.8373629968918695,0.49547467079854834,0.7853562636827588,0.7987550437949017,LF
0.7485118984126984,0.6991871272390632,0.8330419269532323,0.6047120220450369,0.31454007389837796,0.4738738573938814,0.7946217493175549,0.19726332556553566,0.8240741732401528,0.7755492569267903,0.20586959141858505,0.8168692835385131,0.16979945616623476,0.4279014159483941,0.6888151538381286,0.5909980315392102,0.2229368073662738,0.560219004275668,0.5113388776812549,0.8088080984597835,0.8372048639511422,0.47762014156988947,0.7717052928008147,0.7904167896860543,LF
0.7470236444444445,0.7073172423821624,0.83886953738352,0.6138743233309804,0.2878338519721475,0.466666662732733,0.7947888218570482,0.19688210453434493,0.8240052936486086,0.7839579960401696,0.20630771786611246,0.8223955293110757,0.1660401703607312,0.4431416101093705,0.7220376577957807,0.5949119063485905,0.20150057521371226,0.5802920057008906,0.5113660504755239,0.8086402743195229,0.8374638748023338,0.48220618834984585,0.7853685327145181,0.8061017616376343,LF
0.7470236444444445,0.7391600314803654,0.8417832829250023,0.6374345364357472,0.2952522415527114,0.5045044878118671,0.7954054432852153,0.19662021019535578,0.8242323023024474,0.7997997079871519,0.209729338836245,0.8318055039894465,0.1685465319921175,0.45955442239817795,0.7275747417887227,0.5264187651981465,0.19506970907812696,0.5693430947459914,0.5113112931779817,0.808518256768201,0.8376165548830365,0.49252105439903304,0.7880007977101376,0.803921858084834,LF
0.7465276952380951,0.7188346048692443,0.8397436371765001,0.6020942253518954,0.33531158221653734,0.5333333136636649,0.7956012894287324,0.19652794013685104,0.8243988313149303,0.789632737227575,0.20800321835635807,0.8255955843449003,0.17355899861331422,0.4079717096513003,0.7408638340915998,0.5146770882161915,0.22615224745443274,0.5401460148030003,0.510032936720326,0.8082906240249155,0.8380745951251433,0.4446702608149403,0.7790929229696648,0.8188933175868514,LF
0.739087238095238,0.7079946363496097,0.8490676467787083,0.5785340045311598,0.3516320626172185,0.5477477265895639,0.7957866161901332,0.19668022042137587,0.8246903095864642,0.7940425076775118,0.2094410548912176,0.8280330567141773,0.17982464605020398,0.47245034067869907,0.7785161866832382,0.5185910014795821,0.26902471175955583,0.5437956438195967,0.5097315657293424,0.8086532761897457,0.8385190032171875,0.4824647277163816,0.7963963474274518,0.8208025784863692,LF
0.7534722031746031,0.7215447357525261,0.8394521910139581,0.5863874108998517,0.378338286487069,0.5225225063296008,0.7958896442561544,0.1967128271337798,0.8248528486226077,0.7890372987108591,0.20289098306453984,0.8270993026688371,0.20175441207931827,0.47245034067869907,0.732004590422709,0.5264187651981465,0.2808146447087394,0.5310219243326768,0.5095207707192555,0.8084562478486769,0.838069142265118,0.4843510679705693,0.7689562861090617,0.7830479283535084,LF
0.744543492063492,0.7208673417850787,0.8327506001380133,0.569371705817206,0.3560830983091769,0.5207207037815212,0.7958255997826817,0.1968089128713956,0.8248839284383044,0.7853574109986727,0.21215678737674645,0.8211477587373784,0.17982464605020398,0.45017587831354655,0.759690010387419,0.5459882443526761,0.2615220252408846,0.5237226423943739,0.5090662439787558,0.8085946677593567,0.8383390588363601,0.4696862592736753,0.78732934706295,0.815741560869993,LF
0.7346228825396824,0.7303522448630725,0.8356643456794955,0.5575916044088017,0.3412463094299489,0.48108106385683097,0.7958707712470634,0.19703022225983938,0.8248583085902301,0.7939152338149326,0.22049454540716443,0.82376995861335,0.1748121794290074,0.48300102270355805,0.7475086070425794,0.5283757384932463,0.24437304724123826,0.5054744889446037,0.509300918111079,0.8087790942877481,0.8383090681062219,0.5026870644493058,0.7932402319545965,0.805371026473772,LF
0.7420633396825396,0.7215447357525261,0.8377039914279979,0.568062809185295,0.3249258290292677,0.4918918794521556,0.7958995448510872,0.19697749651212237,0.8248822484482667,0.7901406376181505,0.21262292785734993,0.8242037546422145,0.1879699363898455,0.4806562666354993,0.7785161866832382,0.5499021281346588,0.22829586715950578,0.5018248348276417,0.5092165177652433,0.8088745080123063,0.8384562953268994,0.48481544170880997,0.7923624385005489,0.8140488140931007,LF
0.739087238095238,0.7215447357525261,0.8377039914279979,0.5876963135330718,0.3100890359712566,0.5099098944293492,0.796043722264798,0.1969039579692539,0.8249385281145283,0.7907970241817351,0.21500933258194924,0.8237462859755809,0.17731828441881767,0.4407973342289153,0.7696569430143474,0.5479451856027673,0.2207931876612008,0.4890511129502108,0.5085660175388035,0.8088793087028501,0.8387889197884288,0.460518439091722,0.789963656897196,0.8244833185710067,LF
0.7723213206349206,0.728997456928178,0.831876500345033,0.5824607115734901,0.29080120586075303,0.5045044878118671,0.7959790590041425,0.19621470756982173,0.8250380675242596,0.7820205054325923,0.19109479492750558,0.8267039493850679,0.17669182233175904,0.4618991784662367,0.709856254450941,0.5616438038348134,0.2175777545934081,0.4963503972790247,0.508785046728972,0.8086316730822986,0.8383663231364847,0.4952360738624892,0.7782984102160436,0.7894695403995667,LF
0.7400793396825396,0.7364499005970836,0.8435314825109627,0.5981675174522352,0.3041543177956783,0.4846846729892062,0.7963905524810425,0.19611341863341802,0.8251869566413472,0.8015361297930486,0.2143584949297858,0.8312343257294259,0.17982464605020398,0.4407973342289153,0.7519380020774837,0.598825819611981,0.21972137429848115,0.5456204762567274,0.5084684425048376,0.8085058549842962,0.8386553247178145,0.46434204402077855,0.7836084843403284,0.8137535675622475,LF
0.7311506285714285,0.7344174411879951,0.8292540816187698,0.5863874108998517,0.2952522415527114,0.490090074885968,0.7965294702036954,0.1962136669300641,0.8251056871232754,0.7913410751295221,0.22600125737404278,0.8199252794433491,0.18107782686589713,0.4384525781608565,0.6965671621480639,0.5792563430210522,0.23151130724766472,0.5273722953160804,0.508367985507843,0.8080975962592998,0.8382409073559084,0.47797198302186944,0.7679561741262628,0.785249975396122,LF
0.7465276952380951,0.7703251491043748,0.8286713086410087,0.569371705817206,0.30712167945876395,0.4918918794521556,0.7968156592759756,0.1962223389280439,0.8252545762403629,0.802892821365756,0.2188426946893863,0.8304507007201946,0.18107782686589713,0.46893296648280924,0.7563678507114701,0.5929549689439003,0.24222942121783558,0.5000000227098546,0.5085166124583144,0.8081912097249041,0.838276350946071,0.4852972650737176,0.7889403081118227,0.8091772463340224,LF
0.7380951365079365,0.7215447357525261,0.8490676467787083,0.5968586148190151,0.3011869600198327,0.4864864657535928,0.797180434320536,0.19605479592707478,0.8253935954159792,0.7999840459524373,0.2120789344243605,0.8310475749203577,0.18045110813726262,0.47831199075504416,0.7397565987326441,0.5185910014795821,0.23258312061038436,0.5200730133777777,0.5086071884392112,0.8081912097249041,0.8381536615955072,0.49809211479860105,0.7865437572415171,0.7989075878358427,LF
0.7380951365079365,0.7310299163372661,0.8292540816187698,0.5968586148190151,0.3160237547299209,0.5261261095610756,0.7972964569174062,0.19613561894824613,0.8254087153263182,0.7883304208731524,0.2199274241096587,0.820213802361801,0.18170428895295576,0.5216882973575181,0.7441859937675488,0.5009784622933433,0.22722406081715238,0.529197103848101,0.5093976697270368,0.8083378308152628,0.8378891978842904,0.532055498359557,0.7944018861888923,0.7910909359315026,LF
0.7415673904761905,0.7208673417850787,0.8324592733227941,0.5876963135330718,0.3130563979258853,0.5171171020724789,0.7973091420546642,0.19608670887964022,0.8254057753437523,0.785786437446241,0.21464580164110117,0.8204984810057432,0.18922311720553867,0.46776082854258166,0.723145346753818,0.5048923499207271,0.21114688143745652,0.5018248348276417,0.5092111655481905,0.8079829797725663,0.8374529690822841,0.4896796141709487,0.7743650701706823,0.78728717645901,LF
0.73015873015873,0.7147696860510679,0.8371212184502368,0.5785340045311598,0.2685460079647606,0.49729728134891754,0.7973484350408042,0.19594934443164067,0.8253490756799813,0.7894454116129332,0.22139848659072478,0.8204066230779893,0.1660401703607312,0.4572096663301191,0.6722039018593027,0.5029353996980335,0.19185427601033428,0.5109489264932207,0.5094306064473629,0.8075625192924376,0.8368531544795244,0.5074721794191981,0.7747472690994248,0.7780951677984449,LF
0.7162697142857143,0.7276423914865371,0.8432401556957436,0.6086387213713985,0.23738874840295168,0.5045044878118671,0.7978236635975852,0.19588204972731774,0.825413125300167,0.8027999054707743,0.23223731143461174,0.8252526345926031,0.1629073466422864,0.46893296648280924,0.732004590422709,0.48532289896580505,0.24124442732099102,0.5072993013970624,0.509447898225534,0.8077831510286801,0.8369076830797755,0.5017885867333693,0.7945338712275143,0.807600137781714,LF
0.7455355936507936,0.7242548666358078,0.8307109543895109,0.5929319154926534,0.2804154526734834,0.5315315138181977,0.7978289232886434,0.19563160242566194,0.8254509250760144,0.7849451153874996,0.2124978419422194,0.820740467969606,0.16917299407917613,0.45017587831354655,0.7275747417887227,0.4892367865931887,0.1736334699051991,0.4726277763992497,0.5090699493597926,0.8075319148902208,0.836798625879274,0.4846345353752008,0.7859624653883178,0.8055506347800414,LF
0.739087238095238,0.7079946363496097,0.8458624550746839,0.5562827017755816,0.2967359233560643,0.5387387155604269,0.7977828236434868,0.1954182712753595,0.8256168240922331,0.7915185415012878,0.21047887709331609,0.8259403550693335,0.15789488002108967,0.46776082854258166,0.7419715230496372,0.5459882443526761,0.21543413488833513,0.4890511129502108,0.5093383836304499,0.8077691490145941,0.8369785702601016,0.5006803573825988,0.8002986431045737,0.8159777580946758,LF
0.7450396444444444,0.728997456928178,0.8344989190712964,0.5903141102262134,0.32344215694401507,0.5297297127925503,0.7978889456454243,0.1953887864822283,0.8257214034720775,0.7901014994115825,0.2123157507272248,0.824292982276883,0.1785714652345108,0.45955442239817795,0.7397565987326441,0.5499021281346588,0.2390139867459697,0.4835766754015939,0.5092251636543291,0.8077619479787783,0.8368776923496373,0.4837738058312379,0.7845401871763485,0.8041211494931603,LF
0.748015746031746,0.728997456928178,0.8432401556957436,0.5785340045311598,0.3338279101312847,0.527927910586723,0.7980588027272426,0.19529408826428918,0.8259471521333878,0.7964039457287521,0.20706377101459666,0.8305146370751951,0.1704261748948693,0.4712777225508679,0.7563678507114701,0.5733855179889783,0.2390139867459697,0.5218978338623533,0.5094511918975667,0.8080109838007384,0.8371503353508919,0.4928996044632585,0.7964980316755169,0.8151387658695012,LF
0.7455355936507936,0.7242548666358078,0.8429487095332016,0.5719895098833843,0.3382789458232431,0.5189189019179461,0.7981568804957969,0.19527327546913778,0.8261107411633049,0.7946941140021266,0.2084993273374616,0.8288249772631395,0.18859665511848,0.46307131640646426,0.7131784141268899,0.5518591039933592,0.24115760806572692,0.5328467328646975,0.5094672485487256,0.8077235424544279,0.8367468237090355,0.4890909563570593,0.7713623175948178,0.7836261194764297,LF
0.7524801015873015,0.7283197854539843,0.8403264101542611,0.5903141102262134,0.32789319263597344,0.48828827031978045,0.7983056988133826,0.19509359167099682,0.8262031406153761,0.7928304183336505,0.20433044832225267,0.829123819023696,0.19172947883692495,0.4525206343816053,0.7209304224368249,0.5714285421302778,0.2433012338785186,0.5383212062709797,0.5092914488039852,0.807410497425217,0.8364741807077817,0.4766162538642911,0.7694764186978855,0.7880154512351144,LF
0.7519839492063491,0.7174798169343497,0.8237179173510241,0.5732984068582273,0.32195847514066217,0.5027026832456793,0.7979981615832782,0.1949839776165326,0.8260420715705157,0.7749980356205481,0.20862441325259212,0.8154645047006374,0.18546383140003522,0.4243845219401078,0.7308973550637533,0.5694716047255877,0.22722406081715238,0.5127737386110078,0.5085940137510806,0.8070786496913761,0.8364550956976933,0.4542860734529571,0.7714441111398793,0.8031689794311584,LF
0.7420633396825396,0.7120595551677863,0.8379953182432169,0.606020924678257,0.32640951083262054,0.47567566196006905,0.798105830553174,0.19495553346315891,0.8259530320985197,0.7863540908239428,0.21121505982299046,0.8221760010035581,0.18233100768159027,0.47831199075504416,0.7109634898098968,0.5733855179889783,0.20793144836966385,0.5182482048457571,0.5091090617151797,0.8068046102728336,0.836007961175637,0.5053458177696315,0.7775765821808747,0.7830011809861231,LF
0.7371030349206349,0.7296748508956252,0.8315850541824912,0.6138743233309804,0.3175074355614637,0.4864864657535928,0.7983248812160653,0.1950627193581889,0.8258755425580326,0.7898332084993843,0.21976096863405528,0.8212928295175537,0.16666663244778984,0.45486539044966395,0.759690010387419,0.5440313018207845,0.2390139867459697,0.5328467328646975,0.5089015603771254,0.8070838504394653,0.8364932657178693,0.4806090133375688,0.7969618382549005,0.8226035823245741,LF
0.7519839492063491,0.7262873260448962,0.8347902458865154,0.6007853227186754,0.3086053602903069,0.5549549330525134,0.7984149147512367,0.19483343173160367,0.8260479515356474,0.7876507306445885,0.20624973533253632,0.8249125174636287,0.16228088455522777,0.46541607247452293,0.7242525821127739,0.5185910014795821,0.23579855157206714,0.5547445428219409,0.5090617151797109,0.8072426732849562,0.836648672228584,0.5014324719034302,0.7922730232842428,0.8047583899222513,LF
0.7495037968253967,0.7235771951616145,0.8269231090550484,0.6007853227186754,0.3130563979258853,0.5387387155604269,0.7983697432868552,0.1947210426377859,0.8260508915182133,0.7807304384405307,0.21043946200026714,0.8186645597344618,0.1660401703607312,0.49706907892430685,0.7275747417887227,0.5342465635253201,0.27759920462058046,0.5273722953160804,0.5098209065832269,0.8076559327292692,0.8365505207481323,0.5242943317558634,0.7961061662369036,0.7975150083653181,LF
0.7306546793650793,0.7398374254478126,0.8371212184502368,0.5785340045311598,0.33234422832793187,0.5495495311557514,0.7986064293844706,0.19501242176990616,0.8262411503899783,0.7999998804940258,0.22452726319184071,0.826334089711204,0.18546383140003522,0.4865179167118443,0.7519380020774837,0.5342465635253201,0.28403007777653205,0.5656934776819501,0.5099732389147349,0.8079105693568638,0.8366459457985713,0.49871246683235504,0.7878799663367512,0.8003567562247808,LF
0.7475197968253967,0.7310299163372661,0.8245921364913271,0.5850785082666317,0.35311574442057136,0.5081080969442422,0.7985102079774662,0.19517927101103705,0.8261577808843593,0.7824746281347538,0.21385587105726922,0.8185573247086698,0.1923559409239836,0.4712777225508679,0.7652270943803611,0.565557717098204,0.27759920462058046,0.5127737386110078,0.509804849932068,0.8080517896703608,0.8366977479688097,0.4785645580988881,0.7840849317403124,0.8064093101072728,LF
0.7723213206349206,0.7127372266419796,0.8353730188642765,0.568062809185295,0.35311574442057136,0.5135134976608241,0.798232063138569,0.19478799046218967,0.8262270804734129,0.7779456504754994,0.18779956285078622,0.8251494461715579,0.1904762980212318,0.5240325732379733,0.7574750860704258,0.598825819611981,0.2808146447087394,0.5383212062709797,0.5108880563217917,0.8083856376919282,0.8365123507279569,0.5257707838407911,0.7925451727159935,0.7919569924220056,LF
0.7341269333333333,0.7235771951616145,0.8362471186572566,0.5719895098833843,0.36053414371923553,0.5009008904812927,0.7982630024977344,0.1951241171038857,0.8262067105942061,0.7916045858027501,0.2197485903403705,0.8224938618064247,0.1898495792925973,0.4431416101093705,0.7242525821127739,0.5831702306484359,0.27867101798330013,0.541970823335021,0.5105640413355839,0.808218813695531,0.8363651235072794,0.4690278029531178,0.7700093780017302,0.7929534494636356,LF
0.742559492063492,0.7147696860510679,0.8347902458865154,0.5772251078992486,0.37388725079511065,0.5171171020724789,0.7981810131959459,0.1953634642481273,0.8261934806726595,0.7848399501301568,0.21223692054112692,0.8207677825516474,0.18859665511848,0.45955442239817795,0.6699889775423095,0.5342465635253201,0.26688108503411656,0.541970823335021,0.5107044341059739,0.8077731495900472,0.8355417416434917,0.49878226533902315,0.7595236314192504,0.7627202047042613,LF
0.735614984126984,0.7147696860510679,0.83886953738352,0.5850785082666317,0.3501483905319659,0.5063062923780546,0.7982370134360353,0.1955493918848136,0.8261884407025466,0.7896166039210507,0.21646378208991207,0.8223987665948732,0.17669182233175904,0.46424393453429535,0.7685492540563098,0.5518591039933592,0.25616297948838523,0.5456204762567274,0.5104969327679196,0.8080475890661349,0.836007961175637,0.4803009740096714,0.7943282719983368,0.8192180887707903,LF
0.7400793396825396,0.7222224072267196,0.8347902458865154,0.6020942253518954,0.3412463094299489,0.48828827031978045,0.7983641742022054,0.19567322801596473,0.8261283810587003,0.7885500131008425,0.21526504206991137,0.8221318930118172,0.17105263698192794,0.45369277232183286,0.693245002472115,0.5185910014795821,0.23258312061038436,0.5182482048457571,0.5105109308740581,0.8078329581930722,0.8356398931239434,0.49624067379774744,0.7763251409414319,0.7862956401928944,LF
0.7385910857142857,0.7249322606032553,0.8400349639917192,0.5876963135330718,0.2967359233560643,0.5333333136636649,0.7985241306890906,0.19556257332174284,0.8262655102455242,0.794192188910264,0.21511096488799275,0.8259996378288752,0.1785714652345108,0.47831199075504416,0.7131784141268899,0.5205479388842723,0.21864956795612778,0.49270077782447236,0.5107682490016056,0.8076557327004966,0.8352009378919243,0.5066331728798614,0.780691800881199,0.786443263458321,LF
0.7371030349206349,0.719512276343438,0.8365384454724758,0.5732984068582273,0.3115727170943424,0.5153152998666514,0.7985117549454245,0.19556118580206613,0.8262760101832597,0.789448996792161,0.21669929541449373,0.8221962340272924,0.17982464605020398,0.4572096663301191,0.7087485654929035,0.48727981073448823,0.23258312061038436,0.5000000227098546,0.5104821112437729,0.8074204988638499,0.8348301434102188,0.49015680804306716,0.7751179425740905,0.7880252927861432,LF
0.7237101714285714,0.7222224072267196,0.8315850541824912,0.568062809185295,0.3175074355614637,0.5513513357219392,0.7984764840759759,0.19586262445184305,0.8262825201446555,0.7896775519679198,0.22945056663268068,0.8174726323062714,0.1829574697686489,0.47948412869527174,0.7054264058169547,0.49119372399787886,0.25080391267478697,0.4872263044181902,0.5106229157231668,0.8072824790107154,0.8342357816674844,0.5075604958970229,0.7758791802264253,0.7795492569628972,LF
0.7465276952380951,0.7364499005970836,0.8266317822398294,0.569371705817206,0.32937686472122607,0.5423423246928021,0.7983861411472127,0.1959070250814994,0.8263394298071812,0.7866546483491893,0.21474938841456864,0.821046188958232,0.1754386415160659,0.4712777225508679,0.7353267500986578,0.5009784622933433,0.2658092786917632,0.5145985806101826,0.5105446910123923,0.8074603045896089,0.8342248759474346,0.496231414812169,0.7875001840354764,0.8012080503887412,LF
0.719246019047619,0.728997456928178,0.8382867644057589,0.5955497121857951,0.34569734512190725,0.5225225063296008,0.7986890374734423,0.1963978601671545,0.8263795395693304,0.798839178719093,0.23172980139353536,0.8227787427806043,0.1829574697686489,0.48182888476333047,0.743078758408593,0.5264187651981465,0.2615220252408846,0.5036496768268165,0.5106496768084317,0.8075865227451566,0.8341130923169205,0.4987131790620149,0.7863597217651286,0.7983220155496505,LF
0.7321427301587301,0.7452574097076301,0.8417832829250023,0.5824607115734901,0.3041543177956783,0.5225225063296008,0.7990538125180027,0.19646723615099262,0.826587228337736,0.8056644636736197,0.22252882025088852,0.830913429972999,0.18233100768159027,0.45369277232183286,0.7519380020774837,0.4735811848116401,0.2400857994066527,0.5072993013970624,0.5098950142039606,0.8075793217093409,0.8342630459676099,0.4734589397820506,0.7842109681574755,0.8094331266607613,LF
0.7237101714285714,0.7371272945645309,0.8374126646127787,0.5955497121857951,0.2952522415527114,0.5117116954549966,0.799388266990581,0.1966320041126083,0.8266342680587905,0.8006198177354634,0.22961181019515364,0.8247975938888175,0.18170428895295576,0.45955442239817795,0.7397565987326441,0.385518629878484,0.1736334699051991,0.5255474867840598,0.5089600230557041,0.8072560752127244,0.8343093952778231,0.4821135984940616,0.7824334457077499,0.802224190532428,LF
0.7380951365079365,0.7242548666358078,0.8412005099472413,0.6007853227186754,0.30712167945876395,0.5207450288158675,0.7996178370355885,0.19655048733159847,0.826741577422446,0.7949352173051822,0.21503115746818294,0.8265309570321392,0.19862158836087332,0.5287220853740906,0.7563678507114701,0.3581213011247669,0.17470529028828505,0.5036496768268165,0.5089246160813536,0.8070520458646125,0.8339058836359675,0.5258145859648736,0.7874589154741044,0.7851417183348097,LF
0.7465276952380951,0.7134146206094272,0.8321678271602522,0.5798429123083589,0.2937685694674588,0.5243243085354283,0.7994492175281369,0.19628685859301342,0.8267062976316552,0.7812915189896487,0.209714354585995,0.8193164677591825,0.1754386415160659,0.47948412869527174,0.7297896661057159,0.46379644651617563,0.17470529028828505,0.5218978338623533,0.5088962081600724,0.8068514170056358,0.8338213643055782,0.504493991096417,0.7874330761496418,0.7965997441196734,LF
0.744543492063492,0.7235771951616145,0.831876500345033,0.6099476240046187,0.27744808906677765,0.4990990859151051,0.7995373947017584,0.19600935465766076,0.8266449779952805,0.7858103386410915,0.21282065481173595,0.8212036018828852,0.1635338087293449,0.47245034067869907,0.7486158424015351,0.5362035047754113,0.2090032617323835,0.5310219243326768,0.5090995924080859,0.8070604470730642,0.8341758002072087,0.49968003082529966,0.7991923854076152,0.8150354295837019,LF
0.7450396444444444,0.7120595551677863,0.8452798014442457,0.5727813889463776,0.22997034910428754,0.4648648581665453,0.799543891967183,0.19538115512400614,0.826633848061281,0.791481793414205,0.20647515057542778,0.8274147355088556,0.18233100768159027,0.4525206343816053,0.7729791026902961,0.5616438038348134,0.1800643430611507,0.5930657251878104,0.5086471242126065,0.8069288281406547,0.834860134140357,0.4663391359870773,0.7895976307830453,0.820686940261785,LF
0.7430554412698411,0.7371272945645309,0.8412005099472413,0.6492146429881307,0.2507418554788268,0.452252249806834,0.8001184358668851,0.1949818963370174,0.8266407780201864,0.7993333359226296,0.21283238161627946,0.8303256606335162,0.18107782686589713,0.47831199075504416,0.7331118257816646,0.5185910014795821,0.24124442732099102,0.5857664432495077,0.5087714603318374,0.8069426301259681,0.8349419270407328,0.4996654301172722,0.7843371904690593,0.7950964472000787,LF
0.7455355936507936,0.7269647200123435,0.8417832829250023,0.5727813889463776,0.28338280656208886,0.4864864657535928,0.8001846460954991,0.19468531400610925,0.8267033576490892,0.7949220716480142,0.20925114580652726,0.8286973068833758,0.1879699363898455,0.4407973342289153,0.7441859937675488,0.5029353996980335,0.19078246264761461,0.5784671852163149,0.5079645106838485,0.8065811781337738,0.8351954850318991,0.4622210240936611,0.776077901362041,0.8048641865958072,LF
0.7460317460317459,0.719512276343438,0.8379953182432169,0.6439790410285489,0.3086053602903069,0.5225225063296008,0.8004717633485544,0.19452366796376627,0.8267720272418785,0.7886375512269828,0.20906253970011962,0.8245266737010147,0.18859665511848,0.46541607247452293,0.7497235313595725,0.49706457466595966,0.21114688143745652,0.5821168142329113,0.5075532133887768,0.8064139540798312,0.8354081465728774,0.48032376535878746,0.7814508078004868,0.8019043401240036,LF
0.7371030349206349,0.7269647200123435,0.8569347836101754,0.6465968377216905,0.32344215694401507,0.5315315138181977,0.8012071919159166,0.19448481741281687,0.8271277651323528,0.8086521130299456,0.21103199137428383,0.8372738833141289,0.19360912173967676,0.47010558461064034,0.7641198590214053,0.46379644651617563,0.21543413488833513,0.5711679152305671,0.5069224751945325,0.8062953370176446,0.8356535252740065,0.4772440843094738,0.7827210243764098,0.805319358330873,LF
0.7504958984126984,0.7310299163372661,0.8423659365554405,0.645287943661769,0.30712167945876395,0.5225225063296008,0.8016592159533235,0.19424581714849443,0.827318444001627,0.7960382574475375,0.2056334266048621,0.8308017436819854,0.1923559409239836,0.48769053483967545,0.7021042461410058,0.44618394578394716,0.1939979027357736,0.5766423766842942,0.5070175799744739,0.8058286698910317,0.8351191449915485,0.5104606950720474,0.7700010127528034,0.7702071646491488,LF
0.7380951365079365,0.7303522448630725,0.8414918367624604,0.6479057403549106,0.2744807351781721,0.5207207037815212,0.8021251627023548,0.19406890838970714,0.8274457032469799,0.7977588447118458,0.2157797184915421,0.8281524315542098,0.1748121794290074,0.46307131640646426,0.759690010387419,0.4892367865931887,0.2047160082815049,0.5437956438195967,0.5066482769978179,0.8058980798751443,0.8355172037733796,0.4829063101055061,0.7929996845743471,0.8159703769314042,LF
0.7514879999999999,0.6903793406217706,0.8365384454724758,0.6544502449477123,0.24629081978686843,0.5117116954549966,0.8021511517640538,0.19342405861993123,0.82732705395057,0.7739980693809859,0.2011625823726583,0.817571369462095,0.17167935571056245,0.47245034067869907,0.7353267500986578,0.4442269699252467,0.24124442732099102,0.5255474867840598,0.5064494215488492,0.8060591030371346,0.8355608266535801,0.4991483513842005,0.7902142425761576,0.8032452514516285,LF
0.7609126603174602,0.7378049660387245,0.8403264101542611,0.5727813889463776,0.2314540309076404,0.5063062923780546,0.8021796159744861,0.1926643915969033,0.827510172864675,0.7950556195742421,0.1988198274205265,0.832665812158631,0.17167935571056245,0.4841736408313892,0.7441859937675488,0.42661445637501477,0.17470529028828505,0.5328467328646975,0.5063345547367121,0.8060334993542342,0.8356753367141068,0.5062229285957716,0.7946396451528327,0.805319358330873,LF
0.7430554412698411,0.7262873260448962,0.8251749094690882,0.6505235456213507,0.24332346589826295,0.5135134976608241,0.802347926088346,0.19236087166761134,0.8273860636006429,0.7819260957129323,0.21660515523357518,0.8171454643124869,0.1754386415160659,0.4759672346869854,0.732004590422709,0.4618395347474924,0.17470529028828505,0.5164233927279698,0.5062921487092923,0.8058714760483806,0.8355799116636677,0.5009972995812446,0.7874215506955649,0.7984917823048913,LF
0.7514879999999999,0.7222224072267196,0.8324592733227941,0.6714659706062746,0.26112761838419674,0.5207207037815212,0.8026350433414011,0.19196577543965287,0.8273911035707558,0.7841626500210779,0.20684584789683017,0.8223328069374992,0.17669182233175904,0.5416180036546119,0.6954599267891082,0.5127201379934979,0.20042876887135888,0.529197103848101,0.5078615834328296,0.8057032518505747,0.8348355962702441,0.564450552209461,0.7875951760844002,0.7651092412164159,LF
0.73015873015873,0.7147696860510679,0.8409090637846993,0.6937172810778214,0.2685460079647606,0.5405405201266144,0.8036260310154698,0.19175417868894645,0.827490852979242,0.7924336584991305,0.22014860467313163,0.8229015572346718,0.17230581779762108,0.4607270405260091,0.6854929941621797,0.5107632005888078,0.16184352291528295,0.529197103848101,0.5080600271727942,0.8052225827098757,0.8343911881781997,0.5034320566735385,0.774638520863377,0.7801397500246038,LF
0.7316467809523809,0.7317073103047134,0.8446970284664848,0.7369110165342923,0.2255193036942289,0.5369369227960402,0.8045870075111481,0.191478756033109,0.8276834218373086,0.8022734816541897,0.220064888318474,0.8295689455458517,0.16917299407917613,0.4853457787716167,0.7397565987326441,0.5146770882161915,0.1350482590509546,0.5492701052733238,0.5084103915352628,0.8050619596054307,0.8345602268389775,0.5097260301778829,0.7953138842163293,0.8043179805137287,LF
0.7400793396825396,0.7249322606032553,0.8315850541824912,0.7395287875075381,0.2255193036942289,0.5225225063296008,0.8052871652090617,0.19110724763965561,0.8276521320228573,0.78714850678779,0.21669929541449373,0.8206417308137823,0.17982464605020398,0.5369284915184944,0.7220376577957807,0.46966729718425637,0.12325832610177104,0.5310219243326768,0.5095141833751903,0.8047861199279344,0.8340749222967445,0.5518205836508393,0.7920919621185838,0.7776129317980512,LF
0.7584325079365078,0.7527101308832818,0.8321678271602522,0.7578533557862307,0.2314540309076404,0.5477477265895639,0.8062428820136819,0.19053663017258657,0.8278909006069595,0.7954481966996634,0.20552951408682402,0.8304426075107008,0.17230581779762108,0.4759672346869854,0.7419715230496372,0.5380733797370694,0.10718112566097628,0.5620438247602437,0.5097163324961916,0.8044878770279001,0.8343121217078358,0.49981001273822745,0.792191787422443,0.8055383328412554,LF
0.7465276952380951,0.7493226060325527,0.8444055823039427,0.7473821861602613,0.28931752405740013,0.5693693459784124,0.8072873947791068,0.19039753132499113,0.8282854882670546,0.8063393736632137,0.21065771086260418,0.8358591902946233,0.18609029348709372,0.5146540291533419,0.7275747417887227,0.42465755742433503,0.11575566064419866,0.6167883317245194,0.5100448762814442,0.8040532145049127,0.834197611647309,0.5286197024803042,0.785650162761719,0.7812395433520323,LF
0.7435515936507936,0.7411924908894535,0.8426573827179825,0.760471212492462,0.2507418554788268,0.5585585421848887,0.8083548026703141,0.19009123635634562,0.8285788565273808,0.8021166300629827,0.21251315193704007,0.8323204344434857,0.18546383140003522,0.4607270405260091,0.7054264058169547,0.4227005815656345,0.11039659383060041,0.589416096171214,0.5095257112273044,0.8033273100889342,0.8339985822563939,0.49105706633315327,0.771048527812854,0.782132664107863,LF
0.7375991873015872,0.7682926896952866,0.8417832829250023,0.7761780097979086,0.18100894677464513,0.5171171020724789,0.8096666314989284,0.18965833021719541,0.8288604648574434,0.8143916862083832,0.22135548830739868,0.8372281566804892,0.1829574697686489,0.46424393453429535,0.7452936827255862,0.48532289896580505,0.07931406247466088,0.5437956438195967,0.509105356334143,0.8027252234832315,0.8341376301870335,0.48366483469327654,0.7838817491386024,0.8032993799822854,LF
0.7534722031746031,0.7296748508956252,0.8452798014442457,0.7722512676050542,0.14985164834043516,0.5297297127925503,0.8106458622165141,0.18861560918010764,0.8290778135685656,0.7971344259963735,0.20211180205153936,0.8328491233536642,0.17669182233175904,0.46541607247452293,0.723145346753818,0.4579256471201087,0.04394426362711017,0.5748175322946084,0.5088093375602124,0.801955312737268,0.8342030645073343,0.4942877400703612,0.7824076063832872,0.7954655053636456,LF
0.7569444571428571,0.7560976557340108,0.8484848738009473,0.7709423821184314,0.16320480400681162,0.5315315138181977,0.8118704420522819,0.18765822060314089,0.8294808011788491,0.8102499079057086,0.2018388281013326,0.8417739101228854,0.17167935571056245,0.46307131640646426,0.7751940270072892,0.5380733797370694,0.05466239725430667,0.5857664432495077,0.5085713697558564,0.801660470326369,0.8349610120508204,0.4801556791590562,0.7992632111818616,0.8259743135518155,LF
0.7614086095238095,0.7364499005970836,0.8496504197564694,0.760471212492462,0.19881308954247864,0.5747747596769752,0.812773252552729,0.1868048960019314,0.829912138621018,0.8018041219403109,0.19523175097479065,0.8385303540880319,0.12406028120525453,0.46893296648280924,0.7607976993454564,0.4403130822978629,0.08788852725422033,0.5620438247602437,0.5086640042817735,0.8020647284759124,0.8360761219259506,0.5142255410541641,0.8274178506530174,0.8454605845881309,LF
0.7475197968253967,0.7486449345583591,0.8487762006161663,0.7356020453146839,0.24035610229155718,0.5873873680366866,0.81374784236644,0.1864267968900134,0.8303808558415249,0.8092854946934867,0.2083244025030213,0.838713665283065,0.1685465319921175,0.47948412869527174,0.7641198590214053,0.4442269699252467,0.11575566064419866,0.5328467328646975,0.5084375643295318,0.8020505264330536,0.8364687278477564,0.49842864331289355,0.8013110241191318,0.8185857691172128,LF
0.7609126603174602,0.7418698848569008,0.8508158463646687,0.7054973361904137,0.28338280656208886,0.5711711505446,0.8144102540461721,0.18602788498294384,0.8308264731990139,0.805150289219396,0.19597770604158457,0.840507322837115,0.17418546070037272,0.48300102270355805,0.7729791026902961,0.46966729718425637,0.16398719176292,0.5839416227649319,0.5082457079336324,0.8021883462574154,0.8370412781503898,0.49580336478658216,0.8005890101895423,0.8190581635665783,LF
0.7559523555555555,0.7371272945645309,0.8747087030216115,0.6767015125527666,0.28338280656208886,0.5531531402881268,0.8153207993864106,0.18553600925753122,0.8315045591779641,0.8228760128504774,0.1916524696324624,0.8539829213046659,0.15726816129245516,0.5392732475865532,0.7641198590214053,0.5380733797370694,0.17470529028828505,0.5675182862139708,0.5097204495862324,0.8027720302160335,0.8374175254921206,0.5537606972443478,0.8193628595142326,0.8132319653577402,LF
0.7524801015873015,0.735772506629636,0.8426573827179825,0.6282722351498039,0.2967359233560643,0.5459459338251773,0.8154380595576476,0.18539933856937002,0.8317025880036532,0.7978643087341241,0.20458876376677995,0.8324211949016826,0.16666663244778984,0.47362247861892665,0.7519380020774837,0.5303326797433374,0.2175777545934081,0.5346715772543833,0.5098439622874552,0.8030754738641569,0.8377038006434376,0.4980540105117976,0.798219414010223,0.8146171636649933,LF
0.7579363555555555,0.7283197854539843,0.8470280010302061,0.5994764200854552,0.3011869600198327,0.5387387155604269,0.8153730869034,0.18514680998819916,0.8319148967446623,0.7969919151220768,0.19777907351729213,0.8343540556590251,0.17418546070037272,0.47362247861892665,0.7286824307467602,0.5225048762889624,0.2250804340917131,0.5656934776819501,0.5099860018938615,0.8031552853444477,0.8377228856535253,0.5006792890381089,0.7869664811539493,0.7980562936718829,LF
0.742559492063492,0.7459350811818234,0.8560606838171951,0.5876963135330718,0.2967359233560643,0.5459459338251773,0.8156270990421484,0.1851232221536941,0.8323042344358897,0.8148974952444092,0.20953226337100028,0.8420308695243115,0.16416052745797954,0.49238004697579285,0.7408638340915998,0.5380733797370694,0.2143623215256155,0.5237226423943739,0.5105936843838774,0.8034727310066571,0.8377910464038388,0.5177631857747794,0.8001625683886984,0.8064806613522293,LF
0.7539681523809523,0.7378049660387245,0.854603811046454,0.5732984068582273,0.2937685694674588,0.5585585421848887,0.8156540162846222,0.18487693741106867,0.8326960921121739,0.8078687513687168,0.19978826602907604,0.8409322163355364,0.17606536024470054,0.48300102270355805,0.7530456910355214,0.5088062631841177,0.20257238857643192,0.47992702247988733,0.5106603812425377,0.8036103508022463,0.8377365178035877,0.5004595661880366,0.7939010866198104,0.8074771183938586,LF
0.7584325079365078,0.7506776714741936,0.8365384454724758,0.5785340045311598,0.3204747933373093,0.5513513357219392,0.8155033416054865,0.18485785901551316,0.8328880309739762,0.7980809133124576,0.2038144689223393,0.8328551932607845,0.17167935571056245,0.49706907892430685,0.7519380020774837,0.5029353996980335,0.23258312061038436,0.4963503972790247,0.5110165095310634,0.8039702025642593,0.8377147063634874,0.5146500299314515,0.7990063050926,0.8066110619033556,LF
0.7544641015873016,0.7472901466234643,0.8519813923201908,0.5562827017755816,0.3486646990105127,0.5387387155604269,0.8154813746604791,0.18494180395595736,0.8332294889491305,0.8097545556424297,0.2015101518295444,0.8415628796853362,0.15789488002108967,0.4759672346869854,0.7497235313595725,0.5459882443526761,0.24866029296971395,0.47627740541584607,0.5113479352793445,0.8044918776033533,0.837891924314303,0.5051905517037779,0.8038297076237682,0.8182732998720599,LF
0.7624007111111111,0.7418698848569008,0.8458624550746839,0.5497381971827798,0.3575667703944295,0.5405405201266144,0.8152502576475134,0.18494457899531092,0.8334808574585152,0.8008979678905374,0.19637674314063377,0.8375002908497162,0.17919818396314532,0.47713937262721307,0.7519380020774837,0.5401174193206023,0.26688108503411656,0.5109489264932207,0.5113956935238172,0.8047937210212954,0.8379055564643655,0.49430447746736833,0.7904640846774368,0.8062420037397894,LF
0.7485118984126984,0.7371272945645309,0.8438229286735046,0.537958099203695,0.35311574442057136,0.5045044878118671,0.8149386983007175,0.1851794167006031,0.8335409171023617,0.800225746785364,0.2075849623276404,0.8328948499873039,0.1729325365262556,0.49706907892430685,0.7563678507114701,0.5616438038348134,0.25723478583073855,0.5346715772543833,0.5119708510025113,0.805241185385733,0.838044604395005,0.5127587040696447,0.7993834848719864,0.8081438834760359,LF
0.7495037968253967,0.7344174411879951,0.8438229286735046,0.5628271977950848,0.363501497607841,0.5081080969442422,0.8147372830725504,0.18543922976007707,0.8335990867574156,0.7988544157308105,0.20641781953099295,0.8324068294548314,0.15538851838970336,0.4900352909077342,0.7464009180845419,0.5851272065071363,0.25294753940022624,0.5310219243326768,0.512771625015439,0.8058232691141699,0.8383172473962597,0.5188571705323526,0.80704419394469,0.8151756716858577,LF
0.7619047619047618,0.7317073103047134,0.8435314825109627,0.5575916044088017,0.3486646990105127,0.48828827031978045,0.8144331491719542,0.1853840758529257,0.8336318465631499,0.7948016693789542,0.1961637061914271,0.8334727051451568,0.1835839318557074,0.45017587831354655,0.7486158424015351,0.5851272065071363,0.22615224745443274,0.5565693872116266,0.5124471983202272,0.8057470581517869,0.8384971917770873,0.4708945568916589,0.7818636793086274,0.8077231571695701,LF
0.7385910857142857,0.7283197854539843,0.8417832829250023,0.5706806024491171,0.38278932217902745,0.466666662732733,0.8142462754425951,0.18589815189316658,0.8334963973663636,0.7970152187870563,0.21500477215796004,0.8279438290795088,0.15914806083678282,0.498241697052138,0.7796234220421939,0.5577299290254331,0.2497321063324336,0.5456204762567274,0.5130244143439416,0.806483764121489,0.8391106385299093,0.5145563717311775,0.8151731710628715,0.8285429583702388,LF
