xa_S1,ya_S1,za_S1,xgb_S1,ybg_S1,zbg_S1,tilt_x_S1,tilt_y_S1,tilt_z_S1,tilt_accx_S1,tilt_accy_S1,tilt_accz_S1,xa_S2,ya_S2,za_S2,xgb_S2,ybg_S2,zbg_S2,tilt_x_S2,tilt_y_S2,tilt_z_S2,tilt_accx_S2,tilt_accy_S2,tilt_accz_S2,Posture
0.7052913289913362,0.07276970703342206,0.2282497657132811,0.6628205007626552,0.3726851360489552,0.6917807670169521,0.05125428039332991,0.2419408278695224,0.20611324656598173,0.10421408495579983,0.3038092991932372,0.2080539083937074,0.7210094367928469,0.23380720973722177,0.11532843049027036,0.719365116674826,0.7850241456087078,0.322751305148231,0.21753589736097995,0.22239997529939373,0.005493601763215282,0.25564896718719116,0.24507881778797455,0.06265157806451095,LR
0.7789685653302314,0.08450676689367731,0.2330263359793129,0.6820513022912574,0.26851860836762487,0.7808218993713645,0.0521002956408712,0.23948205176643786,0.20670814325361497,0.07740837181929222,0.24188100960984815,0.21681273303319107,0.7032742596999679,0.27962094201538745,0.14014600897054047,0.6990476550503364,0.787439608291034,0.24074070800999203,0.2179585820907638,0.22276920889974813,0.005169342976506993,0.28582312051130015,0.26411807149440686,0.05751599961989394,LR
0.794373693422807,0.10328619087040661,0.24496762189687132,0.6525641236653534,0.29166664139660553,0.8242008439330925,0.05285720232838281,0.23707319508264352,0.20763284567943677,0.08458912597622005,0.23073907664017376,0.23015081738168255,0.715552480718094,0.31437612025287776,0.15036448426567683,0.6971428861351444,0.7922705178344308,0.22486773504451227,0.2188630365125589,0.22297944554176052,0.00422476303261856,0.3062461907821045,0.2558283478569127,0.03407743444184195,LR
0.7883454686119693,0.11267590285877091,0.2347322339675355,0.637179516032218,0.40972220116383795,0.80593606452378,0.05348405868503998,0.23534412343212652,0.20835837036657076,0.08138583025495036,0.24011169571301824,0.2218095038275756,0.6957707006224211,0.29383917536446647,0.11970786246765817,0.7104762227954616,0.8272946713537663,0.19047616077097312,0.22014927069028775,0.22362291041051388,0.003397668156376586,0.3099267188838374,0.2695242439724982,0.04460475051335239,LR
0.7970526910689105,0.11189356040174135,0.22995566370150378,0.5820512687015111,0.5000000000000001,0.7511414870264391,0.05360137922160432,0.23392778226128114,0.20885955045272772,0.07350398486432871,0.23304503481969222,0.21784420342940455,0.7128241423805811,0.2985783707883345,0.14598505228828904,0.6863209897244442,0.7633828438421538,0.23280425618333903,0.2205024818930563,0.2237267092546874,0.0027585493883721533,0.29595255155827893,0.25717262736569557,0.043162822213132924,LR
0.7682517517050662,0.06338031554585934,0.236097008257122,0.5641025458004588,0.6087963162315667,0.6689497105064541,0.05372454858257208,0.23335126190908503,0.20912679856179758,0.07949057986828038,0.24564396853283754,0.216787883973646,0.7148704659836477,0.2606635132424404,0.1547445141993693,0.7352381313596336,0.8719806518705233,0.2222221933421498,0.2210485308296894,0.22421359620595877,0.002626966112606142,0.2593753088555052,0.2544437604237417,0.06841102806595797,LR
0.7608841652446352,0.11658825614552289,0.22279094804997707,0.5294871702284674,0.6550926097200785,0.6050227717176987,0.053770651080811374,0.2334413126262361,0.20911433497285453,0.08547125015758066,0.2674192891605226,0.2103226744151974,0.7080492010402746,0.29541869147993094,0.16350337815414492,0.7415873472145078,0.8466183095273543,0.23015871448097655,0.2223126893072451,0.2247391878109897,0.0022839097150749005,0.28584422563747786,0.26256877401487816,0.055999702524820685,LR
0.7588745740764111,0.11658825614552289,0.22722625486985176,0.49487176946416633,0.736111119534465,0.5936072449578833,0.053716635467202574,0.2339219093884235,0.20915771784975268,0.08979102543973713,0.26840275314639384,0.21419772115369975,0.7285129679304211,0.28436013743925553,0.18102170402000048,0.7428571737505637,0.8514492507132618,0.24074070800999203,0.22305677026013618,0.22493161151576044,0.0020113443581320696,0.26172621400803847,0.24559361341112487,0.05847039915384947,LR
0.770261068526373,0.09154913101015137,0.2234733351947703,0.47179485801446314,0.7384259531614363,0.5662099861178883,0.05320985203506424,0.23408683923451018,0.20901989931816978,0.0756299699715713,0.25286862855832004,0.2086959987153506,0.7244200692645335,0.2306475304288182,0.12992693571909916,0.7238095552970489,0.8128019189916924,0.3625238087316704,0.22291912177670448,0.2249087405839934,0.002476585226017178,0.2447082756803057,0.2431002511441496,0.06924974280791857,LR
0.7675820708802695,0.09154913101015137,0.23234394883451967,0.4705127961817864,0.7175926173010968,0.559360675146474,0.052873716656110195,0.23416661242416037,0.20902732953465508,0.08367968227730214,0.25368165616256505,0.21645851672212754,0.7244200692645335,0.2274878511204146,0.15766373688009142,0.7130159091374112,0.8140096503328554,0.17989420189804453,0.2220698566053417,0.22491841674743332,0.002584671488252829,0.22781542383211437,0.24499779272169178,0.08390039539409361,LR
0.7809778821515383,0.0743347124482831,0.23984992793220342,0.47307690305226674,0.7199074206039949,0.5981734622417181,0.05249801570030912,0.23388324630877713,0.2092387311778834,0.0794105962204927,0.23651548806070125,0.22183364961185062,0.7019099508313479,0.23538737293016088,0.19707982058919035,0.6990476550503364,0.7814009594958463,0.1375661238137221,0.2207719352922271,0.22529952563928216,0.003087507577786514,0.22043789533504649,0.2678515674147661,0.11081776753141138,LR
0.7823175181480486,0.08763677772339938,0.22859102915943824,0.4833333137393147,0.6736111271154832,0.5936072449578833,0.05203423832996117,0.2334775286755252,0.20925910435211745,0.0732011661155036,0.24045487167061746,0.21335965145677607,0.7257844340130992,0.2527646385101688,0.1649635874508106,0.6926984475129215,0.7958937118579201,0.1216931161921555,0.21995058938873058,0.22524146865864278,0.0026833589450776713,0.24447148645977465,0.24542972179978015,0.07152212265067016,LR
0.7863361517906624,0.08450676689367731,0.22483796973683584,0.47179485801446314,0.6504629879522457,0.6118720856799805,0.05142355225253745,0.23290688119618674,0.20925119476682646,0.06771751355525328,0.23680753310381236,0.2098646077892424,0.715552480718094,0.2527646385101688,0.15620412553973034,0.6926984475129215,0.8091787328788308,0.17724872950785583,0.21934285834867284,0.2254237763743627,0.002490683434135394,0.2518994613559993,0.2536238931495115,0.07334828972429897,LR
0.7762892933372108,0.08920178313826041,0.22586148058026528,0.46153843053254195,0.6898148321107678,0.5890410426283864,0.05087066632215933,0.2327277585740273,0.20920901031194214,0.07417413592151163,0.24659472715899133,0.21083629978749352,0.730559347413433,0.2322276936217573,0.1678828101315324,0.6869841669673428,0.8079710094482955,0.21693119657764212,0.21792871496700025,0.22531821822774561,0.002664561334253383,0.22465016966462414,0.2406359433201343,0.08245020389444686,LR
0.7809778821515383,0.07511737540611457,0.2282497657132811,0.47307690305226674,0.7523148336269715,0.6004565619110327,0.050321908973713914,0.23268077559116587,0.20921164684037222,0.07054096923723566,0.23868417585717983,0.21166593018117547,0.734652106379457,0.26856238797471227,0.11386822119360467,0.6965079687083868,0.7850241456087078,0.21428574151549679,0.2181890783719823,0.22499340701409254,0.0017199813903649498,0.28125978042432637,0.23469144521227014,0.0338006172609979,LR
0.7863361517906624,0.057902956844246664,0.2214261737603906,0.47692305496055054,0.7430555749292692,0.5981734622417181,0.04956156180125895,0.23242824205828536,0.20905273608134683,0.05877547339292926,0.23103112168328505,0.2040464114793279,0.7216917309270208,0.263823192550844,0.1912407772714418,0.6914286085006764,0.8103864642199939,0.2566137502876455,0.21731643892984803,0.22513920920410743,0.002001945552719925,0.24114820122553862,0.2514615878452775,0.07956221569429489,LR
0.7809778821515383,0.08215941902178671,0.22586148058026528,0.48589742060979496,0.7962963086505485,0.6027396660666489,0.04911257851616721,0.23264064429330497,0.20903595817315423,0.07036882336154482,0.2407782401568384,0.21029384012912125,0.737380640296779,0.2306475304288182,0.15766373688009142,0.6825397150371848,0.7814009594958463,0.29629632132569234,0.21590099697757706,0.22478185089524746,0.0023450019502511666,0.22682399766093433,0.23392661769266127,0.07492656081508216,LR
0.7716007045228832,0.0790297286928662,0.22722625486985176,0.48589742060979496,0.7662037292545433,0.6004565619110327,0.048790205076986067,0.2328373855340375,0.20902565174383597,0.07490188837113468,0.248008427848752,0.21076550341029904,0.7210094367928469,0.26856238797471227,0.18540113599738828,0.6882540043160962,0.8055555467659693,0.267195743816661,0.2151828874366542,0.22491973622426606,0.0025423768638995156,0.24835380015813407,0.2518165840321479,0.07438118965282252,LR
0.7729403405193935,0.09467914183987344,0.22620274402642232,0.48076920686883445,0.7847222314879113,0.6004565619110327,0.04847023997726547,0.23319954602692813,0.209030205747488,0.07727309083476273,0.2508095728127254,0.2115747388211466,0.7285129679304211,0.24802544308630073,0.19999964122621708,0.6895238420807223,0.7922705178344308,0.2936507796233299,0.2138667861351618,0.22492699334684596,0.0030264153426089123,0.22137887510706997,0.24546245920029844,0.08925494862355778,LR
0.7856664709658657,0.08528942985150878,0.23097931429245405,0.47179485801446314,0.8078703858131856,0.5159816707673953,0.04778833586151669,0.23364392673982626,0.20878956260712406,0.0730026881746971,0.2365417444762491,0.21537594165628357,0.7353342328737943,0.26224302935790494,0.11970786246765817,0.7015873413922862,0.8091787328788308,0.36243386974024566,0.2141154624047581,0.2246996035060083,0.0028008440127254663,0.2729206817882323,0.2342711788331164,0.03982035804443205,LR
0.7856664709658657,0.08215941902178671,0.23132043799109026,0.4910256175558825,0.826388918370627,0.5045661425121463,0.04745082428858541,0.23386758531448987,0.20865006628472169,0.07251949477983237,0.2357351658161738,0.21534241886840666,0.732605726896445,0.24644527989336165,0.11970786246765817,0.7092063837832165,0.811594195561157,0.36507936590450996,0.2142238930497257,0.2245236732616465,0.0028384392343727073,0.2606452197403968,0.23599071079534029,0.05073604448906605,LR
0.7541859852620837,0.095461484296903,0.2241555825920426,0.49230767099112266,0.6962604352717492,0.47031958765507464,0.04737650981381144,0.23415046202380183,0.20830276358513208,0.08441763840215684,0.26780576517183213,0.2090049709840344,0.7353342328737943,0.281200458130852,0.11678804183063142,0.7244444768825364,0.8055555467659693,0.349206351351726,0.21542182442676228,0.22430112150252876,0.0022745109096627566,0.2900678246689069,0.23480745837535685,0.0271570049207361,LR
0.787005832615459,0.06651000587477984,0.22859102915943824,0.4935897328237993,0.8194444629758227,0.493150629211235,0.0469275265287192,0.23423659749238107,0.2080635585511844,0.06606056835787617,0.2312996741440639,0.2113152302464628,0.7244200692645335,0.2559243178185724,0.093430672647027,0.7409523923591824,0.8079710094482955,0.2910052899050977,0.21681648924945873,0.22423624722492036,0.0017387790011879024,0.28377746754958166,0.24147770373096117,0.037903295777092526,LR
0.7809778821515383,0.08294208197961819,0.2320028251358835,0.5192307511439829,0.8356481619062925,0.5159816707673953,0.0468363536777239,0.23458113936669867,0.20797511500656868,0.0753357091439081,0.23991960930453668,0.21582603782917673,0.7291950944247584,0.2559243178185724,0.0978101046244148,0.7536508240689311,0.8212560304692063,0.2910052899050977,0.21838775967353946,0.22414630288749035,0.0011936482873022398,0.2803450533702314,0.23772436076153772,0.03717613422741263,LR
0.825853904779672,0.08137707656475715,0.2070966027098162,0.520512804579223,0.8449074357660316,0.536529618635976,0.04591327156745416,0.23419989203702055,0.20751755748171266,0.035101959401880316,0.20401096689019935,0.19532298502844148,0.7230560397956408,0.24644527989336165,0.1591239461767571,0.7612698664598615,0.7633828438421538,0.267195743816661,0.21904678425223442,0.2240229318036316,0.00142861842259783,0.2430399411939119,0.2470899172235646,0.07412089887083423,LR
0.7655724797120456,0.08920178313826041,0.21869676492873852,0.525641009922747,0.8333333586033945,0.5319634013521413,0.04584996664449861,0.23485863260922443,0.2072486315818237,0.07355138258153623,0.2572244297060479,0.20399202485843668,0.7510231981234978,0.2764612627069839,0.134306367696487,0.75174604267755,0.8417874316264677,0.28042326171999543,0.22035119841834105,0.22368844442653868,0.0006673151842395298,0.27326042284377683,0.22225225605908103,0.029284778773494325,LR
0.7722703853476799,0.08528942985150878,0.20777898985460944,0.5358974164110767,0.8449074357660316,0.5045661425121463,0.045585737400858,0.23549583931428342,0.2067059860939902,0.061251016664576385,0.2522136000862316,0.19413187114590488,0.7394270197797908,0.27014190409017674,0.09634989532774878,0.7453968684099729,0.8309178574666278,0.33862433009784104,0.2219088338511385,0.22347051083633543,0.0,0.29013628763919086,0.22942092833757652,0.022413928448956892,LR
0.7682517517050662,0.08137707656475715,0.21937915207353176,0.5371794748847788,0.8425926021390602,0.5159816707673953,0.04553791466014752,0.23612276849184133,0.2064008678492856,0.07097051104942789,0.25284421469824936,0.20390106792349763,0.7414733992628028,0.24486576377789718,0.12846672642243348,0.7346032180916056,0.7971014431990832,0.37830688380784444,0.2222406186390331,0.22310787462014464,0.000145681483882892,0.25255732358173555,0.2289149308908155,0.05083520288220406,LR
0.770261068526373,0.08372442443664775,0.2070966027098162,0.5294871702284674,0.8240740847436554,0.5068492661084013,0.04524272105201775,0.23666747744939176,0.20586325573391015,0.06129775608015582,0.25370837321698214,0.1932785638181282,0.7428376522514774,0.24328624766243268,0.1270071150820724,0.7244444768825364,0.8140096503328554,0.3835978805723522,0.2223094428807492,0.2227927395699315,0.0003054611758840002,0.25165752454371754,0.22757678964462982,0.05038899011308244,LR
0.7515069876159801,0.0743347124482831,0.21630847979572268,0.5371794748847788,0.6962604352717492,0.49543373785315237,0.04527850209542749,0.23686177165976682,0.20544117150066166,0.07463626366428451,0.26626584943189413,0.19972548821955324,0.7353342328737943,0.22116913958108209,0.11240860985324361,0.6863209897244442,0.8176328443563446,0.4126984060972533,0.22128357210800215,0.2225967972602735,0.0008129966681224218,0.2430188360677342,0.23214324779942666,0.06093283258344862,LR
0.7622235268942283,0.06729266883261097,0.220061539218325,0.5589743404569348,0.8194444629758227,0.5182647794093127,0.04536623446147993,0.23738837259267276,0.20514396284124767,0.07087637391664094,0.2545633189583298,0.20278825202103712,0.7448840317344894,0.23854640516108983,0.13576597903684803,0.7244444768825364,0.7814009594958463,0.4708994744750989,0.2210881372329409,0.22212464446696742,0.0014051214090688054,0.24272284954207024,0.226227394917016,0.056131913715672534,LR
0.7809778821515383,0.0923317939679825,0.22552035688162908,0.5846153755719914,0.7939815053476503,0.5205479030055676,0.04562427083222222,0.2375126817348271,0.20504209697007758,0.0725425353368085,0.24328964327204697,0.21107049045245208,0.7366984858624689,0.2511851223947043,0.1591239461767571,0.6838095627827625,0.7294685909321108,0.43915344190392225,0.2200336979070289,0.22165315141207775,0.0020630377878961908,0.2431881918363314,0.2354566819493855,0.06367208319389182,LR
0.7756193381654971,0.07668206032017405,0.22483796973683584,0.5730769114497033,0.8310185401384598,0.586757933986469,0.0457859736245542,0.23786358588807377,0.2050325095939675,0.07068678304781131,0.2443297658388372,0.20857526979397562,0.732605726896445,0.24644527989336165,0.10510935723882904,0.6774603544136016,0.7753623107006585,0.43915344190392225,0.21948180540270318,0.2213677045906007,0.00226041270154454,0.26803664673519156,0.23495702737397484,0.04416266934394382,LR
0.7468183988016528,0.06572766341774992,0.2231320717486132,0.5628205007626552,0.8194444629758227,0.5570775665045566,0.046073598165808895,0.238635379262788,0.20487335915053925,0.07982236388873257,0.26705953020363,0.2046742018704779,0.7339699798851196,0.22906801431335372,0.11094840055657791,0.6876190856417195,0.7596618269974217,0.4708994744750989,0.21873058231152062,0.22099407273413718,0.0028290404289605634,0.25054410044804637,0.23351740018618247,0.05633436210166278,LR
0.7548559404337973,0.08920178313826041,0.21289668381927734,0.530769215266271,0.7638889107896086,0.5205479030055676,0.04604745048024033,0.23911842305533265,0.20451694844364518,0.07410534340139821,0.2676049266248345,0.19835832109438997,0.7257844340130992,0.281200458130852,0.14160562031090154,0.6965079687083868,0.7379227024096247,0.4708994744750989,0.2189448464602591,0.22078207678968123,0.003129802202139827,0.28006553913816973,0.244877482774787,0.043811483368245974,LR
0.7494976707946733,0.07355236999125354,0.2190378886273747,0.5435897235866191,0.7083333525385799,0.527397213976982,0.046163738871321386,0.23934403925428208,0.204243228855701,0.07741166332743174,0.26735894546864947,0.20197737563455936,0.7264665884474093,0.22906801431335372,0.10072992526144156,0.680634958182309,0.7137681151395017,0.44179894895019783,0.21822673691933622,0.22035346673185469,0.003580944861908055,0.2576977087039599,0.23918813178221232,0.05581378053768736,LR
0.7642331180624523,0.08685443526636982,0.2302969271476608,0.5769230633579872,0.6828703873293891,0.559360675146474,0.04658382208289057,0.23919966446319738,0.20429595942430676,0.08246873643281483,0.25582546946010354,0.21399236477481703,0.7271487149417464,0.24328624766243268,0.11824825112729712,0.684444481457139,0.7016908175491262,0.48941798914294116,0.21767484441501028,0.21991078225447927,0.004196566616382127,0.2602493699347699,0.24043563135071294,0.0549668025962983,LR
0.7722703853476799,0.07276970703342206,0.21835550148258145,0.5910256343507556,0.6481481694873108,0.5844748253445518,0.046742772487267575,0.23871417364029526,0.20416700921562547,0.06630611486507615,0.24740453029115134,0.20227134469748026,0.7216917309270208,0.26540270866630866,0.19562020924882928,0.6736508332181366,0.7173913012523632,0.4232804342823556,0.21637952024309265,0.21978697134500963,0.005117649546741536,0.24017324734796086,0.2518681454379642,0.08068187921681494,LR
0.7937037382510933,0.08137707656475715,0.23404984682274227,0.5910256343507556,0.6412037292545433,0.6141551908973545,0.04699427193661809,0.23779360081985304,0.2044330589026815,0.0709007310768728,0.2280259137002292,0.2180289304003628,0.7319236004021077,0.2511851223947043,0.1795620926796394,0.6812698756090667,0.7234299500475508,0.4153439131435289,0.21513224318331614,0.21946963716674198,0.005869553979689027,0.2338216338868025,0.24109815449370212,0.07581485475361234,LR
0.7789685653302314,0.12754297354874822,0.23848515364261694,0.5717948580144631,0.6620370651148828,0.6095889830197982,0.04755851146730858,0.23749702074053983,0.20485442408272186,0.09220205515185201,0.25135358731732216,0.22637610458172114,0.7182810984553343,0.24960495920176523,0.14744526158495505,0.6895238420807223,0.7499999920893723,0.36507936590450996,0.21457580568189588,0.21945776187524751,0.00627370261239787,0.2530046493048693,0.25046882617455996,0.06958853398447372,LR
0.7809778821515383,0.10328619087040661,0.23268521228067673,0.575641009922747,0.6736111271154832,0.6278538207510278,0.04790772068904666,0.23710941113193262,0.20515115337333018,0.08078447171788086,0.2447033439618076,0.21862835535561695,0.7148704659836477,0.2764612627069839,0.1547445141993693,0.690158761170972,0.7560386393024345,0.3333333333333333,0.21453684856394334,0.21957101697005546,0.006301899028632967,0.2724882840811755,0.25512919974709375,0.05906121791296446,LR
0.7722703853476799,0.10093884299851566,0.23541462111232875,0.5538461351134107,0.7129629803712274,0.6187214026331299,0.04823319056467671,0.23705655527621336,0.20545699067124326,0.08624870438010859,0.25131489365230425,0.22040928276471566,0.7230560397956408,0.24802544308630073,0.17810188338297372,0.6971428861351444,0.7632850149297276,0.3333333333333333,0.21369991981326572,0.21957079705725002,0.006856428547930774,0.23448104039006393,0.24858233346969275,0.08202878072360945,LR
0.7923643766015002,0.07120502211936294,0.22381445889340643,0.5384615224418133,0.7337963162315668,0.6141551908973545,0.047932836229132414,0.2366190262483158,0.2054881496436012,0.06104595570749133,0.2285105057906913,0.20780799647424672,0.7360163593681315,0.28278062132379106,0.11970786246765817,0.6990476550503364,0.765700476583672,0.3730158939745541,0.2143173901328114,0.2192776532875821,0.006306598431339039,0.2897337459642881,0.23448908715531636,0.027136346922164947,LR
0.7521766684407768,0.10563353874229721,0.25110882670496865,0.5384615224418133,0.7407407564643343,0.586757933986469,0.04863159872110301,0.23704529893656953,0.20598717257013338,0.10856249635876887,0.2672212144467406,0.23388544349124593,0.7251023075187617,0.23854640516108983,0.1065689685791901,0.695873051281629,0.7524154547716985,0.31216932894725896,0.21417065165519067,0.21907929193706416,0.006128021128513642,0.2628293429202083,0.24114869285575222,0.05362816428893108,LR
0.7937037382510933,0.08685443526636982,0.23097931429245405,0.5435897235866191,0.7314814977666321,0.5958903535998007,0.048536641336669926,0.23662587793331652,0.2061297847897715,0.06978655557168385,0.2298463585115469,0.215895193230741,0.732605726896445,0.24328624766243268,0.16350337815414492,0.6882540043160962,0.7451690746353478,0.39682539847568665,0.21316231158552246,0.2188090190991633,0.006724845272166098,0.2354920274098967,0.2390035746867904,0.0726872337700444,LR
0.7769589741620074,0.1001565005414861,0.23132043799109026,0.5461538296173557,0.736111119534465,0.6027396660666489,0.04868836672266629,0.23661608981188706,0.20630643219460082,0.0807607728592771,0.24772098919433347,0.21689501623979823,0.7257844340130992,0.2274878511204146,0.18394152465702723,0.6850794005473887,0.7463768059765108,0.3835978805723522,0.21155078547289083,0.2186942246147172,0.007777511478290183,0.21365439892600654,0.2457583234574826,0.09544821659498373,LR
0.7782986101585178,0.07824706573503508,0.23132043799109026,0.5346153688540423,0.7245370575338644,0.5890410426283864,0.04864501661238148,0.23641396510436835,0.2064001487960771,0.07487522715520545,0.24125776521973866,0.21460140115876322,0.7189631131897806,0.2322276936217573,0.10364914794216334,0.6793651108526045,0.7536231861128616,0.3042328078084322,0.211030058662927,0.21861439626633797,0.007669425216054532,0.26081045743559345,0.2458990942797113,0.059449588286089206,LR
0.7796382461550281,0.09702648971176403,0.2320028251358835,0.5128204923652186,0.7245370575338644,0.5844748253445518,0.0485638211677213,0.2362847619014991,0.2065360498524384,0.07933225832677476,0.24448684369325516,0.21728345861400836,0.6998636272282813,0.2764612627069839,0.19707982058919035,0.6838095627827625,0.7463768059765108,0.35185184626837124,0.21048076329979779,0.2190584002205462,0.008402532038177734,0.25524796978981357,0.27156480706855474,0.08797002111247555,LR
0.7836568797976418,0.08841944068123087,0.23132043799109026,0.5230769114497033,0.7500000151620367,0.6004565619110327,0.04845406969803202,0.23616241038363076,0.20667914144088184,0.07492064996752917,0.23899833156601558,0.2159268406178976,0.7251023075187617,0.24328624766243268,0.14306523165126228,0.6761905154013566,0.77294685592896,0.3465608547022765,0.2095886452986876,0.21900935966493032,0.008632802770767252,0.24814171937800622,0.24400052965840294,0.06742770733400283,LR
0.7635631628907387,0.07668206032017405,0.2343911102688994,0.5192307511439829,0.7384259531614363,0.5821917167026344,0.048501892438743,0.23629014536828546,0.20678795815973194,0.08346145528765948,0.2532251630431278,0.21649766571216575,0.7332878533907823,0.24644527989336165,0.16934301942819843,0.6990476550503364,0.7669082079248352,0.3703703557378003,0.2089042985933236,0.21882859133884852,0.009083945430535482,0.23486659501218954,0.23896490363242817,0.0731293149394518,LR
0.757535212426818,0.08137707656475715,0.22995566370150378,0.5012820282429304,0.7500000151620367,0.5776255143731374,0.04844959706760587,0.2366219626847447,0.20680857101836878,0.08389955502101455,0.2603968495986454,0.21281062789588237,0.7285129679304211,0.2733015833985803,0.16204376681378385,0.7003174899038519,0.7681159337285588,0.4021164298962812,0.20895429356136247,0.21875821924110378,0.009271921538771686,0.2622873015088621,0.24370405157495906,0.05633436210166278,LR
0.7782986101585178,0.06964001670450191,0.22927327655671054,0.5025640816781707,0.7430555749292692,0.5502282555331424,0.04814132961669206,0.23647171502080216,0.20674529433604194,0.07122922358918546,0.23954510990382777,0.21187503736149885,0.7339699798851196,0.2417060844694936,0.1795620926796394,0.6971428861351444,0.7596618269974217,0.30952378724489654,0.20799984417152825,0.2185517211167841,0.009633775547127216,0.22538833432167102,0.23891456987913126,0.08036787763854282,LR
0.7809778821515383,0.10172118545554558,0.2302969271476608,0.5076922954191312,0.7476852118591386,0.6141551908973545,0.04802263288615047,0.23645654343258654,0.20692505763810667,0.07853373845215494,0.24474019507134837,0.21633145832332157,0.7394270197797908,0.2417060844694936,0.17518206274594697,0.6965079687083868,0.7777777733829846,0.349206351351726,0.20707006762306412,0.21831421528689562,0.010028525374423914,0.2261908438756013,0.2338386359287683,0.07533972078649229,LR
0.7695913877015764,0.09859149512662507,0.22483796973683584,0.5269230633579871,0.7013889092734049,0.5958903535998007,0.04802607337109382,0.23643892481401343,0.20694135617749396,0.07868547697738154,0.2549451885809467,0.21062695818208035,0.7291950944247584,0.26224302935790494,0.1270071150820724,0.6965079687083868,0.7705313948287594,0.35185184626837124,0.20728498105710152,0.21818600612131694,0.009774757628305372,0.27083951044343424,0.2400808397725958,0.04654247077926188,LR
0.7789685653302314,0.09702648971176403,0.22961454000286757,0.5102563854947384,0.7222222390689297,0.6278538207510278,0.0479090968830239,0.23631950973257382,0.20712471474560012,0.07776813365892934,0.24549011515050462,0.2151288576113723,0.716916789586714,0.2890993328631236,0.17810188338297372,0.6914286085006764,0.7789854968135201,0.33597882305156546,0.20737068671659684,0.21843120889939627,0.009793555239128324,0.270518300718192,0.25572542965403333,0.06112288617029735,LR
0.8030809158797483,0.07981207114989612,0.23234394883451967,0.5038461435108473,0.7592592890217758,0.5958903535998007,0.04748935771994963,0.2358301036610999,0.20726229359278053,0.06501485622198709,0.21969710230512907,0.21675365791049875,0.734652106379457,0.24960495920176523,0.12992693571909916,0.6946032122693838,0.7826086829263816,0.267195743816661,0.20719927539760624,0.2182427436251236,0.00933771317665536,0.2574897459972327,0.23508306636597034,0.05236389477641883,LR
0.7816475629763349,0.095461484296903,0.22279094804997707,0.5102563854947384,0.7199074206039949,0.5821917167026344,0.047239234464576355,0.23567887718501448,0.2072062074425362,0.07087143665443213,0.24392302171728014,0.2089988759316932,0.740109146274128,0.25908399712697594,0.11970786246765817,0.7028571762458017,0.7693236642786591,0.2698412855190234,0.2074882073557532,0.21789352209006538,0.008623403965355108,0.2690826373789287,0.23003516381480119,0.03909319649475097,LR
0.7809778821515383,0.09859149512662507,0.2251792331829929,0.5076922954191312,0.7314814977666321,0.5958903535998007,0.04705344827764192,0.23559420993464958,0.20723616799288033,0.07378409220699218,0.24486456756604874,0.21143314606675734,0.7175988043211605,0.2606635132424404,0.13284675635612592,0.6965079687083868,0.7826086829263816,0.2751322649554877,0.20766676081303526,0.21804548183863295,0.00832264219217718,0.2697425586413653,0.2504219707700681,0.05676818007164289,LR
0.79102474060499,0.08998412559529033,0.23166156168972643,0.49487176946416633,0.7731481694873109,0.5730592970893027,0.046748621311671464,0.23546451732570906,0.20731694163660824,0.0722709859153074,0.23283406221757083,0.21672224494843226,0.7264665884474093,0.2559243178185724,0.15620412553973034,0.6965079687083868,0.8019323606531078,0.3148148186654911,0.20738042599608503,0.21814202356022652,0.008379035024647374,0.2514274271924623,0.24432053774846935,0.0652007750881066,LR
0.7776289293337211,0.0931141364250124,0.24292060021001255,0.4679486977087427,0.7638889107896086,0.5662099861178883,0.046613410253401995,0.2355178625874996,0.20757915637322039,0.08784771903423202,0.24339512957310755,0.2264480730843659,0.7271487149417464,0.23380720973722177,0.186861345294054,0.6990476550503364,0.7777777733829846,0.2830688034223579,0.2062682002785435,0.21815016033402818,0.008942963349357326,0.21693444438953688,0.24506060760893625,0.0923082008122731,LR
0.787005832615459,0.07355236999125354,0.220061539218325,0.4884615106854021,0.7500000151620367,0.5730592970893027,0.046066717195922195,0.23529567223105055,0.20740969950047355,0.06110454455237264,0.23439424606775636,0.20449369455114055,0.730559347413433,0.22590833500495014,0.13284675635612592,0.7015873413922862,0.7898550630627325,0.2619047470521532,0.20577928844824075,0.2180562575661001,0.008886570516887132,0.237666884924557,0.23785449192859795,0.07000582555559691,LR
0.7809778821515383,0.0790297286928662,0.22244968460381995,0.4743589480900703,0.7708333358603394,0.5684930947598057,0.04554754801798821,0.235326015407482,0.2072761952881402,0.06698120318446835,0.24060043355330368,0.2069326531880055,0.740109146274128,0.2669828718592478,0.12262768310468493,0.695873051281629,0.7838164221781723,0.3465608547022765,0.20608769896536389,0.21778268603611742,0.008383734427353446,0.2741185263886145,0.230545253436627,0.03566810033176783,LR
0.8198256799688343,0.07276970703342206,0.23916754078741018,0.47692305496055054,0.7569444553948044,0.5570775665045566,0.04493858218303615,0.2344734700309745,0.20744205689484527,0.06145476101840573,0.20217624227393463,0.22275353366520123,0.7298772209190957,0.25750383393403686,0.11386822119360467,0.7060317800145091,0.7971014431990832,0.3042328078084322,0.2065759615103677,0.21772748792194893,0.007909094754056194,0.27339992258022017,0.23835455572151504,0.04304713742113917,LR
0.7608841652446352,0.0790297286928662,0.22620274402642232,0.4782051167932273,0.736111119534465,0.5547944578626394,0.044740754298800006,0.23470300147849574,0.20733491796681466,0.07895702639888266,0.25755010138661505,0.2093894281317141,0.7339699798851196,0.2543441546256333,0.134306367696487,0.7053968625877512,0.7922705178344308,0.3015873007621566,0.2067142592790986,0.2176157722167792,0.007613032383583002,0.25933361336232463,0.23617281258572337,0.05190115560844029,LR
0.7716007045228832,0.06885735374667043,0.2302969271476608,0.4846153587771183,0.7106481710035145,0.5570775665045566,0.04447411671569934,0.23455373262669613,0.2072879398238751,0.0748327667002072,0.24503270075332886,0.2124055413402785,0.7332878533907823,0.24328624766243268,0.11824825112729712,0.6990476550503364,0.77294685592896,0.3625238087316704,0.20668634001123284,0.21740619531318311,0.0075660383565249525,0.25861861286815585,0.23517657256620073,0.05157889083074088,LR
0.7769589741620074,0.08372442443664775,0.227908642014645,0.5038461435108473,0.7199074206039949,0.543378944561728,0.04431413416583904,0.23443676457561397,0.2072035709141061,0.07414154999093193,0.24433252967205282,0.2121026641239359,0.7278308414360838,0.24012656835402893,0.10948878921621685,0.6996825724770942,0.7693236642786591,0.30952378724489654,0.20675711210884623,0.21727006928660816,0.007326368818523291,0.26191821918033875,0.2390954440169949,0.052496105967269516,LR
0.7742799765159039,0.08450676689367731,0.2241555825920426,0.5012820282429304,0.7384259531614363,0.5799086230150547,0.04411011340870506,0.23447689587347484,0.20713789738775165,0.07263897652529284,0.24751139850881984,0.20873561655556874,0.730559347413433,0.2543441546256333,0.07007270550711793,0.7028571762458017,0.7898550630627325,0.28571425848450316,0.20764468511286216,0.2171154705843752,0.006391187680045665,0.2924707204981223,0.23453962551736648,0.02508707346397475,LR
0.7736100213441902,0.08528942985150878,0.22176743720654765,0.5012820282429304,0.7268518608367625,0.559360675146474,0.043898523584696494,0.2344773852795463,0.2069914502176693,0.07129307884709009,0.24869477976395024,0.20666540858534993,0.7223737456614671,0.24960495920176523,0.16058355751711817,0.6971428861351444,0.7826086829263816,0.2883597828588222,0.20721291038888953,0.21722916550479401,0.006565065580163654,0.24508765319233058,0.24792431171927484,0.07331110532687206,LR
0.7655724797120456,0.0719873645763925,0.22176743720654765,0.49230767099112266,0.7615740923246738,0.5707761884473853,0.043630853856113025,0.23473285524885554,0.20683062198342192,0.0717660685667227,0.2524964323519575,0.2049290219433606,0.7319236004021077,0.21484978096427493,0.14014600897054047,0.7041270152580468,0.7765700420418217,0.2989418110439245,0.2064311708886445,0.21707588627939378,0.006912821380402303,0.22450655185478025,0.23675144613988436,0.0791573189223144,LR
0.7736100213441902,0.08528942985150878,0.22483796973683584,0.4987179297698868,0.7523148336269715,0.547945146891225,0.04344644386315535,0.23484737626958044,0.20671077978204544,0.07365572338955531,0.24817241528620876,0.20939528875896518,0.7394270197797908,0.23696688904562535,0.08759103137297349,0.7022222588190439,0.793478249175594,0.35978837433841526,0.20667854858764217,0.21678890006827856,0.006565065580163654,0.267384446860381,0.22756103477063042,0.03828340295078881,LR
0.7642331180624523,0.09076678855312145,0.2190378886273747,0.4884615106854021,0.7569444553948044,0.5296803076645616,0.04324930407590806,0.23518653467711184,0.20646126831877917,0.0748011682220687,0.25872611241983745,0.20440062779039106,0.7285129679304211,0.24802544308630073,0.11094840055657791,0.6965079687083868,0.7524154547716985,0.3439153615184356,0.20681619707107413,0.21659251793300968,0.006381788874633521,0.2674580574224156,0.238934007710689,0.04811247867061661,LR
0.7756193381654971,0.08685443526636982,0.23063805084629702,0.5089743404569348,0.7314814977666321,0.5684930947598057,0.04321696351744166,0.23514297753675076,0.20650752740851056,0.0776140910780049,0.24579413680421652,0.21479925593476404,0.7360163593681315,0.22590833500495014,0.14744526158495505,0.6971428861351444,0.7681159337285588,0.3439153615184356,0.20611886465972604,0.2163728250403628,0.006748342285695123,0.22863594995717204,0.23419363211563868,0.07376144969570791,LR
0.7863361517906624,0.0931141364250124,0.21289668381927734,0.4987179297698868,0.7337963162315668,0.5570775665045566,0.04262795249516035,0.2351013780206755,0.20615399291444977,0.06051668119867478,0.24088142326355264,0.20010994536723262,0.7414733992628028,0.23696688904562535,0.13138654705946023,0.7060317800145091,0.7632850149297276,0.3068782975266644,0.20587862909901936,0.21601150830100468,0.006626157815341256,0.24457186449891286,0.22880832973037776,0.056887996463350875,LR
0.7937037382510933,0.08450676689367731,0.22586148058026528,0.4897435725180789,0.7291666793016972,0.5753424057312201,0.04225362773333651,0.23470544850885317,0.2061530341768388,0.06519983897942148,0.23015176208186655,0.21109276083600675,0.7244200692645335,0.2906794960560627,0.13722618833351374,0.7028571762458017,0.77294685592896,0.2936507796233299,0.2067603585353424,0.21606912545603318,0.005991738450042895,0.2905496392567702,0.24612232242949547,0.036953027842851226,LR
0.7796382461550281,0.07824706573503508,0.22620274402642232,0.5038461435108473,0.7337963162315668,0.5342465249483963,0.042057520091572036,0.23457918174241285,0.20602911734061521,0.07030233489712877,0.24095466484376507,0.21012458521410612,0.7353342328737943,0.2559243178185724,0.18394152465702723,0.7079365364535118,0.7741545793594955,0.32539681219450656,0.2063279345260706,0.21596972486796878,0.006315997236751183,0.23451038166304275,0.23863486971345302,0.07311278854059605,LR
0.7762892933372108,0.08215941902178671,0.2210850500617544,0.4871794656475986,0.7546296520919062,0.543378944561728,0.04173342640991922,0.23465552908956283,0.20584192382206482,0.06880206548718752,0.2456997058360181,0.2058460928956304,0.7298772209190957,0.24328624766243268,0.134306367696487,0.6971428861351444,0.7886473317215693,0.34126987180020346,0.20606302612399405,0.2159376175983727,0.006419384096280762,0.25133013770837453,0.23925258353948273,0.06075104219602835,LR
0.7809778821515383,0.0719873645763925,0.2231320717486132,0.5076922954191312,0.7615740923246738,0.5388127123235557,0.04149156031840988,0.234595821548843,0.20567893842819268,0.0658341125978852,0.23879472918580244,0.20679996858703786,0.7264665884474093,0.2527646385101688,0.186861345294054,0.7085714663564586,0.7826086829263816,0.3148148186654911,0.20561696712343897,0.2160438354834062,0.006879925561461135,0.2328482242867497,0.24647322644130104,0.08136772476935371,LR
0.7950433742476036,0.08372442443664775,0.22483796973683584,0.5166666442735025,0.7546296520919062,0.547945146891225,0.0412483180329233,0.2343153918698885,0.20559768541565943,0.06360806564320517,0.22895686485500474,0.21015623260126273,0.7360163593681315,0.2717220672831158,0.10510935723882904,0.7117460618077067,0.7801932360653108,0.32539681219450656,0.2066415393255874,0.21584877282496998,0.006142119336631859,0.28791664607629974,0.23302142856833016,0.027239636915017185,LR
0.7655724797120456,0.06103264717316682,0.21562609265092944,0.515384599235699,0.800925945580418,0.5022830488245666,0.041020901978175726,0.23472649296992645,0.20516912970353657,0.0645148761356112,0.25086254628269034,0.1983618374707408,0.7414733992628028,0.21011058554040668,0.11532843049027036,0.6863209897244442,0.8043478154248063,0.34126987180020346,0.2056254078323288,0.21560862804141612,0.006362991263810569,0.23095442528167626,0.2266689406065066,0.06557261906237559,LR
0.7682517517050662,0.07042235916153147,0.20846137699940268,0.511538447327415,0.7962963086505485,0.5022830488245666,0.040695088054051726,0.23509893099031803,0.20465860192567234,0.06010853418938847,0.25198742640142474,0.19306547141127406,0.7353342328737943,0.24486576377789718,0.1489048729253158,0.6863209897244442,0.7789854968135201,0.36507936590450996,0.2049495018358544,0.21547404140447932,0.006616759009929112,0.2436391208736905,0.235653720178755,0.06349442440618695,LR
0.7588745740764111,0.08137707656475715,0.2231320717486132,0.5282051083957907,0.7754629879522456,0.5068492661084013,0.040839932470161884,0.23557610191000505,0.20443281921827902,0.07809794277449773,0.2604074442926383,0.20682598977203318,0.7435197787458147,0.2274878511204146,0.15182469356234254,0.7003174899038519,0.7270531361604123,0.36243386974024566,0.20415412734432584,0.21496692247510632,0.007025607045344027,0.2256421105949794,0.22807542117627422,0.07085280349698597,LR
0.8024112350549517,0.07824706573503508,0.21255556012064125,0.5371794748847788,0.7870370651148827,0.5182647794093127,0.040435675489331704,0.235307417976766,0.2040771275645931,0.049375584448414014,0.22317584704578483,0.19893594451626967,0.734652106379457,0.2306475304288182,0.14306523165126228,0.6888889234063457,0.7524154547716985,0.3333333333333333,0.20335225999980544,0.21472787725557968,0.007284074194169977,0.2351610372603282,0.2352526870224058,0.06966290277932752,LR
0.7695913877015764,0.05164293518480252,0.21289668381927734,0.5166666442735025,0.800925945580418,0.536529618635976,0.04010504488628711,0.23558540062536304,0.2036941118889935,0.05841242004515262,0.24553848223177696,0.1951605284410379,0.7353342328737943,0.20537139011653863,0.06423306423306442,0.7650793876553266,0.8381642296923509,0.2486772291488188,0.20480665907002873,0.21469357085792917,0.006720145869460026,0.2546194488370561,0.2282472925289953,0.04867850783144739,LR
0.7762892933372108,0.05712029388641519,0.2231320717486132,0.6025640900756072,0.6643518684177808,0.5319634013521413,0.040423977840524906,0.2350773971231733,0.20351027395208168,0.06443225928131209,0.2393355192183143,0.2050499852898254,0.7319236004021077,0.24012656835402893,0.1591239461767571,0.8234920737106566,0.8804347396161543,0.04232807808432239,0.20708629975554413,0.21506676288878163,0.005897750395924124,0.23535510146932861,0.2391474146403177,0.07291447175431885,LR
0.7635631628907387,0.08998412559529033,0.23814402994398082,0.5961538396942796,0.6273148336269714,0.5684930947598057,0.04122389058982641,0.234753899709929,0.20374732182640456,0.08958761023672183,0.25579644921134026,0.22124453936055855,0.7387448932854535,0.24328624766243268,0.1547445141993693,0.8292063762975029,0.8466183095273543,0.1719576114470441,0.20952761248056215,0.21516352452318066,0.0054325095280390165,0.23838806252882658,0.23304864153251098,0.06527514388296039,LR
0.7762892933372108,0.08685443526636982,0.23097931429245405,0.5987179381673233,0.6018518759987992,0.5890410426283864,0.04177230388977788,0.23409026507701056,0.20390311668819422,0.07757854279009926,0.2451483211095133,0.2151316707124531,0.7298772209190957,0.23380720973722177,0.18832095663441503,0.8196825525151915,0.8055555467659693,0.16666666666666663,0.2109177323061641,0.21528821508387214,0.005606387428157005,0.2153798716808329,0.2427902688829919,0.09147774926973978,LR
0.7930340574262967,0.09859149512662507,0.22756737856848785,0.6115384557248517,0.6296296520919062,0.5799086230150547,0.0422044287986483,0.23335126190908503,0.20401840488591866,0.07021181842329491,0.23381890812004993,0.21409199543808763,0.716916789586714,0.25750383393403686,0.14306523165126228,0.8069841623927402,0.8357487828312801,0.12698406097253295,0.21337138145186701,0.21573573764296758,0.004929673438505331,0.26214059514396787,0.2516492140719981,0.06370513599160565,LR
0.8124580935084034,0.09780883216879359,0.20846137699940268,0.560256393892175,0.7060185355898487,0.5730592970893027,0.041844210025091796,0.2326660934090215,0.2037748855327214,0.046158135242144585,0.21958148194894464,0.1977075570444152,0.7353342328737943,0.2511851223947043,0.1678828101315324,0.8177778127111076,0.8538647608593537,0.14021159620391085,0.21544065370043927,0.21593937690081633,0.00443623615438379,0.23899290455953087,0.23727340306939806,0.0684771336613833,LR
0.8245142687831617,0.10093884299851566,0.23063805084629702,0.48589742060979496,0.7337963162315668,0.49543373785315237,0.04131575153781106,0.2318370395239449,0.20377752206115152,0.059160579845239904,0.20595255972413257,0.21845511521407107,0.734652106379457,0.2180094602726785,0.23357668161756748,0.8165079445877543,0.8647342796448002,0.05820108570588903,0.2156640078433665,0.2162408773570914,0.004873280606035137,0.17654386571786249,0.24123994835969703,0.12001470849498307,LR
0.7883454686119693,0.10876354957201928,0.22040266291696117,0.5025640816781707,0.7893518684177809,0.49086752056931765,0.0411227403324955,0.23201714095824724,0.20358673327656004,0.06916446053333607,0.24164285931444046,0.20856706491582364,0.7278308414360838,0.24960495920176523,0.14744526158495505,0.7898412962194984,0.8743961620166152,0.10582010857058886,0.2173326710623283,0.2166248451154111,0.004140173783911934,0.250341800092245,0.24223107316038864,0.06415548036044151,LR
0.7883454686119693,0.08059441360692568,0.22586148058026528,0.48076920686883445,0.8287037065114883,0.6141860137164177,0.04073465363089876,0.23224618299969704,0.20370921200636696,0.06667772613401515,0.23393268592075725,0.21044621643765288,0.7237380545300872,0.24960495920176523,0.21897817638873868,0.7619047797278894,0.8683575053107998,0.15079365904510003,0.21740863744233538,0.21716868948329465,0.004422137946266909,0.21399208094485087,0.25116572358809336,0.10007973987448224,LR
0.7970526910689105,0.08215941902178671,0.2347322339675355,0.5418012635790749,0.8402777836741254,0.4680364640588196,0.04079417402041653,0.23233868074720557,0.20365720049096936,0.07014269675236742,0.2251510665171741,0.21886465584638592,0.7387448932854535,0.23380720973722177,0.14014600897054047,0.7536508240689311,0.8562801918991693,0.24603177408667343,0.21790469141092958,0.21723246419687584,0.004257658851559729,0.23817083415694806,0.23164441165902905,0.06423398075500955,LR
0.7883454686119693,0.0790297286928662,0.2347322339675355,0.44230767938855914,0.8287037065114883,0.4063926503617529,0.04031869900126178,0.23252122921186535,0.2034462782165467,0.07325547599980373,0.23205788572286673,0.21814543967011693,0.734652106379457,0.2306475304288182,0.17810188338297372,0.7371428711637174,0.8357487828312801,0.23015871448097655,0.21747291668695695,0.21734242059960196,0.00453022420850256,0.21682840399947295,0.2377523921607315,0.08593727405314111,LR
0.8124580935084034,0.08372442443664775,0.23063805084629702,0.45641025038132765,0.803240748883316,0.45205467365672286,0.03966947949247335,0.23216640981004685,0.20330438505011672,0.06042155661344616,0.2126276775785874,0.21606351044539598,0.7196454073239543,0.23380720973722177,0.186861345294054,0.7257143158947815,0.8526569662331696,0.28571425848450316,0.2168450578026239,0.2178165526081571,0.005258631627919692,0.21911753805099832,0.25158885448979246,0.09653895891950418,LR
0.8044205518762585,0.06572766341774992,0.2241555825920426,0.4705127961817864,0.8148148260459531,0.43835605171389425,0.03899652063757689,0.23195743341752745,0.20296882688626233,0.05461500710472007,0.21657443141041183,0.208041015013755,0.7223737456614671,0.21327026484881026,0.12554750374171167,0.7174603519183639,0.8635265641248924,0.3333333333333333,0.216352899545825,0.2181312478327593,0.005761467717452041,0.23337070484944322,0.24380942508287734,0.0785747633626267,LR
0.8030809158797483,0.025821467592401084,0.2159673560970865,0.4871794656475986,0.6962604352717492,0.4063926503617529,0.03814534466262106,0.23104566990637176,0.20236386345371332,0.03959980527437811,0.2097901421439423,0.19661677710041958,0.7244200692645335,0.17693492341838105,0.2043790732036049,0.7250793984680238,0.8683575053107998,0.3915344017111789,0.2142862244384495,0.21853896617406787,0.007777511478290183,0.16175329034064712,0.2462324019387383,0.1358139458016754,LR
0.7836568797976418,0.06338031554585934,0.2231320717486132,0.4794871618310309,0.6962604352717492,0.3812784852093376,0.03772354120858069,0.23067567891633747,0.20187155169045795,0.06258868557243082,0.23439424606775636,0.2060134724099249,0.7312414739077704,0.16745653257064455,0.14160562031090154,0.6863209897244442,0.8478261041535383,0.4788360129419691,0.21197347020267443,0.21862341269136157,0.009473995855126108,0.18562936515780473,0.23549494378624125,0.10803306932411165,LR
0.8097788215153827,0.08137707656475715,0.21119078583105477,0.5064102335864544,0.8796296520919062,0.3995432646186502,0.03711870395555987,0.23082592658027998,0.20127497721200524,0.045675929299721515,0.21762238483797952,0.19834284903844684,0.7414733992628028,0.2069509062320031,0.12554750374171167,0.7034920978312891,0.8297101340360924,0.45767195657176446,0.21102031938343882,0.21843692663233796,0.010207102677249311,0.22311361352704756,0.22723734372300566,0.07209641501092823,LR
0.7716007045228832,0.09467914183987344,0.21972027577216793,0.5025640816781707,0.9745370272097911,0.4337898942474103,0.03708773959107072,0.23209006246289687,0.20095068421508044,0.07289242265202708,0.2530994086318197,0.20573919505456834,0.7496589451348231,0.22116913958108209,0.14744526158495505,0.719365116674826,0.7633828438421538,0.44973547008902454,0.21042817119056215,0.2178930822644545,0.01086031965337196,0.22115495486591566,0.2222158357010044,0.06943566479505307,LR
0.7789685653302314,0.06964001670450191,0.22244968460381995,0.48205126870151116,0.9722222390689298,0.40410957162851097,0.036766742345867305,0.23312956095870727,0.20053722862033105,0.06565933351568293,0.24010524676884867,0.205863674777384,0.7530695776065097,0.22432881888948564,0.10948878921621685,0.7206349515283416,0.7633828438421538,0.42592592400058776,0.2104164840551764,0.21724565896520293,0.01093081069396037,0.24258798263820253,0.21689171133296206,0.04852563864202674,LR
0.7561955764303077,0.1001565005414861,0.21869676492873852,0.45256405648586095,0.9120369893046993,0.38812772140906354,0.0365850847408646,0.2344587878488303,0.2000710424569759,0.08050041456545025,0.2681618390177705,0.20472343113938807,0.74215552575714,0.21958897638814298,0.11824825112729712,0.7161905129061187,0.8321255967184185,0.322751305148231,0.21016196421788727,0.21710183599043711,0.010865019056078033,0.2369709305198657,0.22664909355744242,0.0609163061845917,LR
0.7762892933372108,0.08372442443664775,0.236097008257122,0.424358914500324,0.8564814674425587,0.4246574297710656,0.036243444586001594,0.23497364303602078,0.19999889745174745,0.08081080378299604,0.24350890737381486,0.21932811424941176,0.7476125377118387,0.216429944157214,0.1737224514055859,0.7149206655764141,0.8152173816740185,0.23280425618333903,0.20900558709999972,0.2168546539971088,0.011043596358902093,0.20391258153785335,0.22558103586553274,0.08554477208030213,LR
0.7642331180624523,0.10641620170012868,0.2166496034943588,0.44999998320512696,0.715277798836162,0.4452054374569969,0.03601534043426515,0.23521736725961473,0.199687547412571,0.07676389452559639,0.2630063687930065,0.20390177119876798,0.7476125377118387,0.20221171080813505,0.08759103137297349,0.7047619326848044,0.8031400840836431,0.2037036786743076,0.20852381740798823,0.2164425373996912,0.010357483563838275,0.2372401495684259,0.2193073222737064,0.05462387982002774,LR
0.7823175181480486,0.07276970703342206,0.21801437778394528,0.4346153755719915,0.6689815053476503,0.47945199231406865,0.03534238157936869,0.23472453534564064,0.19940591823933582,0.06146957280503308,0.23865930135823973,0.20239465229484563,0.7380627667911162,0.2274878511204146,0.17810188338297372,0.7060317800145091,0.8079710094482955,0.1216931161921555,0.20747652022036747,0.21638799902393904,0.0100755194014833,0.21327708045068206,0.2346513418966352,0.08598272164999647,LR
0.8077695046940758,0.08685443526636982,0.21767325408530916,0.423076877859957,0.6689815053476503,0.48858439697306266,0.0344354697483319,0.23383773154413004,0.19919739280894042,0.05296694897931983,0.2196468926683796,0.2046334119048092,0.734652106379457,0.21958897638814298,0.17518206274594697,0.6914286085006764,0.811594195561157,0.10317463618040015,0.20601368044125434,0.2164018535306825,0.009845248668893782,0.2092707097911313,0.23708188927636598,0.0911720108908973,LR
0.7809778821515383,0.08998412559529033,0.22961454000286757,0.40769227022682153,0.6666666868827157,0.49999992522831166,0.033918364861364014,0.23343299272302104,0.1992206421960077,0.07516553817310105,0.2420219651038418,0.21446191823018437,0.7517053246178351,0.2274878511204146,0.1737224514055859,0.6838095627827625,0.8067632701965048,0.11375652574115504,0.20447617285273248,0.21606912545603318,0.009398805411831626,0.21192892617118017,0.2224480666359311,0.07675685948842635,LR
0.8024112350549517,0.08294208197961819,0.22552035688162908,0.4102563435075556,0.6527777912551437,0.5182647794093127,0.03317659630760304,0.23256233932186915,0.19923070894092315,0.06064932897669285,0.22216336281114998,0.21099523999854658,0.7387448932854535,0.29541869147993094,0.19416059790846854,0.6742857506448942,0.7777777733829846,0.1216931161921555,0.2039937538754218,0.21597126425760696,0.008360237413824422,0.26135816119786526,0.23802493102004638,0.05197965600300832,LR
0.816476727151017,0.08607177230853834,0.2149437055061362,0.41538457404338924,0.6481481694873108,0.5570775665045566,0.03213516151528614,0.23146117566105298,0.19914274476511273,0.046676547774100914,0.21219007065278975,0.20246990274875143,0.7605729969841929,0.2322276936217573,0.1489048729253158,0.6819047971945541,0.7632850149297276,0.12698406097253295,0.2028217939103532,0.21528381682776312,0.007500246718641279,0.22670302925479346,0.21325724604917068,0.057896106793590224,LR
0.8077695046940758,0.0649450004599188,0.2030024195885777,0.39615385648915274,0.6388889107896085,0.5456620532036454,0.030784771175066568,0.23043684875345824,0.1987592497207078,0.036421854165781926,0.21681396362242725,0.1892537194470849,0.7455661582288267,0.2085310694249422,0.11386822119360467,0.6679365514249389,0.7475845373176738,0.14814818665491128,0.20141998694936553,0.2147555862690667,0.006875226158755062,0.2293792622059696,0.22301319601237835,0.06374232038903138,LR
0.7729403405193935,0.057902956844246664,0.19481405334610064,0.40897430686718855,0.6087963162315667,0.563926877475971,0.02971443630922662,0.2299317816876972,0.19823434087867822,0.044823099540801575,0.24702081811305743,0.17985257006086858,0.7592087439955184,0.2069509062320031,0.1445254409479283,0.6584127401188167,0.7089371897748493,0.13227517903334468,0.19930526472984866,0.21386955757589937,0.006381788874633521,0.20865196926270013,0.21322143951735378,0.07185678222751109,LR
0.7515069876159801,0.06025030471613726,0.20641421556502296,0.40897430686718855,0.5625000227430551,0.5844748253445518,0.02906521680043867,0.22958723981337964,0.19796613403199742,0.06394577437830784,0.26443849503753747,0.18952870007771183,0.7564802100781963,0.2069509062320031,0.12554750374171167,0.661587343887524,0.71014492902664,0.1375661238137221,0.19757362083686392,0.21303059022309895,0.005756768314747304,0.219298733280622,0.21435885957661158,0.06450666633613936,LR
0.7970526910689105,0.05633795142938563,0.211873172975848,0.43589741221235845,0.5879629803712273,0.591324136315966,0.028219201552897383,0.22848607615256344,0.1978486886746482,0.046185783910515484,0.2228174700055001,0.19585747423375222,0.7489768186404858,0.2069509062320031,0.13722618833351374,0.6476190898004491,0.6932367060716124,0.16666666666666663,0.19550954287068514,0.21231367447732444,0.005517098776745642,0.2150859441918693,0.22157704717339102,0.0736003173068588,LR
0.796383010244114,0.05712029388641519,0.19651995133432332,0.46153843053254195,0.5694444629758226,0.6301369234112101,0.027342565989361373,0.22742700141389416,0.1975440497987489,0.034948904273398,0.22599679948113638,0.18222799949833018,0.734652106379457,0.19431283607586322,0.12846672642243348,0.6501587636662097,0.731884053614437,0.15079365904510003,0.19343702419561676,0.21199040265330962,0.005409012514508656,0.21317670241154385,0.23276894136683274,0.08444576655635323,LR
0.8064298686975655,0.05007825027074305,0.21323780751791355,0.46282050076265524,0.560185219440157,0.6187214026331299,0.026596324805174237,0.2260268106434075,0.19751936230526532,0.04153455375872133,0.2129068247333592,0.1968090056742591,0.7476125377118387,0.21958897638814298,0.15182469356234254,0.6679365514249389,0.7403381571813231,0.1957671575354809,0.19193847372504722,0.2115244074185562,0.005239834017095403,0.2180921377742638,0.22422079687399724,0.07345571131686543,LR
0.8010715990584415,0.04694823944102098,0.23166156168972643,0.4935897328237993,0.578703721673525,0.6369862343826245,0.026386799272131292,0.22476365357293351,0.19785995384157776,0.057618179131113986,0.21391838769025537,0.21254783736993815,0.7448840317344894,0.216429944157214,0.18978056797477577,0.6603175048752788,0.7499999920893723,0.20634922037667003,0.18973934441663343,0.2112112515835921,0.005592289220040124,0.1960625041180734,0.22906470449818672,0.09451860665931242,LR
0.8030809158797483,0.039123532867517366,0.20743772640845237,0.4910256175558825,0.6226852118591387,0.6164382969820801,0.02571487256271764,0.2237407948835531,0.19769289381285854,0.036064067231028604,0.214193389095204,0.1904206875453465,0.7796725667656103,0.2417060844694936,0.15766373688009142,0.6685714605342371,0.762077288888685,0.2724867232531253,0.1885115459158333,0.2102742031195599,0.0051129501440368,0.22531112044541088,0.19744651386010278,0.046819287960105926,LR
0.8044205518762585,0.05555528847155415,0.21050839868626153,0.46666663587606594,0.6712963238125851,0.586757933986469,0.025025743428587734,0.22301500567955743,0.1975498022244151,0.04159314260360264,0.21638050244645313,0.19486233972649614,0.7517053246178351,0.2717220672831158,0.1912407772714418,0.6761905154013566,0.7632850149297276,0.3280423365688256,0.1878544691930359,0.2099614871102068,0.005131747754859752,0.23943353841338866,0.22539034050751366,0.05796221238901556,LR
0.803750871051462,0.07042235916153147,0.20368480673337094,0.4884615106854021,0.7453703933942039,0.541095820965473,0.024470793207244487,0.22274974758881855,0.19721951711742125,0.04006785773180192,0.22154979183729492,0.19025658998231273,0.7407912727684655,0.1927333199603989,0.15620412553973034,0.6876190856417195,0.7705313948287594,0.3333333333333333,0.186354620151868,0.20976950323104696,0.006001137255455039,0.1957026874547013,0.2293460415338909,0.09503092502386055,LR
0.7856664709658657,0.07355236999125354,0.21562609265092944,0.4987179297698868,0.7384259531614363,0.5456620532036454,0.024348311943265116,0.22278596363810765,0.19710446860409964,0.05829227999806452,0.23630129098649502,0.20049205826401176,0.737380640296779,0.22274865569654656,0.14744526158495505,0.6946032122693838,0.7838164221781723,0.3756613888911993,0.18580077979164447,0.2097121059888239,0.006565065580163654,0.2256822618106346,0.23288904670498428,0.07491416601594063,LR
0.8024112350549517,0.061815310130998294,0.22586148058026528,0.4999999748076903,0.7569444553948044,0.49543373785315237,0.024186953199427572,0.22250210811665277,0.1970483824538553,0.055937864225947626,0.21714700552490263,0.209056310078755,0.7291950944247584,0.2985783707883345,0.14598505228828904,0.6946032122693838,0.7995168979707816,0.38624337029058436,0.1869169012209811,0.20993619713757972,0.006217309779926341,0.2914365693154116,0.24295763884314175,0.03339158888930318,LR
0.7916944214297864,0.0649450004599188,0.20334368303473477,0.4846153587771183,0.7685185325574413,0.48173510095598593,0.023689115028141555,0.22257160377880222,0.1965493595273231,0.044110488028620394,0.23092148963240092,0.1889142719166948,0.7517053246178351,0.16429685326224097,0.14598505228828904,0.7028571762458017,0.8260869479232308,0.3888889119929468,0.18527031370219246,0.20973145831570367,0.007443853886171086,0.175282190979772,0.2181664238656435,0.10167866896383658,LR
0.8050902327010552,0.05868529930127622,0.2139201946627068,0.4743589480900703,0.7615740923246738,0.47488577503023394,0.023151023183019637,0.2222892164755617,0.19623465390650804,0.04466082818952881,0.21598527429662748,0.1982441560755364,0.7496589451348231,0.19905203149973147,0.17810188338297372,0.6996825724770942,0.8236714852409046,0.3809523735260766,0.18387435030889765,0.20963381703008288,0.008501219495001242,0.1867870585425315,0.2234050217748318,0.09699756648776849,LR
0.8024112350549517,0.07511737540611457,0.2002730107569257,0.4910256175558825,0.7962963086505485,0.4840182095979033,0.022608802755965995,0.22235577570128226,0.19573083729192098,0.039153147619861155,0.2243868666330708,0.18761907329417662,0.7285129679304211,0.21011058554040668,0.1386857996738748,0.6996825724770942,0.8321255967184185,0.36507936590450996,0.18338219205209877,0.2098970526582092,0.009163835276536036,0.22234096000527118,0.2393780087052185,0.08311952304812988,LR
0.8030809158797483,0.0649450004599188,0.2030024195885777,0.5038461435108473,0.8287037065114883,0.5045661425121463,0.022158099228402575,0.22246001919450606,0.19533200244573976,0.0385853624658135,0.22094957939064855,0.1890666482252261,0.7482946921461486,0.2180094602726785,0.17664227204261265,0.6977778160380913,0.8297101340360924,0.3994708881939188,0.18240047267969797,0.20986032721969874,0.01000502836089489,0.20347143292482053,0.2252483420327655,0.08560674607601325,LR
0.7970526910689105,0.06729266883261097,0.21528496895229327,0.4794871618310309,0.8842592283736289,0.4771688836721513,0.0218216198009541,0.22295089348419433,0.1950836894044873,0.0513735298890333,0.22485948211293208,0.2000159409061233,0.7428376522514774,0.22590833500495014,0.14744526158495505,0.7098413053687039,0.8381642296923509,0.41005291637902114,0.1825920118429639,0.2100872772349255,0.010615950712664225,0.22681679103248348,0.2283021276748635,0.07013803674644876,LR
0.7876757877871726,0.07042235916153147,0.2002730107569257,0.4935897328237993,0.8680555597672325,0.4726026813426543,0.021286968440776016,0.22403199149608016,0.1943761410475597,0.044919540729286375,0.23625937284939225,0.18655595551080653,0.7585265895612083,0.23538737293016088,0.14014600897054047,0.6717460643029446,0.7487922607482094,0.46560847771059116,0.18180962305741968,0.20948691527604077,0.010949608304784659,0.2344017674771036,0.2145849522489411,0.05299602953267496,LR
0.7883454686119693,0.06103264717316682,0.20573182842022972,0.5166666442735025,0.8078703858131856,0.5456620532036454,0.021091548895999918,0.22429186612003266,0.19411392631094793,0.0465662822514309,0.23254892675749855,0.1905156297068163,0.7455661582288267,0.24644527989336165,0.10510935723882904,0.6349206705668897,0.7089371897748493,0.43915344190392225,0.18096230574195468,0.20893493413435546,0.010813325626312575,0.26473755518218367,0.22386048085954266,0.03719266062626837,LR
0.8057601878727688,0.05712029388641519,0.19720233847911656,0.5166666442735025,0.7986111422775198,0.563926877475971,0.02057685234849257,0.22418615440859432,0.19375032507197137,0.031104093615757937,0.2176362040040573,0.18320555212383274,0.7578444630668708,0.2669828718592478,0.1270071150820724,0.6304762361033966,0.7644927460335718,0.4947090205635357,0.18009875629400945,0.2084407900605042,0.01069584055866478,0.2674570279040655,0.21547950171810376,0.028177510050116965,LR
0.7937037382510933,0.0406885382823784,0.19720233847911656,0.5128204923652186,0.7708333358603394,0.547945146891225,0.020087615389564436,0.22409316725501432,0.19331362009015468,0.032953262888476095,0.2243421846627524,0.1811184655471304,0.7653478824445541,0.24486576377789718,0.11532843049027036,0.6679365514249389,0.7608695583385846,0.5105820281851023,0.179786450065091,0.20776939626545832,0.010700539961370851,0.2534282961059499,0.20742998875691265,0.03260658494362523,LR
0.7635631628907387,0.025821467592401084,0.20641421556502296,0.5179486977087426,0.7314814977666321,0.543378944561728,0.020012268769307655,0.22425613947681505,0.19299867478493715,0.05034460444465491,0.24560205039573496,0.18662182896111007,0.7435197787458147,0.1832542820351882,0.10364914794216334,0.6965079687083868,0.7306763222732738,0.4920635308453036,0.1791332690540889,0.20732473257283382,0.011640420502553213,0.21480694471898282,0.22311775108528364,0.07508356160421821,LR
0.7736100213441902,0.06572766341774992,0.20880250069803885,0.5628205007626552,0.6435185325574414,0.5547944578626394,0.0203336100630055,0.22401975634429325,0.19283880528830077,0.056784769270216626,0.24609954037453635,0.19311821705653506,0.7394270197797908,0.1958923521913279,0.10948878921621685,0.680634958182309,0.7633828438421538,0.45767195657176446,0.1783359467066628,0.2071160353204596,0.012364128519264272,0.22300448458193334,0.22746916544042592,0.07237736379148652,LR
0.7829871989728451,0.07355236999125354,0.20368480673337094,0.6243589648849435,0.6435185325574414,0.6369862343826245,0.020885807896394753,0.22367129922140386,0.19280644789392903,0.05041273866314072,0.2405962878034805,0.18972983680497368,0.7537517041008471,0.21011058554040668,0.07883216741819818,0.6774603544136016,0.7065217350031509,0.3703703557378003,0.17807623258697997,0.206385924806358,0.0120539679406742,0.24656501202477443,0.21382339846938409,0.0429769002259996,LR
0.7856664709658657,0.09076678855312145,0.19959062361213245,0.6064102503813276,0.6458333510223762,0.6141860137164177,0.02131277207785015,0.22339380597887826,0.19268348979531677,0.0501026785964085,0.24307959194766407,0.18790061782732467,0.7476125377118387,0.21958897638814298,0.1591239461767571,0.6831746441083858,0.7173913012523632,0.3703703557378003,0.1771373660443268,0.20594873814911882,0.01252390821126538,0.21424688673650932,0.22471451779556392,0.07683949148270744,LR
0.7883454686119693,0.06651000587477984,0.2053907047215936,0.5692307595414194,0.6736111271154832,0.6461186689502938,0.02145417600901696,0.22305856281991868,0.1926969121218708,0.04758105421080956,0.23391518164372535,0.19076294817681738,0.7551159570895217,0.21011058554040668,0.17664227204261265,0.674920668071652,0.7342995162967632,0.35185184626837124,0.1755472663465691,0.20546646936676202,0.013134830563034716,0.19518123641035787,0.21898772340114644,0.08690406838623933,LR
0.7916944214297864,0.0923317939679825,0.22381445889340643,0.5576922954191312,0.6550926097200785,0.7214611344988645,0.021916577185387667,0.22264746171988056,0.19328102301138048,0.06636799521809697,0.23413674893983963,0.2100151086970537,0.7264665884474093,0.2417060844694936,0.13722618833351374,0.6641270177532845,0.7125603837983385,0.34126987180020346,0.17511029734020278,0.20540687299648444,0.013191223395506246,0.24946413569875478,0.2423331729282551,0.06491982630754832,LR
0.825853904779672,0.09780883216879359,0.2241555825920426,0.5487179356480923,0.6273148336269714,0.6712328191483714,0.02202701675206532,0.2214953998276311,0.1937831618351484,0.0525736137566604,0.20510498420469314,0.21236686120042053,0.7319236004021077,0.22116913958108209,0.16350337815414492,0.6501587636662097,0.7330917849556,0.3625238087316704,0.17355460976330314,0.20535365409756495,0.013820943358098534,0.2174816333926336,0.23867620068160736,0.08623888083227053,LR
0.8084391855188724,0.095461484296903,0.2094848878428321,0.5346153688540423,0.6712963238125851,0.641552451666459,0.02195992729567248,0.22094334977900867,0.1939159469942736,0.0482571299826439,0.22242961207758266,0.1982183693156312,0.7312414739077704,0.29383917536446647,0.17664227204261265,0.6863209897244442,0.7439613432941847,0.31216932894725896,0.17421558219789587,0.2054446979990222,0.013388598309154596,0.2712075632536075,0.24326843953931238,0.04912058900085596,LR
0.8050902327010552,0.09780883216879359,0.21255556012064125,0.5435897235866191,0.6435185325574414,0.6164382969820801,0.022042498934309897,0.22033452862609512,0.19404585594056586,0.052753659251885986,0.2254643009482712,0.20108327834111428,0.7230560397956408,0.21169010165587115,0.20875910313729734,0.6768254369868439,0.7330917849556,0.3730158939745541,0.1725521132613278,0.2056188689409404,0.014779621510105184,0.1882268399551954,0.24929130279966727,0.11815962022335465,LR
0.7990622822371345,0.07746472327800517,0.236097008257122,0.5692307595414194,0.6689815053476503,0.6073058773687484,0.022621876598750524,0.21978688323211593,0.19453121685614122,0.06921679551275287,0.22204912437157345,0.21965185529876893,0.7428376522514774,0.2511851223947043,0.18832095663441503,0.6730159116326491,0.7415458885224862,0.37830688380784444,0.17179180017595647,0.20545613346490577,0.01515557372657893,0.22618312248797537,0.23217373450365933,0.07391431888512974,LR
0.8097788215153827,0.07589971786314413,0.21699086694051592,0.5782051167932273,0.7291666793016972,0.5936072449578833,0.022819704482986185,0.21939389015672253,0.1946330827273113,0.04894735923947703,0.21539934165492813,0.2029577413611424,0.7428376522514774,0.24328624766243268,0.0919704633503613,0.6704762294494291,0.7499999920893723,0.43386246246745797,0.1721047556901741,0.2051847610629776,0.014836014342576713,0.2694759133886804,0.22518961932058582,0.03466412160124389,LR
0.796383010244114,0.06885735374667043,0.22279094804997707,0.5423076760295845,0.7523148336269715,0.563926877475971,0.02298415966327313,0.2192964983484991,0.19474980903145203,0.05788610789366154,0.22459507540197654,0.20682223897059254,0.737380640296779,0.24486576377789718,0.08759103137297349,0.6768254369868439,0.7608695583385846,0.4126984060972533,0.17265534962390172,0.20505457268214985,0.014460062126102968,0.27432854813204194,0.22960262091045308,0.034693042799242325,LR
0.7856664709658657,0.07355236999125354,0.21869676492873852,0.5294871702284674,0.7847222314879113,0.5776255143731374,0.023126595739922748,0.21961069704638542,0.19481524287340365,0.06065755774704164,0.23579550950804692,0.20322404826343743,0.7482946921461486,0.22116913958108209,0.1649635874508106,0.6857143192217653,0.7705313948287594,0.41798943751784784,0.17183335443510575,0.2048584104596864,0.015099180894107401,0.21227587385517574,0.22457988523593236,0.07824836698521305,LR
0.7937037382510933,0.07746472327800517,0.22074378661559735,0.5423076760295845,0.7847222314879113,0.5753424057312201,0.023319606945238307,0.2197810103592583,0.19492621675187852,0.059526924701155594,0.22932767914475952,0.20579358167545952,0.7537517041008471,0.19115315676745964,0.19270038861180253,0.6685714605342371,0.7403381571813231,0.40476191961451347,0.1696024101470309,0.20445509037448686,0.016321025597646074,0.17134479804968042,0.22049753139129993,0.1066076674227503,LR
0.8124580935084034,0.08059441360692568,0.2053907047215936,0.5384615224418133,0.8078703858131856,0.5753424057312201,0.02307189202932557,0.2197741586742576,0.19477737273776854,0.03973311135402427,0.21598757749097383,0.1931711971268862,0.730559347413433,0.19431283607586322,0.1591239461767571,0.6641270177532845,0.7958937118579201,0.3915344017111789,0.16799218260499763,0.2046719244006629,0.01733609658212425,0.1982594962772617,0.2384202351313049,0.1008151646235906,LR
0.7983923270654208,0.05633795142938563,0.21630847979572268,0.525641009922747,0.8240740847436554,0.563926877475971,0.02294597028040285,0.21994985545391682,0.19474094070855008,0.04900561893354476,0.22093483894683213,0.199850202367459,0.7482946921461486,0.22274865569654656,0.12554750374171167,0.6787301934258467,0.8055555467659693,0.39417989142941107,0.16765650210530766,0.2045709844229603,0.017387790011889708,0.23420821802727823,0.22199117528994755,0.05916863950553093,LR
0.8117881383366895,0.0719873645763925,0.21972027577216793,0.48589742060979496,0.8217592814407574,0.5205479030055676,0.02258850389480132,0.21992685336855755,0.19470954205178967,0.04927651005341779,0.21226837926056402,0.20506358194504853,0.7496589451348231,0.23538737293016088,0.18394152465702723,0.6838095627827625,0.8043478154248063,0.41005291637902114,0.16692345900250316,0.20453689793811514,0.017932920725775372,0.2135529913685182,0.2252456821189734,0.07781454901523412,LR
0.7896851046084796,0.06025030471613726,0.20777898985460944,0.49615382289940646,0.800925945580418,0.5136985770798157,0.02225890543723954,0.22019994195643988,0.1944020269630571,0.04732662063163365,0.23086114594052778,0.19231390457257844,0.7469304112175011,0.2322276936217573,0.11240860985324361,0.6793651108526045,0.793478249175594,0.39682539847568665,0.1669981268119119,0.20440319095240014,0.017735545812127024,0.24905232835870078,0.22264510486530065,0.04825708466060998,LR
0.794373693422807,0.05946764175830578,0.21630847979572268,0.5166666442735025,0.7939815053476503,0.49086752056931765,0.022148465870561396,0.22031495238323623,0.19420428733078562,0.0515548919875146,0.22519620912636157,0.2000072671777914,0.7380627667911162,0.2559243178185724,0.13722618833351374,0.6977778160380913,0.8091787328788308,0.41798943751784784,0.16770389993214982,0.204544594886306,0.01765565596612647,0.25805855488568236,0.23290705227526934,0.05003367253767036,LR
0.8064298686975655,0.05946764175830578,0.21801437778394528,0.525641009922747,0.8171296293488511,0.5068492661084013,0.022014286957775228,0.22026796940037477,0.19410601672565694,0.04743161974128081,0.21433849033902097,0.20201793117513764,0.7380627667911162,0.22590833500495014,0.11678804183063142,0.6990476550503364,0.7789854968135201,0.41798943751784784,0.16808567968808355,0.20451622613440262,0.017787239241892478,0.2439222384199777,0.23029931371523324,0.05865632114098279,LR
0.8064298686975655,0.0743347124482831,0.19686121478048035,0.525641009922747,0.8078703858131856,0.5136985770798157,0.021605557346519377,0.22036193536609766,0.19365349257325898,0.03448414332411371,0.22117805626980167,0.1846378894240292,0.7414733992628028,0.2069509062320031,0.08905064271333454,0.6907936910739187,0.7995168979707816,0.3915344017111789,0.1682181338891216,0.20445355098484874,0.017740245214833094,0.2418415818343547,0.22478613085919769,0.05560306895226865,LR
0.7937037382510933,0.08372442443664775,0.220061539218325,0.5333333221367513,0.8310185401384598,0.5114154534835607,0.021794784018397156,0.22077107884184996,0.19363863214028834,0.060477183101002,0.2309330056041325,0.20584374864472985,0.7551159570895217,0.2085310694249422,0.15620412553973034,0.6907936910739187,0.8007246372225723,0.3465608547022765,0.16740587797981385,0.2042323187025637,0.018036307585304952,0.20479281972721897,0.21758247048389828,0.07832273578006685,LR
0.7957133294193173,0.052425598142633645,0.19651995133432332,0.525641009922747,0.6962604352717492,0.5045661425121463,0.021390527037566977,0.22041674884610274,0.19313193931286798,0.0341849452342417,0.2254679860592253,0.18173969203575935,0.732605726896445,0.22274865569654656,0.16642319879117168,0.6895238420807223,0.8393719689441417,0.44179894895019783,0.16689683830523575,0.20463014096762688,0.01888689947507595,0.2170538685181526,0.2383611032016187,0.08629259162855318,LR
0.7829871989728451,0.08685443526636982,0.22040266291696117,0.5166666442735025,0.6962604352717492,0.5182647794093127,0.021606589492002188,0.2204005984457442,0.19314727911464397,0.06635186682821391,0.24106475753351841,0.20601886418699605,0.7387448932854535,0.2417060844694936,0.16058355751711817,0.6787301934258467,0.8140096503328554,0.4126984060972533,0.16657933779392337,0.20480958981687597,0.019206458859078165,0.23403834749950597,0.23339749945678417,0.0689192148307907,LR
0.8044205518762585,0.06572766341774992,0.2067554790111801,0.5025640816781707,0.8773148639510449,0.5114154534835607,0.021203708705149735,0.22078282458756524,0.192870443629464,0.04104148583943805,0.21936452104152293,0.1925527837393381,0.7510231981234978,0.1279621589092862,0.134306367696487,0.6755555896571394,0.7971014431990832,0.4206349445641235,0.16414321935129927,0.20455559052657857,0.02066327369791243,0.15272801772418787,0.21661037429725788,0.11796543503679287,LR
0.7983923270654208,0.06572766341774992,0.2190378886273747,0.48589742060979496,0.8541666793016972,0.5228309817388097,0.020965627147077687,0.22111806774652482,0.19284503708277229,0.05331716544535246,0.2227046134825313,0.203246084221902,0.732605726896445,0.24644527989336165,0.15620412553973034,0.669206390437184,0.7971014431990832,0.31746032571176674,0.16386078024614414,0.20477946176252906,0.020536389824852487,0.2418987201027872,0.23860581527049302,0.06741531253486131,LR
0.7896851046084796,0.05712029388641519,0.19924949991349628,0.4743589480900703,0.8495371030199745,0.527397213976982,0.020387281628120358,0.22161138906657055,0.1924452434989801,0.04012973808482275,0.23145859455395884,0.18439994795763004,0.7612551234785302,0.21327026484881026,0.11386822119360467,0.674920668071652,0.7995168979707816,0.3677248608211552,0.16341537053088823,0.20437856071818947,0.020277922676027873,0.22934528810041516,0.209743090712284,0.053074529927242986,LR
0.7990622822371345,0.049295587312911573,0.19617882763568711,0.48589742060979496,0.8310185401384598,0.5159816707673953,0.019734965682883007,0.22175967910622707,0.19197785891361113,0.03165278802259659,0.2218363092139751,0.18125841732588951,0.7496589451348231,0.1958923521913279,0.1489048729253158,0.6761905154013566,0.8043478154248063,0.3201058154299989,0.16224405985111903,0.20426442597215977,0.02057398504649973,0.19977649156618574,0.22133622267082825,0.08525142850060116,LR
0.8064298686975655,0.04225354369723944,0.21426145810886382,0.49487176946416633,0.777777776093107,0.497716831540732,0.019312818180348197,0.22146309902691386,0.19178131770335347,0.04052998547457432,0.21092792015101583,0.19691707564077182,0.7428376522514774,0.21327026484881026,0.19416059790846854,0.6730159116326491,0.771739124587797,0.3809523735260766,0.16081952790465906,0.20422748062084375,0.021429276338976802,0.19167109359557227,0.23102853931177844,0.09956328991022105,LR
0.8064298686975655,0.04773058189805054,0.20232003244378446,0.5179486977087426,0.7546296520919062,0.5228309817388097,0.018872092059119897,0.22112883468009717,0.19144264364226332,0.03256651068209569,0.2140547367955566,0.18686563105476064,0.7360163593681315,0.2274878511204146,0.14744526158495505,0.6907936910739187,0.7801932360653108,0.43386246246745797,0.16079615363388758,0.20429543367772854,0.021871020193332882,0.2299305692824669,0.23425747004664937,0.07282357656060931,LR
0.7997319630619312,0.061815310130998294,0.19924949991349628,0.5487179356480923,0.7337963162315668,0.527397213976982,0.018708324975822307,0.22090860194793394,0.19108862977939686,0.03654265251449811,0.2237433541327138,0.18526474211481908,0.7380627667911162,0.22116913958108209,0.09634989532774878,0.684444481457139,0.7427536119530217,0.42592592400058776,0.16114936483665612,0.20409553293757238,0.021786430944626258,0.250486962179614,0.22871543735640706,0.05225647318385237,LR
0.8004019182336448,0.06025030471613726,0.2081201135532456,0.5705128129766596,0.7662037292545433,0.536529618635976,0.018795369244885878,0.22077450468435014,0.19093451270842668,0.042669794916002125,0.22139409589948486,0.19305187475605126,0.7817189741885949,0.2322276936217573,0.1591239461767571,0.6730159116326491,0.7427536119530217,0.45767195657176446,0.16036567748051353,0.20317805671322547,0.02185222258250993,0.21622047341371817,0.19541116828725388,0.05239281597441727,LR
0.8050902327010552,0.08528942985150878,0.20436719387816418,0.5769230633579872,0.7453703933942039,0.559360675146474,0.018947094630882733,0.22061691592933563,0.19081251334742505,0.0434327665027163,0.22379540632494022,0.19243322694341336,0.7482946921461486,0.22906801431335372,0.09489028398738805,0.6647619476562314,0.7173913012523632,0.4761904712396066,0.1603890517512848,0.20270788313516847,0.021744136320272944,0.2550744959478158,0.22019675652403803,0.041588682722063966,LR
0.7937037382510933,0.07589971786314413,0.21528496895229327,0.5833333221367513,0.7615740923246738,0.6027396660666489,0.01937440286083207,0.2206687929729118,0.19096543199638177,0.05491683840110351,0.22985096490023949,0.20076774216990906,0.7380627667911162,0.22906801431335372,0.19270038861180253,0.661587343887524,0.7246376813887139,0.5000000173280434,0.15912099756193376,0.2026113414135749,0.022876692372398918,0.2068163380444093,0.2357570475991409,0.09191569883943412,LR
0.7990622822371345,0.08372442443664775,0.20777898985460944,0.5999999916025636,0.7615740923246738,0.5981734622417181,0.019759049077485463,0.22068445396719907,0.19098844169904589,0.048490168758913904,0.22821062988680257,0.195087622238033,0.7503410716291605,0.24012656835402893,0.12846672642243348,0.6546032064471623,0.714975838570037,0.5343915222894088,0.15876518921796845,0.20217503440755757,0.023102263702282366,0.24640389240297816,0.22108025712052573,0.049004904208861035,LR
0.8144674103297102,0.0641626580028889,0.21255556012064125,0.5948717862590395,0.7662037292545433,0.6210045067887459,0.019919375675840196,0.22029586554644875,0.19112290464899054,0.04060799421747821,0.20922309569588257,0.19797339509653034,0.74215552575714,0.24012656835402893,0.2510944095271184,0.6507936935691566,0.7173913012523632,0.3625238087316704,0.15663163772477462,0.20207013599935683,0.02409853707593759,0.18317087533768198,0.23682858363985562,0.11107392671368428,LR
0.8218352711370582,0.08763677772339938,0.2067554790111801,0.5987179381673233,0.7986111422775198,0.6164382969820801,0.020091399923002216,0.2201211475789326,0.19119480996981653,0.038127184532808236,0.20910425086761325,0.19550091367178848,0.7769440607882612,0.22906801431335372,0.12846672642243348,0.6863209897244442,0.7403381571813231,0.5793650381078331,0.1566154055922944,0.20123732620510898,0.024319409003114963,0.2309461891348753,0.19763903023602575,0.0425802666534464,LR
0.8218352711370582,0.052425598142633645,0.2190378886273747,0.5846153755719914,0.8402777836741254,0.5936072449578833,0.020168122737236234,0.21985491067605084,0.19136378747375768,0.03969130920065364,0.19899829471490607,0.20282013383328384,0.7523874511121724,0.2274878511204146,0.16934301942819843,0.6863209897244442,0.7560386393024345,0.5978836914000227,0.1561738915888338,0.2009934429038624,0.025390872820064674,0.21407804572708716,0.22155760934183324,0.0743646632539656,LR
0.7876757877871726,0.06572766341774992,0.19515531679225778,0.5833333221367513,0.8055555825102875,0.5707761884473853,0.02025826344274872,0.22025964949715968,0.19103661826399926,0.039973062297386876,0.23593185861334798,0.18151065872278185,0.7394270197797908,0.21169010165587115,0.17518206274594697,0.645714325043987,0.6823671793755383,0.6349206514235335,0.15449094409328934,0.20069084288356,0.027021565559016924,0.20146747545628257,0.23260893732179952,0.09334110074079666,LR
0.7983923270654208,0.07824706573503508,0.2053907047215936,0.6141025541978954,0.7916666868827156,0.5936072449578833,0.020651854920254915,0.2204191958764602,0.19099155759628164,0.045675929299721515,0.22787528478998098,0.19236078959058836,0.7271487149417464,0.24012656835402893,0.22919665168387504,0.5955555904888853,0.6594202680721848,0.6349206514235335,0.15164252948566878,0.2006422421535551,0.02897181768197273,0.19956338126770778,0.24851542640738347,0.10875196767436426,LR
0.8024112350549517,0.07981207114989612,0.21084966213241857,0.5884615274802754,0.8634259834855097,0.5844748253445518,0.020940167558497987,0.2208298075704267,0.1910325436291525,0.048415122373335014,0.22382258401822655,0.19757252819254736,0.7482946921461486,0.2274878511204146,0.14306523165126228,0.5631746395337831,0.6582125525522771,0.6798942018980445,0.14884995341378,0.2000489174044448,0.030047980901627174,0.22897569101271675,0.22334629906265208,0.06432900754843332,LR
0.7856664709658657,0.05399060355749468,0.19856711276870304,0.5474358771743904,0.9004630486003925,0.5684930947598057,0.020815277955058564,0.22163145471550091,0.19074372392383485,0.04076434085410004,0.23434035132005276,0.18332276466885689,0.7455661582288267,0.22906801431335372,0.13284675635612592,0.5961905037569133,0.6678743558178158,0.6560846038254775,0.14705532884677203,0.19954399760312638,0.030917370402221124,0.23628784509455097,0.2250734015487458,0.06012303903948646,LR
0.7957133294193173,0.057902956844246664,0.20641421556502296,0.5320512603040746,0.8634259834855097,0.541095820965473,0.020646694192839894,0.22204793928232522,0.1905555716676738,0.042968663855060096,0.22522799320834047,0.19110567765846853,0.7285129679304211,0.216429944157214,0.15620412553973034,0.6069841540752807,0.6618357782182768,0.6507936590451001,0.1450925393872696,0.19936454875387732,0.03236478643564324,0.21837474056137582,0.24089743330677427,0.08750315034478279,LR
0.7434694459838355,0.06807501128964087,0.21835550148258145,0.5820512687015111,0.7916666868827156,0.497716831540732,0.021522297610893096,0.22309575768135068,0.1904618550661972,0.07835040144879031,0.2713618972425237,0.20055066453652384,0.7407912727684655,0.2274878511204146,0.1065689685791901,0.6393651050303829,0.6545893268862774,0.5767195657176444,0.14477503887595744,0.1988970141294857,0.03261855418176312,0.2497261481188641,0.227327371574431,0.051665654424737376,LR
0.7789685653302314,0.05320794059966356,0.2098260115414683,0.6038461435108473,0.7615740923246738,0.48173510095598593,0.021938940337518448,0.22325481465457955,0.19019844190757126,0.05216447929493242,0.23823182848756608,0.1929848291802974,0.7769440607882612,0.2417060844694936,0.11970786246765817,0.6361904971029457,0.6630434937381845,0.571428620937267,0.1442224970863323,0.19780360766077693,0.032430578073526915,0.24589582509718655,0.19754233213924477,0.030883707862847495,LR
0.811118457511893,0.0649450004599188,0.2139201946627068,0.6128205091600918,0.7337963162315668,0.586757933986469,0.02224307920650053,0.22274583234024692,0.19029287756225602,0.04337812746760259,0.2121426248492559,0.19913473699263098,0.7496589451348231,0.20063219469267038,0.18394152465702723,0.645714325043987,0.6775362381896308,0.4788360129419691,0.14236164541880542,0.19735696475290335,0.03342215204447473,0.18493804358568885,0.2238606854682959,0.09880720716254153,LR
0.8211653159653446,0.08215941902178671,0.22483796973683584,0.5871794740450351,0.7337963162315668,0.5981734622417181,0.0225568514333233,0.22210568919875903,0.19065671848563542,0.051529218224027035,0.20551725599268145,0.2110962772123576,0.7244200692645335,0.23538737293016088,0.16058355751711817,0.6596825791310618,0.6859903338458894,0.4312169207650955,0.142065571322367,0.1974200797280682,0.03378870545553633,0.23278542366739147,0.2455485994854122,0.08058272082367576,LR
0.8265235856044686,0.08294208197961819,0.21460258180750003,0.5435897235866191,0.7129629803712274,0.586757933986469,0.022384139089172906,0.22131774542368624,0.1908055624997454,0.04111916543152789,0.2025949630060925,0.20224837103865553,0.7298772209190957,0.2274878511204146,0.25547443946081083,0.6628571828997691,0.7270531361604123,0.3306878436151012,0.1403975573887044,0.19770178803185254,0.03482727345354354,0.17384652764050867,0.24752123247539323,0.12764164156719884,LR
0.8064298686975655,0.08528942985150878,0.21767325408530916,0.5294871702284674,0.7083333525385799,0.5936072449578833,0.022387579574116252,0.22089930323257595,0.19101480698334894,0.053205912470240306,0.22046176282810162,0.20441258346998367,0.7312414739077704,0.21484978096427493,0.1065689685791901,0.6723809942058915,0.7487922607482094,0.3201058154299989,0.1404930023276879,0.19775566666918834,0.03426334512883359,0.2419486517427687,0.23497421450924696,0.06420092795729687,LR
0.8131277743331998,0.06729266883261097,0.22244968460381995,0.5141025458004588,0.7175926173010968,0.5753424057312201,0.022131607494339577,0.22035899892966893,0.1911789907992349,0.04973699204212043,0.20955337376514233,0.2070538509595604,0.7271487149417464,0.21484978096427493,0.12846672642243348,0.684444481457139,0.7536231861128616,0.3068782975266644,0.14077868785933895,0.1979678825264498,0.03402367559083193,0.23184187009949273,0.24001024975272825,0.07637262071501466,LR
0.8104487766870964,0.0719873645763925,0.22381445889340643,0.5179486977087426,0.6990740923246738,0.5958903535998007,0.022064173989452304,0.21975654005568468,0.19146972797977452,0.05311572514722096,0.2127861373496129,0.2086519267984215,0.74215552575714,0.216429944157214,0.10510935723882904,0.6800000407555514,0.7330917849556,0.3625238087316704,0.1411916333096346,0.19778337568267537,0.03356313412565155,0.2411445979113133,0.22564078162147863,0.0568549436656382,LR
0.8171466823227307,0.06103264717316682,0.20743772640845237,0.520512804579223,0.6689815053476503,0.5821917167026344,0.021627232401661787,0.218898611212391,0.19140645129744768,0.03466155561282787,0.20693095668244207,0.19319370193553068,0.7025919655657942,0.216429944157214,0.19416059790846854,0.6863209897244442,0.73913042584016,0.28571425848450316,0.1408585499511414,0.19849743256197896,0.034244547518010635,0.20614766587599664,0.266136127627607,0.12007255089097994,LR
0.7957133294193173,0.05477294601452459,0.2214261737603906,0.49230767099112266,0.6620370651148828,0.6141551908973545,0.021429748565920066,0.21834753997591144,0.19164278011856242,0.0538224119447512,0.22209012123093755,0.20411228492963143,0.7353342328737943,0.24328624766243268,0.15620412553973034,0.6704762294494291,0.7439613432941847,0.29629632132569234,0.14098580986978596,0.19857176309022181,0.033769907844712045,0.23854815263227255,0.2361108161334918,0.06780368290798605,LR
0.8211653159653446,0.06103264717316682,0.211873172975848,0.4846153587771183,0.685185205794324,0.5753424057312201,0.020823879167416445,0.2175047827208334,0.19164397854057588,0.03631257609555358,0.20269215780750638,0.19731161306732348,0.7312414739077704,0.2306475304288182,0.09489028398738805,0.6768254369868439,0.7572463698525349,0.3201058154299989,0.14181429791157396,0.19867028402706438,0.03298040819011865,0.2606683839032747,0.2347812684549422,0.04966182856340254,LR
0.8211653159653446,0.05477294601452459,0.2234733351947703,0.49615382289940646,0.6921296490594989,0.6027396660666489,0.020461252054399894,0.21664244922289663,0.19190739169920182,0.044054203239436464,0.19942484630784124,0.20697320872858377,0.7210094367928469,0.2180094602726785,0.1532843049027036,0.6787301934258467,0.7379227024096247,0.3042328078084322,0.14172729368148032,0.19895485119731968,0.03305089923070706,0.22330253014429732,0.2472067488216643,0.08934997541698274,LR
0.8271935407761822,0.06103264717316682,0.22859102915943824,0.49615382289940646,0.6921296490594989,0.586757933986469,0.02016640249476456,0.21569789550495205,0.19223935459701513,0.04693229795653301,0.19472863303572996,0.21242241994676203,0.7298772209190957,0.22116913958108209,0.17080263076855914,0.674920668071652,0.7512077234305354,0.2936507796233299,0.14132538608127124,0.19915409219905947,0.033111991465884665,0.2142175454635305,0.24097395698048577,0.0907671141189168,LR
0.8352310824083271,0.07746472327800517,0.2094848878428321,0.4884615106854021,0.7569444553948044,0.5981734622417181,0.019514774646516072,0.2150724345456085,0.19228489463353804,0.03181835088200887,0.1943923666611697,0.19743749934067953,0.7162347748522677,0.22906801431335372,0.15036448426567683,0.6863209897244442,0.787439608291034,0.3915344017111789,0.1417227486843858,0.19972520575481909,0.03340805383635652,0.2352202345654609,0.25156552909192315,0.08418960737407917,LR
0.847956938507882,0.05007825027074305,0.2190378886273747,0.4871794656475986,0.837962995533264,0.5707761884473853,0.018778854917158493,0.21444061130733572,0.19239155419276335,0.02752062870438639,0.17542095483067371,0.20361600701399873,0.7148704659836477,0.2180094602726785,0.18394152465702723,0.6857143192217653,0.8140096503328554,0.35978837433841526,0.14143966029393146,0.20044915871036798,0.03409886603412641,0.2090658356394545,0.2548024395681704,0.10719022298243681,LR
0.8312121744187961,0.06025030471613726,0.19549644049089387,0.46025637709730177,0.6962604352717492,0.536529618635976,0.017743957046233855,0.2135890447429713,0.19200518293552515,0.018695107930197366,0.19612206561524306,0.18297206473414424,0.7414733992628028,0.21327026484881026,0.18102170402000048,0.7130159091374112,0.8224637618103693,0.40476191961451347,0.14153640380351332,0.2007018385238327,0.03465339555342421,0.19908928806747062,0.2313021012148595,0.09406826229047656,LR
0.8225049519618549,0.06103264717316682,0.2159673560970865,0.4679486977087427,0.8796296520919062,0.4771688836721513,0.017166643672758847,0.21372558903691255,0.19184387533247216,0.03894117449568302,0.20086802788523458,0.20101365408936975,0.7435197787458147,0.22906801431335372,0.08759103137297349,0.7015873413922862,0.828502410605557,0.39682539847568665,0.1429037986436432,0.20081245466497513,0.033953184550243515,0.2599487505765303,0.2237817064895455,0.040811941975814475,LR
0.8131277743331998,0.05946764175830578,0.211873172975848,0.5025640816781707,0.8611111953446482,0.5045661425121463,0.016822251129941356,0.21395267345407631,0.1916643517148099,0.039597501218680733,0.20941794593757976,0.19682799410655308,0.7312414739077704,0.2543441546256333,0.1591239461767571,0.6965079687083868,0.8007246372225723,0.46560847771059116,0.1438082530654383,0.2011629956768661,0.03408946722871426,0.24729082246161962,0.24032759792900252,0.06480000991584033,LR
0.7957133294193173,0.06025030471613726,0.22176743720654765,0.49615382289940646,0.8703703479080939,0.5022830488245666,0.016776836728690923,0.2145150010301997,0.1916499706506449,0.055368104167016166,0.2233218695673403,0.204985049539882,0.7298772209190957,0.21327026484881026,0.1532843049027036,0.6946032122693838,0.7801932360653108,0.3835978805723522,0.1438725323100599,0.20139786255308917,0.03439962780730567,0.21694010674046257,0.23938087322776386,0.08727178076079292,LR
0.8151370911545067,0.06807501128964087,0.2070966027098162,0.5051281885486509,0.8425926021390602,0.5068492661084013,0.016415241761156694,0.2146138610566375,0.1914292213157093,0.036935000284715414,0.21040279184005886,0.19352728883866968,0.7830832271772696,0.23538737293016088,0.1678828101315324,0.6666666957777748,0.762077288888685,0.4021164298962812,0.14322779200794739,0.20060089854613009,0.03402367559083193,0.2138268432496542,0.1948429083968821,0.05383887587434979,LR
0.8151370911545067,0.08450676689367731,0.2070966027098162,0.4884615106854021,0.837962995533264,0.5182647794093127,0.01602543481708828,0.21481647517022764,0.1912573675989352,0.04074360435282175,0.2142647881199393,0.1952130396612088,0.7530695776065097,0.2669828718592478,0.12262768310468493,0.6647619476562314,0.754830909543397,0.3888889119929468,0.14399200080511382,0.20031699111429113,0.03303210161988411,0.2708657631613626,0.21933310297661454,0.02870635481352085,LR
0.7923643766015002,0.06103264717316682,0.20095539790171893,0.5076922954191312,0.8356481619062925,0.5091323747503187,0.015766022252368745,0.21533377738777557,0.1908875345654868,0.04107900903222749,0.2297735775702037,0.18641764470767763,0.7414733992628028,0.23538737293016088,0.11386822119360467,0.6603175048752788,0.765700476583672,0.3730158939745541,0.14420886209504902,0.20025893413365176,0.032472872697880226,0.2522675141661725,0.22754466607037127,0.049893198147391224,LR
0.7937037382510933,0.0790297286928662,0.20470831757680036,0.4871794656475986,0.812500022743055,0.48173510095598593,0.015544799070518513,0.21574830433031386,0.19058816874644804,0.047503703769533764,0.23231169773982935,0.19163735376269847,0.7523874511121724,0.2606635132424404,0.11678804183063142,0.6755555896571394,0.7801932360653108,0.43915344190392225,0.1451327950758205,0.2000891614478426,0.03176796229199212,0.26879385748171575,0.21929995635858976,0.030276362704876755,LR
0.8124580935084034,0.044600891569130385,0.20129652160035505,0.4846153587771183,0.803240748883316,0.486301303285483,0.014865991391218651,0.21566804173459206,0.19014690976097964,0.028295120569588866,0.20818251249022293,0.18587776372529605,0.7244200692645335,0.2559243178185724,0.07591234678117144,0.674920668071652,0.7753623107006585,0.4021164298962812,0.14665342124656294,0.20034492004058363,0.030893873388692098,0.2924485858535943,0.24021404007095468,0.030148283113739134,LR
0.8057601878727688,0.06807501128964087,0.20641421556502296,0.49743587633464664,0.7847222314879113,0.5228309817388097,0.014578710898458878,0.21566559470423477,0.18997098140935847,0.04070575200921873,0.2187910256492935,0.19254035920956558,0.7489768186404858,0.22906801431335372,0.16204376681378385,0.6831746441083858,0.7789854968135201,0.3465608547022765,0.14649174920706054,0.2002670709074535,0.030776388321044304,0.22013470218093165,0.2240984408395601,0.07177828183294306,LR
0.7782986101585178,0.05633795142938563,0.2081201135532456,0.4884615106854021,0.7893518684177809,0.493150629211235,0.014458982022433989,0.21615989483642342,0.18969869992783092,0.05191234977145388,0.23984176133563165,0.19175855153425372,0.7530695776065097,0.25908399712697594,0.14306523165126228,0.6742857506448942,0.7693236642786591,0.3730158939745541,0.14699689316984352,0.20007046885937915,0.03009967433139263,0.253803040785399,0.22040811736613433,0.04274553064200974,LR
0.8050902327010552,0.06964001670450191,0.19651995133432332,0.46538459923569897,0.7384259531614363,0.5342465249483963,0.013854144769413664,0.21599594380247963,0.18937848156575285,0.033765936248095166,0.22129874365354793,0.18381060328124785,0.7544338305951844,0.23854640516108983,0.1547445141993693,0.6793651108526045,0.7596618269974217,0.3888889119929468,0.14698910174625288,0.1998133907898054,0.029902299417742945,0.23038046880147592,0.21922281885861852,0.0598544850580697,LR
0.801741279883238,0.057902956844246664,0.2094848878428321,0.4910256175558825,0.7685185325574413,0.5182647794093127,0.013548973754948774,0.21597440993533473,0.18920950406181167,0.04256644156042472,0.2194474360379898,0.19408264187699473,0.7407912727684655,0.20379122692359952,0.13722618833351374,0.6876190856417195,0.7765700420418217,0.39682539847568665,0.14678197973580587,0.1998272452965489,0.030174864774687112,0.2146540612439877,0.22849159538036318,0.07967790048628982,LR
0.7950433742476036,0.06964001670450191,0.20368480673337094,0.4999999748076903,0.7754629879522456,0.5388127123235557,0.01336903639241774,0.21614227621785034,0.18903213760377421,0.04391135178618628,0.22904254368468724,0.18982641994207336,0.7496589451348231,0.24960495920176523,0.029197010457657938,0.6933333649396793,0.7741545793594955,0.3625238087316704,0.14896812333823556,0.19955521315620442,0.02849717800867414,0.3040600085655928,0.21550241789846655,0.0,LR
0.8104487766870964,0.07042235916153147,0.2067554790111801,0.5089743404569348,0.7615740923246738,0.527397213976982,0.013135083416277903,0.21597098409283438,0.18889000475294174,0.03936117093427122,0.2151510573043966,0.19327340646614716,0.737380640296779,0.2274878511204146,0.10948878921621685,0.6977778160380913,0.7789854968135201,0.3042328078084322,0.1498264785037871,0.1996295436844473,0.02787215744878792,0.24911409945970875,0.2304413121899814,0.05478501220887803,LR
0.7829871989728451,0.035993522037795295,0.19686121478048035,0.5051281885486509,0.7708333358603394,0.563926877475971,0.01282440762590356,0.2162191129710716,0.18856403396519744,0.03660749522484441,0.23264473964230473,0.17993954176927657,0.7653478824445541,0.26856238797471227,0.14014600897054047,0.7073016190267541,0.7862318690392431,0.35185184626837124,0.1511653047907518,0.19928955848721802,0.02686648526972189,0.2601803922053107,0.20985173796025416,0.029284778773494325,LR
0.8070998238692791,0.045383234026159944,0.2081201135532456,0.5128204923652186,0.7685185325574413,0.5525113641750597,0.012557770042803383,0.21601258360890963,0.1884604903032079,0.03618749878625621,0.212024240659856,0.19181528240604548,0.7394270197797908,0.2417060844694936,0.12262768310468493,0.7009524114893393,0.771739124587797,0.3915344017111789,0.15213988202486137,0.1993311220074486,0.026532827677601456,0.2534874934110827,0.230149540107862,0.05117399405876039,LR
0.809109140690586,0.05320794059966356,0.21460258180750003,0.525641009922747,0.7731481694873109,0.563926877475971,0.012504098477688526,0.21578745681603168,0.18852975909560377,0.04210628872253612,0.2110674937284019,0.19844998130459904,0.746248284723164,0.24012656835402893,0.16204376681378385,0.7009524114893393,0.7789854968135201,0.35185184626837124,0.152524908207291,0.19933398087391943,0.026401244401835444,0.22996917622059698,0.22690853745654996,0.06653528179575958,LR
0.8097788215153827,0.06103264717316682,0.21255556012064125,0.5089743404569348,0.7916666868827156,0.527397213976982,0.01234239568535655,0.21571257768709623,0.18848350000587236,0.04201313904219084,0.212625374384241,0.1974616451249545,0.7530695776065097,0.2322276936217573,0.14014600897054047,0.7041270152580468,0.7838164221781723,0.3068782975266644,0.153055374296743,0.19919081763757002,0.02588900950689095,0.23316943401199194,0.21919867502573626,0.057677132008743054,LR
0.8292028575974892,0.041470880739408314,0.20573182842022972,0.5064102335864544,0.7800926097200784,0.5068492661084013,0.011779188300149367,0.2151468242684725,0.1882402203370776,0.023380898917455963,0.19205370312193387,0.190161178970663,0.7489768186404858,0.2322276936217573,0.11386822119360467,0.7009524114893393,0.793478249175594,0.35449734118501636,0.1538488009323738,0.19912022562701978,0.025362676403828242,0.24779168313896038,0.22098572787652915,0.04785631948834372,LR
0.8117881383366895,0.057902956844246664,0.1753667883308584,0.4987179297698868,0.7893518684177809,0.5159816707673953,0.010959320738176641,0.2151106082191834,0.18750199237659776,0.0119468579427877,0.21575449422312798,0.16390111480851566,0.7510231981234978,0.2274878511204146,0.11094840055657791,0.7231746378702913,0.7971014431990832,0.3333333333333333,0.15508633871266211,0.19902830207434077,0.02476585226017712,0.24491572362785793,0.21885943371286534,0.04832732185574955,LR
0.8171466823227307,0.021909114305649454,0.17741394976523814,0.48589742060979496,0.6962604352717492,0.5022830488245666,0.009872471544609308,0.21437649911197262,0.18670336394662432,0.002932404601396679,0.20229002007464192,0.1625627819694285,0.7530695776065097,0.2511851223947043,0.09051085201000024,0.7257143158947815,0.7765700420418217,0.2751322649554877,0.15709522742840834,0.1988066299664448,0.023398326072755556,0.2741710318244712,0.2166332904776207,0.023942620343171666,LR
0.7923643766015002,0.030516163336182626,0.20232003244378446,0.6769230717554238,0.6828703873293891,0.5045661425121463,0.01063075442609816,0.2140197220858683,0.18637715347447723,0.035114796283623864,0.2223314959984301,0.18460975841322344,0.7380627667911162,0.23696688904562535,0.04525512702684781,0.7130159091374112,0.7113526524571755,0.3888889119929468,0.15913982683561073,0.1985209632321623,0.022430249115336764,0.28873665744218235,0.225856439247393,0.020430760586192035,LR
0.8004019182336448,0.08998412559529033,0.23166156168972643,1.0,0.5671296445108879,0.5091323747503187,0.014009310640353375,0.21316815552150373,0.1867328451281628,0.0680891248241923,0.22456974026416718,0.217131551155657,0.7278308414360838,0.22274865569654656,0.1445254409479283,0.7142857439909267,0.7633828438421538,0.33862433009784104,0.159686525057543,0.19877716165051423,0.022604127015456086,0.22980239424787519,0.24090500383064412,0.07873176415176275,LR
0.8359007632331236,0.08998412559529033,0.2330263359793129,0.8833333221367513,0.5810185401384598,0.5205479030055676,0.016312027212859678,0.21172685464101323,0.1871645167375214,0.05348207000313665,0.19290634566893514,0.21987221488341455,0.7162347748522677,0.20063219469267038,0.134306367696487,0.7003174899038519,0.7536231861128616,0.38624337029058436,0.1596417243718978,0.19916816661860842,0.02329493921322598,0.2203591371812612,0.24914500754110108,0.09336175873936664,LR
0.8372403992296339,0.07589971786314413,0.22176743720654765,0.6743589984746896,0.5717592814407574,0.541095820965473,0.01698395392227333,0.21025521058409147,0.18741187104116255,0.040424328063299535,0.1903180158625602,0.20835115940788904,0.734652106379457,0.2322276936217573,0.186861345294054,0.6869841669673428,0.771739124587797,0.31216932894725896,0.15913982683561073,0.19939269759297515,0.023581602778287025,0.21349430882256054,0.23845031261803107,0.08911034263356442,LR
0.8198256799688343,0.048513244855882015,0.2528148644407122,0.6576922702268215,0.6435185325574414,0.543378944561728,0.01814718188158074,0.20920054050006529,0.18813356077785265,0.06681498202342798,0.19440204007742415,0.23208037029787223,0.7278308414360838,0.2543441546256333,0.16204376681378385,0.6971428861351444,0.7608695583385846,0.2910052899050977,0.1597196386078027,0.19967704485042498,0.023304338018636787,0.24672149881399488,0.2435033303880312,0.0680681052896874,LR
0.8158070463262204,0.05007825027074305,0.22927327655671054,0.6282050916009175,0.7013889092734049,0.5456620532036454,0.018756835813521652,0.20860542271715318,0.18842285985197563,0.04995587733339117,0.20213063902587775,0.21138813644946805,0.7442019052401521,0.24486576377789718,0.2510944095271184,0.6876190856417195,0.7789854968135201,0.39417989142941107,0.1585515743545294,0.19985143570514868,0.02432880780852711,0.18655747595045147,0.23520624083542044,0.1070662749910146,LR
0.8265235856044686,0.0649450004599188,0.1937905425026713,0.5846153755719914,0.7199074206039949,0.5068492661084013,0.018478500581614193,0.20809986624532073,0.18800844551961526,0.020606815857564444,0.20162623946403757,0.18172679865580657,0.74215552575714,0.24802544308630073,0.1547445141993693,0.6838095627827625,0.7427536119530217,0.37830688380784444,0.15870285782924465,0.19976830866468767,0.024211322740879313,0.24139477087039596,0.23027598831736393,0.060581646607750776,LR
0.8245142687831617,0.07355236999125354,0.2139201946627068,0.5923076793885592,0.7800926097200784,0.5182647794093127,0.01864261171340622,0.20790459322280258,0.18801467731408714,0.03930521529590133,0.20230660307393533,0.20057293492007852,0.7319236004021077,0.21958897638814298,0.1678828101315324,0.6565079753623543,0.7499999920893723,0.4920635308453036,0.15753024857887687,0.19990223556320813,0.02520289671182713,0.21388449627726178,0.23892480031679322,0.08922602742555934,LR
0.8251842239548755,0.048513244855882015,0.21528496895229327,0.5833333221367513,0.800925945580418,0.47945199231406865,0.018645020052866758,0.20767212533885243,0.18790154627598746,0.0343215428220269,0.1957411172703646,0.19921655134905789,0.7353342328737943,0.24486576377789718,0.1547445141993693,0.661587343887524,0.7427536119530217,0.4788360129419691,0.15717184309371462,0.19994269951941138,0.02559764653912383,0.24061079264676816,0.23607071281785688,0.06618409582006056,LR
0.8050902327010552,0.05086059272777261,0.22244968460381995,0.5641025458004588,0.8194444629758227,0.6141860137164177,0.018849728906989115,0.20789480510137312,0.18822631864171793,0.04950724477398995,0.2127999565156907,0.20499794291983478,0.7476125377118387,0.2306475304288182,0.18394152465702723,0.6774603544136016,0.7584541011936979,0.4550264668535323,0.15643100856731967,0.19984945648989963,0.02621796769630531,0.21017874497595043,0.22684920091811053,0.08175609514247846,LR
0.8191559991440377,0.07042235916153147,0.22586148058026528,0.560256393892175,0.7638889107896086,0.4840182095979033,0.019039987724349703,0.20764961265956478,0.18837444360261943,0.05049239316011437,0.20441034078984835,0.21066915469828917,0.7435197787458147,0.23854640516108983,0.10218953660180229,0.6679365514249389,0.7185990246828985,0.44973547008902454,0.1567368219432461,0.1995567525458426,0.025917205923127382,0.2602740783751731,0.22511882469196495,0.04168370951548774,LR
0.8218352711370582,0.07120502211936294,0.22074378661559735,0.5705128129766596,0.7060185355898487,0.6141860137164177,0.01918896072239207,0.20712741638130214,0.188716712929751,0.04539417620298828,0.2030491529311834,0.20630791032302603,0.7278308414360838,0.2511851223947043,0.16204376681378385,0.6533333715936469,0.73913042584016,0.4153439131435289,0.15629336008388772,0.19974609747133704,0.026133378447598686,0.24410549268630177,0.24337053930717886,0.06995211475931426,LR
0.8137977295049136,0.05164293518480252,0.22995566370150378,0.560256393892175,0.7106481710035145,0.5114154534835607,0.01940605532231009,0.20666052298911605,0.18892763520417402,0.0517487618169254,0.2041408670513308,0.21207359541276968,0.7796725667656103,0.20379122692359952,0.18540113599738828,0.6584127401188167,0.7427536119530217,0.44973547008902454,0.15433446633618064,0.1989667264888141,0.02677719661830919,0.17908008417342025,0.19778917213915279,0.08308647025041721,LR
0.8271935407761822,0.06259765258802785,0.21323780751791355,0.5641025458004588,0.7291666793016972,0.49543373785315237,0.01929251931918303,0.2061505618626403,0.1888281661770312,0.035024608960604046,0.19751365563927922,0.19893195928973892,0.7196454073239543,0.24012656835402893,0.134306367696487,0.6565079753623543,0.7463768059765108,0.39417989142941107,0.15424486496489,0.19929967447626884,0.026842988256192864,0.251546851321078,0.2479089660627819,0.06835731726967414,LR
0.8359007632331236,0.06103264717316682,0.20846137699940268,0.5628205007626552,0.7546296520919062,0.5022830488245666,0.01899594951707651,0.20559704359580347,0.18868099995374102,0.02693375280313067,0.19018489122934384,0.19484921192145357,0.732605726896445,0.24012656835402893,0.13138654705946023,0.6768254369868439,0.7801932360653108,0.4312169207650955,0.15452665478474575,0.19951584876402848,0.02687118467242796,0.24950068360018446,0.23656832130573513,0.05979251106235859,LR
0.8137977295049136,0.06572766341774992,0.2094848878428321,0.5410256281366526,0.7986111422775198,0.5342465249483963,0.018831838385284,0.20571694808331456,0.18860478031366548,0.03887073622149983,0.2106625921623218,0.19536729137046072,0.7428376522514774,0.22906801431335372,0.14306523165126228,0.6971428861351444,0.7910627944038955,0.407407426660789,0.15481948245468805,0.19959061911788223,0.026946375115722444,0.2316900161428479,0.2281255503208179,0.06623367501663015,LR
0.8191559991440377,0.06103264717316682,0.211873172975848,0.5294871702284674,0.8333333586033945,0.49999992522831166,0.01856726509314944,0.20586768515332854,0.18848781432512193,0.03722333639772721,0.20446561745415948,0.19723120526143662,0.7564802100781963,0.2306475304288182,0.14014600897054047,0.713650826564169,0.8164251130151816,0.42592592400058776,0.1554265642094466,0.19949627652434326,0.02686648526972189,0.23101671114185943,0.21618376504675374,0.05690039126249356,LR
0.8117881383366895,0.09154913101015137,0.21084966213241857,0.4935897328237993,0.826388918370627,0.5136985770798157,0.018312669207350005,0.20623522911300537,0.18846072998761074,0.04687107590513981,0.2183041303644852,0.19917646465865954,0.7489768186404858,0.2543441546256333,0.1211674738080189,0.7104762227954616,0.8128019189916924,0.349206351351726,0.15677642834649783,0.19953520109090825,0.026067586809716346,0.2621900120247743,0.22230443129115704,0.037849584980808704,LR
0.8218352711370582,0.06885735374667043,0.20777898985460944,0.4833333137393147,0.8356481619062925,0.541095820965473,0.017725378427540364,0.20638792380730517,0.1883871468759653,0.03458749667969112,0.2045531388393191,0.19448538418169803,0.7592087439955184,0.21169010165587115,0.13576597903684803,0.6946032122693838,0.811594195561157,0.39682539847568665,0.15659852417451495,0.19936476866668276,0.026091083823245372,0.21712902335771234,0.2128363658437572,0.06497766870354636,LR
0.8124580935084034,0.0641626580028889,0.20470831757680036,0.4641025458004588,0.8356481619062925,0.5502282555331424,0.01705104337866666,0.2067011436930484,0.18826299035533925,0.03540346154744971,0.21222553984572276,0.19088672462436299,0.7851296066602815,0.216429944157214,0.15182469356234254,0.6812698756090667,0.7898550630627325,0.3148148186654911,0.15584665179803345,0.19864939231054643,0.02561174474724205,0.20633967104829687,0.19145644938289216,0.05722265604019297,LR
0.8660413385934782,0.06259765258802785,0.21528496895229327,0.46153843053254195,0.7939815053476503,0.5821917167026344,0.016037476514389998,0.20575805819331836,0.188449704505084,0.019274084211918816,0.162716995455337,0.20229291180576459,0.7476125377118387,0.20537139011653863,0.11386822119360467,0.6800000407555514,0.8019323606531078,0.33597882305156546,0.15559343053134267,0.19862520190194674,0.02539557222276941,0.22630306137576597,0.22114409505153645,0.06457690353127893,LR
0.8251842239548755,0.045383234026159944,0.2094848878428321,0.47179485801446314,0.7916666868827156,0.5776255143731374,0.015338369973924482,0.20549867297543714,0.18845306008672258,0.029035380750140945,0.19591754195729144,0.19374061567061396,0.7339699798851196,0.22274865569654656,0.1547445141993693,0.6787301934258467,0.7536231861128616,0.322751305148231,0.15512464654531527,0.19872020423390213,0.02539557222276941,0.2227980661527312,0.23634754846098982,0.08011998165569721,LR
0.8225049519618549,0.061815310130998294,0.20368480673337094,0.5418012635790749,0.7592592890217758,0.5821917167026344,0.015055218063096433,0.2054291773132879,0.18834711958070574,0.029456364641171275,0.20295702515733116,0.19013070370895668,0.7414733992628028,0.21169010165587115,0.12846672642243348,0.6831746441083858,0.7463768059765108,0.2936507796233299,0.15492791309965565,0.19861750495375588,0.025151203282063012,0.22544753162680373,0.22762057591782306,0.07062143391299729,LR
0.8466175768582889,0.04616589698399142,0.22381445889340643,0.47307690305226674,0.7615740923246738,0.6095889830197982,0.014398429487433412,0.20461921026499874,0.1887011334435722,0.031095206543781527,0.17500039154303887,0.20739189193941043,0.740109146274128,0.23696688904562535,0.15182469356234254,0.6907936910739187,0.7693236642786591,0.28042326171999543,0.15513373653950427,0.19869183548199876,0.024770551662883195,0.23433742258022022,0.23140686089651807,0.0669814945648812,LR
0.8318821295905098,0.05086059272777261,0.23507335766617168,0.5418012635790749,0.7754629879522456,0.6118720856799805,0.01451678216948057,0.2041513380606697,0.18925528378273743,0.04775649159463992,0.18726213760388566,0.21725649972865288,0.7448840317344894,0.23538737293016088,0.1678828101315324,0.6787301934258467,0.7644927460335718,0.32539681219450656,0.1547811746220349,0.19867842080086612,0.024714158830411663,0.22334371087830282,0.22831235811252545,0.07282357656060931,LR
0.811118457511893,0.057902956844246664,0.2282497657132811,0.4743589480900703,0.7916666868827156,0.5776255143731374,0.014336844806949538,0.20421496084996135,0.18959204036860594,0.05303738725350302,0.20820738698916305,0.21111971972136223,0.7360163593681315,0.24960495920176523,0.1386857996738748,0.6755555896571394,0.794685980516757,0.349206351351726,0.1551019215598432,0.1989223041021127,0.024361703627468277,0.25263659649469605,0.2345277582096786,0.05560306895226865,LR
0.8131277743331998,0.045383234026159944,0.2081201135532456,0.4705127961817864,0.8240740847436554,0.6073058773687484,0.013727878971997,0.2043999563449784,0.18960210711352138,0.033442051847177724,0.2067315000520523,0.19205322387244467,0.7578444630668708,0.24486576377789718,0.15036448426567683,0.680634958182309,0.7705313948287594,0.28571425848450316,0.15513958010719714,0.1986687446374263,0.023684989637816605,0.23703681969427423,0.21619931531199993,0.05225647318385237,LR
0.8131277743331998,0.049295587312911573,0.22893215285807433,0.5418012635790749,0.7939815053476503,0.5821917167026344,0.013921234225806503,0.2043877211931915,0.18993814464618142,0.050685604687897554,0.20435506412553706,0.2108930306592853,0.7428376522514774,0.24960495920176523,0.09926971596477553,0.6787301934258467,0.7765700420418217,0.322751305148231,0.1559881959932605,0.19865379056665547,0.022759207304751124,0.270959449331225,0.22592211865718284,0.034143540037267286,LR
0.8298725384222858,0.06103264717316682,0.19549644049089387,0.4692307427465463,0.7893518684177809,0.5821917167026344,0.0130212033646569,0.20420810916496063,0.18969678245260896,0.01949198205074789,0.19749108433468548,0.18299878919440993,0.7496589451348231,0.24012656835402893,0.14306523165126228,0.6780952718403594,0.7753623107006585,0.35185184626837124,0.15601221954933117,0.19856054753714372,0.022467844336984004,0.23900783257560781,0.22265062930163812,0.05600796572424915,LR
0.8687206105864989,0.06103264717316682,0.21016727498762533,0.48205126870151116,0.7685185325574413,0.586757933986469,0.01211532367910341,0.2031299475895037,0.18977491956790646,0.013528098452958307,0.1607482249281173,0.197648716346813,0.7407912727684655,0.24012656835402893,0.07153291480378361,0.6863492380832847,0.77294685592896,0.3730158939745541,0.1571867766555965,0.1985225026218005,0.021636050058037294,0.2776441119786519,0.2254343313894601,0.028590670021525922,LR
0.8218352711370582,0.05946764175830578,0.1893552356827966,0.4897435725180789,0.7569444553948044,0.5844748253445518,0.011346719342785005,0.20298459398627608,0.18942018665183186,0.018131930887544938,0.2051680917297819,0.1770211838232621,0.7551159570895217,0.216429944157214,0.11532843049027036,0.6742857506448942,0.7294685909321108,0.3888889119929468,0.1569075839769375,0.19807893849320324,0.02149506797685914,0.23264798296764852,0.21522333155904805,0.05486351260344489,LR
0.8064298686975655,0.03990587532454728,0.2002730107569257,0.4935897328237993,0.7314814977666321,0.5890410426283864,0.010828582310333821,0.20288915980233865,0.1892274803920181,0.029218717753506044,0.21253877427682002,0.1842667945064825,0.7442019052401521,0.24644527989336165,0.134306367696487,0.5117460826013553,0.7475845373176738,0.35978837433841526,0.15363064107184024,0.1979852556380805,0.021147312176621826,0.2501482506424196,0.22702291374961078,0.05108309886504967,LR
0.8198256799688343,0.05399060355749468,0.2053907047215936,0.5128204923652186,0.7199074206039949,0.586757933986469,0.010489350494930862,0.20252504168516217,0.18917403077020417,0.030227564998233765,0.2032476882838347,0.19075732197465642,0.7428376522514774,0.23538737293016088,0.12846672642243348,0.8361905054204053,0.7342995162967632,0.35185184626837124,0.1574536329135706,0.19784231231453653,0.020879446222385065,0.24442824668906896,0.22737095323887102,0.05578072773997469,LR
0.7997319630619312,0.04303588615426935,0.20504958102295742,0.5102563854947384,0.7222222390689297,0.6141551908973545,0.010263998731149396,0.20250840187873198,0.1891371193721804,0.03666048850588883,0.21841007730441503,0.18856075888090135,0.732605726896445,0.23854640516108983,0.13284675635612592,0.6780952718403594,0.7475845373176738,0.3201058154299989,0.15764841850333267,0.19795534749653904,0.020616279670853044,0.24745606015681626,0.23660862923012327,0.061395571751427166,LR
0.8245142687831617,0.004694695743781544,0.20368480673337094,0.4935897328237993,0.6875000151620366,0.6301369234112101,0.009504339655683303,0.2016842420543701,0.1890558663596468,0.01569127760217583,0.18814195784417323,0.18450403269761165,0.7366984858624689,0.24960495920176523,0.11532843049027036,0.6787301934258467,0.7560386393024345,0.3015873007621566,0.1582814716700594,0.19800768674423666,0.0199066698622602,0.26439266653488835,0.23229383984181087,0.04464193491077811,LR
0.8312121744187961,0.05320794059966356,0.19993188705828951,0.4794871618310309,0.7337963162315668,0.6073058773687484,0.008777021138683606,0.201217348662184,0.18895783543892097,0.020568963513961425,0.19383591490710292,0.18624346686577156,0.7503410716291605,0.26540270866630866,0.14014600897054047,0.6850794005473887,0.7705313948287594,0.30952378724489654,0.15896776623132094,0.19791466362753032,0.01911247080496073,0.26124028134677485,0.2228249559593981,0.03901469610018412,LR
0.8352310824083271,0.05086059272777261,0.19720233847911656,0.49230767099112266,0.7453703933942039,0.6392693430245416,0.008047294282223857,0.20073626249392518,0.18888545074928934,0.01605597670402176,0.1901475794809337,0.18371917749612887,0.7455661582288267,0.24960495920176523,0.17080263076855914,0.6850794005473887,0.7632850149297276,0.3306878436151012,0.15893789910755743,0.19791576319155763,0.01901848275084196,0.23339232473479615,0.22848668477028544,0.06522556468639197,LR
0.8010715990584415,0.04773058189805054,0.21357907096407058,0.49615382289940646,0.6875000151620366,0.6004565619110327,0.007932382085119557,0.20056105512033756,0.18898755630486225,0.04368555432782292,0.21700328619769338,0.19665592609045746,0.7551159570895217,0.23538737293016088,0.11240860985324361,0.6888889234063457,0.7536231861128616,0.33862433009784104,0.15940538452298644,0.19760304718220445,0.018431057412602984,0.2496092977861238,0.21572932900580907,0.04215884348260898,LR
0.8178163631475274,0.05868529930127622,0.19686121478048035,0.5102563854947384,0.6643518684177808,0.6050227717176987,0.007526748910312624,0.20007556429743548,0.18883008365225348,0.025604312665624556,0.20741462749516568,0.18352460467138879,0.7312414739077704,0.24012656835402893,0.13576597903684803,0.6774603544136016,0.7113526524571755,0.349206351351726,0.15953718943872552,0.19758941258826646,0.018355866969307168,0.2476192388153127,0.23805480389801933,0.06254002487223025,LR
0.825853904779672,0.061815310130998294,0.19140225736965538,0.5064102335864544,0.685185205794324,0.6506848712797907,0.006940834324479735,0.19957685951060372,0.18870137312797503,0.01836069070323376,0.20184872803789033,0.17924470580237267,0.7448840317344894,0.2180094602726785,0.12262768310468493,0.6755555896571394,0.7463768059765108,0.3201058154299989,0.15927682603374352,0.19744778874155514,0.018181989069189178,0.2327267411214338,0.22454489713912845,0.06242847167995073,LR
0.8399193968757375,0.041470880739408314,0.2019789087451483,0.530769215266271,0.6967592749210816,0.6141860137164177,0.006473272420694494,0.1987492738437415,0.18864672508414732,0.01555533831601825,0.18315784527877402,0.1872266456934354,0.7578444630668708,0.2306475304288182,0.1445254409479283,0.6730159116326491,0.731884053614437,0.35449734118501636,0.15883790917147966,0.1970460080459938,0.018036307585304952,0.22838320320221395,0.21528614644629251,0.058214239971575404,LR
0.8298725384222858,0.04616589698399142,0.19686121478048035,0.5230769114497033,0.6805555673482508,0.6575341822512051,0.005998829547022558,0.19808906505332324,0.18860382157605418,0.017202079838162774,0.19386125004491228,0.1827437346964371,0.7442019052401521,0.22274865569654656,0.11532843049027036,0.6685714605342371,0.7306763222732738,0.349206351351726,0.1586113086020565,0.1968522648643903,0.017843632074362674,0.2405186507544311,0.22482050512974192,0.05664836367993373,LR
0.8271935407761822,0.06103264717316682,0.2006141344555618,0.5435897235866191,0.6574074281850133,0.6666666018645367,0.005814419554064878,0.1974430490389777,0.1886800412161297,0.02472383423833325,0.1990945682385815,0.18748545099284886,0.7414733992628028,0.21327026484881026,0.12992693571909916,0.6628571828997691,0.7137681151395017,0.3677248608211552,0.1578912512052361,0.19665698229314874,0.018036307585304952,0.22597464502207287,0.22778180761537573,0.07034874833186747,LR
0.8218352711370582,0.04616589698399142,0.2094848878428321,0.530769215266271,0.6550926097200785,0.6780821301197858,0.005682304932244816,0.1967985012428467,0.1889087001363563,0.030730178291121082,0.19904527987957052,0.1936888077257131,0.7448840317344894,0.2417060844694936,0.15182469356234254,0.6679365514249389,0.7342995162967632,0.3465608547022765,0.15758024354691574,0.1965426276343135,0.017942319531187516,0.23698071094419199,0.22745279674016675,0.06158562533827472,LR
