xa_S1,ya_S1,za_S1,xgb_S1,ybg_S1,zbg_S1,tilt_x_S1,tilt_y_S1,tilt_z_S1,tilt_accx_S1,tilt_accy_S1,tilt_accz_S1,xa_S2,ya_S2,za_S2,xgb_S2,ybg_S2,zbg_S2,tilt_x_S2,tilt_y_S2,tilt_z_S2,tilt_accx_S2,tilt_accy_S2,tilt_accz_S2,Posture
-0.5598145,-0.7922363,0.4316406,0.05183208,0.171229,-0.0002061129,-48.22946,31.768,-66.39169,-48.25802,31.81977,-66.01288,-0.201416,-0.1821289,-0.3779297,0.03121376,0.2735725,0.091084,-22.76684,25.32878,-144.4704,-23.03932,25.64585,-144.302,UP
-0.5532227,-0.786377,0.4365234,-0.131374,0.171229,-0.04600763,-48.22951,31.76706,-66.37616,-48.13519,31.59542,-65.58138,-0.2001953,-0.1855469,-0.3803711,0.3670917,0.3651755,-0.09212208,-22.77307,25.33389,-144.4691,-23.34828,25.31583,-144.3365,UP
-0.5515137,-0.7858887,0.4309082,-0.03977096,0.2322977,-0.04600763,-48.23176,31.76725,-66.36588,-48.31256,31.60573,-65.82865,-0.2021484,-0.1804199,-0.3774414,0.4281602,0.6399847,-0.168458,-22.76831,25.35243,-144.4687,-22.84951,25.79024,-144.3267,UP
-0.5488281,-0.7844238,0.4316406,-0.1924427,0.430771,0.2746031,-48.2365,31.76839,-66.34915,-48.32711,31.50757,-65.73096,-0.204834,-0.1843262,-0.3728027,0.229687,0.6552519,-0.2142596,-22.77836,25.3788,-144.4529,-23.42864,26.22157,-143.5298,UP
-0.5402832,-0.7783203,0.4384766,0.00603056,0.339168,-0.168145,-48.23575,31.76099,-66.3278,-48.20315,31.16533,-65.16579,-0.2043457,-0.1828613,-0.3657227,0.0922823,0.7926565,-0.4432673,-22.79305,25.41396,-144.4331,-23.58061,26.5539,-143.1375,UP
-0.5476074,-0.7866211,0.4257813,-0.3298473,0.5834427,-0.09180916,-48.24775,31.76386,-66.32355,-48.59345,31.47579,-66.04756,-0.2001953,-0.1760254,-0.3774414,-0.289397,0.7010534,-0.2142596,-22.78928,25.42945,-144.4429,-22.39161,25.67341,-144.7675,UP
-0.5505371,-0.7885742,0.4326172,-0.3298473,0.59871,-0.0002061129,-48.2556,31.76678,-66.31268,-48.39802,31.4701,-65.78043,-0.2172852,-0.1816406,-0.3789063,0.07701516,0.7315878,-0.0310533,-22.78396,25.47849,-144.419,-22.5803,27.34377,-143.2244,UP
-0.5578613,-0.7927246,0.432373,-0.390916,0.4918396,-0.1986794,-48.26263,31.77284,-66.30857,-48.31977,31.70801,-65.96081,-0.2026367,-0.1879883,-0.3754883,0.229687,0.6552519,-0.0310533,-22.80046,25.49376,-144.4039,-23.77767,25.76022,-143.6422,UP
-0.5549316,-0.7961426,0.4313965,-0.2535114,0.06435877,-0.06127481,-48.2723,31.76836,-66.30397,-48.55976,31.50162,-66.03352,-0.2033691,-0.1879883,-0.3718262,0.1533511,0.3499084,0.350626,-22.82061,25.50937,-144.3771,-23.92058,26.01745,-143.3204,UP
-0.5512695,-0.7861328,0.4245605,-0.08557248,0.3239008,-0.07654199,-48.27787,31.77125,-66.30193,-48.48785,31.67504,-66.14604,-0.2055664,-0.185791,-0.3798828,0.1991527,0.04456491,0.1063511,-22.82695,25.5183,-144.366,-23.27427,25.92476,-143.8932,UP
-0.5473633,-0.7905273,0.4279785,0.1587023,0.06435877,0.2593359,-48.28388,31.76345,-66.29246,-48.68679,31.33708,-66.00608,-0.2028809,-0.1867676,-0.387207,0.1686182,0.3041069,0.4880307,-22.83062,25.51768,-144.3623,-23.13462,25.26398,-144.5425,UP
-0.5478516,-0.7878418,0.4274902,0.1434351,0.4460382,0.07612977,-48.28783,31.76341,-66.28523,-48.58665,31.4334,-65.98765,-0.2050781,-0.1828613,-0.3757324,0.2907557,0.7315878,0.2742901,-22.83237,25.54089,-144.3475,-23.1317,26.14057,-143.8229,UP
-0.5537109,-0.7895508,0.4294434,0.1129008,0.2780993,-0.1070763,-48.28863,31.76494,-66.28102,-48.41095,31.63585,-65.99585,-0.1989746,-0.1816406,-0.3759766,0.32129,0.5331145,-0.06158781,-22.83377,25.54697,-144.3489,-23.1228,25.47891,-144.3756,UP
-0.5551758,-0.7893066,0.4277344,-0.07030535,0.04909158,-0.336084,-48.29177,31.76498,-66.28191,-48.39753,31.73287,-66.09477,-0.2038574,-0.1838379,-0.3764648,0.3670917,0.6094504,0.182687,-22.83649,25.56392,-144.3373,-23.23922,25.94696,-143.9016,UP
-0.5500488,-0.7844238,0.4404297,0.08236647,0.5529084,-0.2597481,-48.28606,31.76666,-66.26631,-48.06655,31.44286,-65.31123,-0.2023926,-0.1833496,-0.3845215,0.2907557,0.227771,0.1674199,-22.83302,25.56424,-144.3404,-22.8771,25.41252,-144.617,UP
-0.5522461,-0.7888184,0.4370117,0.00603056,0.3239008,-0.3055496,-48.2851,31.76575,-66.25727,-48.24218,31.48302,-65.58949,-0.2036133,-0.1870117,-0.3850098,0.6419008,0.2735725,0.1063511,-22.83169,25.56579,-144.3384,-23.2379,25.4406,-144.3191,UP
-0.5527344,-0.7893066,0.4274902,-0.1924427,-0.04251146,-0.336084,-48.29187,31.76228,-66.25858,-48.48214,31.62334,-66.07602,-0.199707,-0.1843262,-0.3752441,0.4281602,0.1972366,-0.1989923,-22.83804,25.56785,-144.3361,-23.44297,25.53313,-144.0861,UP
-0.5541992,-0.7868652,0.4326172,-0.1924427,-0.2867863,-0.4124198,-48.29306,31.75674,-66.25499,-48.21935,31.68216,-65.7961,-0.2163086,-0.1833496,-0.3837891,0.3365571,0.1667023,-0.260061,-22.82825,25.59806,-144.324,-22.59631,26.95601,-143.5414,UP
-0.5488281,-0.7871094,0.4289551,-0.1466411,-0.1493817,-0.1376107,-48.29919,31.74895,-66.25019,-48.49191,31.47722,-65.91376,-0.2006836,-0.1833496,-0.3789063,0.4434273,0.1667023,-0.1837251,-22.82865,25.59818,-144.3269,-23.1524,25.48974,-144.3442,UP
-0.5439453,-0.7883301,0.4316406,-0.07030535,-0.3020534,-0.336084,-48.30667,31.73349,-66.24461,-48.62484,31.18293,-65.74042,-0.2041016,-0.1826172,-0.3840332,0.3976259,-0.001236677,-0.3211298,-22.82179,25.59899,-144.3352,-22.77778,25.63942,-144.5054,UP
-0.5490723,-0.7937012,0.4287109,-0.3756489,-0.4089237,-0.2902825,-48.3206,31.71936,-66.24496,-48.72722,31.32767,-66.04881,-0.1999512,-0.185791,-0.380127,0.1686182,0.319374,-0.3058627,-22.83071,25.5976,-144.3394,-23.39173,25.29469,-144.3203,UP
-0.548584,-0.7932129,0.423584,-0.6351909,-0.2562519,-0.2444809,-48.34061,31.70892,-66.24943,-48.85402,31.38575,-66.28867,-0.2011719,-0.1831055,-0.3779297,0.3670917,0.1056336,-0.06158781,-22.83217,25.59902,-144.3386,-23.15543,25.59615,-144.2545,UP
-0.5454102,-0.7922363,0.4311523,-0.08557248,0.003290057,-0.09180916,-48.34958,31.69801,-66.2428,-48.73072,31.16113,-65.85503,-0.2038574,-0.1865234,-0.376709,-0.01458788,0.1514351,0.1521528,-22.84637,25.6067,-144.3244,-23.53147,25.87161,-143.7403,UP
-0.5561523,-0.7890625,0.4304199,-0.02450383,-0.08831299,0.06086259,-48.34877,31.6977,-66.23643,-48.29087,31.74744,-65.96965,-0.2009277,-0.185791,-0.3793945,0.1686182,0.4720459,-0.0310533,-22.85499,25.61024,-144.3223,-23.40106,25.43727,-144.1967,UP
-0.5515137,-0.7900391,0.4262695,-0.2687786,0.1559618,-0.1070763,-48.35731,31.69734,-66.23598,-48.57827,31.56499,-66.13451,-0.2009277,-0.1855469,-0.3720703,-0.06038928,0.7621221,0.1368854,-22.87261,25.6251,-144.3074,-23.69154,25.79297,-143.6818,UP
-0.5561523,-0.7910156,0.4299316,-0.131374,0.1406947,-0.04600763,-48.35956,31.69956,-66.23251,-48.37331,31.70522,-66.02901,-0.2021484,-0.1813965,-0.3852539,0.0922823,0.7163206,-0.2142596,-22.86646,25.63103,-144.3208,-22.6331,25.39482,-144.8162,UP
-0.5537109,-0.7932129,0.4140625,-0.3756489,0.339168,-0.09180916,-48.37634,31.70556,-66.24577,-48.92284,31.75015,-66.82742,-0.201416,-0.1777344,-0.3762207,-0.01458788,0.7010534,0.03001523,-22.86157,25.64531,-144.3234,-22.61121,25.83012,-144.4731,UP
-0.5541992,-0.7895508,0.4279785,-0.07030535,0.339168,0.1524656,-48.37848,31.71,-66.2401,-48.43167,31.67833,-66.0747,-0.199707,-0.1804199,-0.3781738,0.1075497,0.2583054,0.350626,-22.86033,25.64562,-144.3233,-22.87347,25.4834,-144.5616,UP
-0.5561523,-0.7912598,0.425293,0.1892367,0.2475649,0.09139694,-48.37825,31.71444,-66.23931,-48.49672,31.76196,-66.26327,-0.2011719,-0.1804199,-0.3823242,0.6113663,0.3346412,0.2742901,-22.84746,25.64658,-144.3278,-22.66632,25.44779,-144.7475,UP
-0.5546875,-0.7873535,0.4370117,0.2655725,-0.08831299,-0.336084,-48.36902,31.71149,-66.23135,-48.1119,31.63205,-65.59407,-0.2053223,-0.184082,-0.380127,0.5044961,-0.3065802,0.3964274,-22.84466,25.64767,-144.3162,-23.07798,25.92615,-144.0413,UP
-0.5583496,-0.7893066,0.4313965,-0.009236574,-0.3631221,-0.5803587,-48.36588,31.7085,-66.23434,-48.20531,31.82913,-65.95371,-0.2023926,-0.1901855,-0.3735352,0.580832,-0.3676488,0.3200917,-22.86155,25.64478,-144.2926,-24.11621,25.77345,-143.3687,UP
-0.5554199,-0.7885742,0.4294434,-0.02450383,-0.4089237,-0.4124198,-48.36534,31.70311,-66.23572,-48.32092,31.73923,-65.99992,-0.2050781,-0.201416,-0.3796387,-0.06038928,-0.3523817,0.1674199,-22.90561,25.63725,-144.2618,-25.02284,25.5101,-142.8685,UP
-0.5466309,-0.7878418,0.4350586,0.1587023,0.003290057,-0.03074045,-48.36455,31.69456,-66.22334,-48.43461,31.2736,-65.59605,-0.2050781,-0.1828613,-0.3708496,-0.3046641,-0.291313,0.2132213,-22.91878,25.64783,-144.2427,-23.3404,26.38039,-143.4651,UP
-0.5534668,-0.7958984,0.4279785,-0.05503809,-0.179916,0.1371985,-48.37172,31.68775,-66.22045,-48.68283,31.48603,-66.1796,-0.2023926,-0.1821289,-0.3762207,-0.1825268,-0.01650381,-0.1073892,-22.92488,25.65137,-144.2415,-23.08981,25.83664,-144.1063,UP
-0.546875,-0.7902832,0.4362793,-0.03977096,-0.2104504,-0.06127481,-48.37455,31.67506,-66.20862,-48.48389,31.20807,-65.58383,-0.2023926,-0.1865234,-0.3842773,0.1228168,0.5025801,0.091084,-22.92942,25.65277,-144.2431,-23.24174,25.35239,-144.3883,UP
-0.5495605,-0.7893066,0.4311523,0.02129769,0.171229,0.0,-48.37659,31.67261,-66.20152,-48.49245,31.42655,-65.85399,-0.2041016,-0.1831055,-0.3752441,0.2602212,0.4415114,0.07581687,-22.93106,25.66722,-144.234,-23.20277,26.05052,-143.8436,UP
-0.5500488,-0.7849121,0.4345703,0.1434351,0.171229,-0.06127481,-48.3716,31.67191,-66.19059,-48.23204,31.51179,-65.61018,-0.2058105,-0.184082,-0.3815918,0.2144198,0.5636489,-0.2142596,-22.9296,25.6798,-144.2345,-23.00545,25.90943,-144.1101,UP
-0.5480957,-0.7824707,0.439209,0.1129008,0.3697023,-0.03074045,-48.36438,31.67189,-66.17339,-48.08816,31.41746,-65.30975,-0.2050781,-0.201416,-0.3747559,-0.07565641,0.6399847,-0.4738016,-22.97698,25.69031,-144.207,-25.24297,25.73513,-142.511,UP
-0.5527344,-0.7905273,0.4360352,-0.4214504,-0.1341145,-0.07654199,-48.36954,31.66602,-66.16454,-48.31276,31.47663,-65.6752,-0.2021484,-0.1872559,-0.3876953,-0.01458788,0.4262443,-0.1837251,-22.98146,25.68913,-144.2189,-23.18429,25.15068,-144.597,UP
-0.5471191,-0.7958984,0.4501953,-0.6962595,0.04909158,0.04559542,-48.38432,31.65167,-66.1404,-48.32366,30.89359,-65.0083,-0.2004395,-0.1899414,-0.3842773,-0.1214581,0.3346412,-0.1531909,-22.99692,25.68148,-144.2228,-23.66533,25.06073,-144.2991,UP
-0.5554199,-0.7888184,0.4338379,-0.4672519,0.3086336,0.04559542,-48.38791,31.65664,-66.13265,-48.22062,31.67301,-65.78686,-0.2009277,-0.1811523,-0.3901367,0.04648089,0.319374,-0.1837251,-22.98491,25.67331,-144.2463,-22.43085,25.03816,-145.2614,UP
-0.5493164,-0.7905273,0.4221191,-0.2687786,0.262832,0.1371985,-48.39952,31.6575,-66.13443,-48.77057,31.50667,-66.32254,-0.1989746,-0.1821289,-0.3737793,-0.1672597,0.5025801,0.1674199,-22.99298,25.6782,-144.2427,-23.27336,25.57322,-144.1833,UP
-0.5554199,-0.7854004,0.4277344,-0.2077099,0.171229,0.2746031,-48.39935,31.66355,-66.12852,-48.2485,31.84243,-66.02747,-0.199707,-0.1818848,-0.3898926,0.06174803,0.3804427,-0.0310533,-22.98318,25.66823,-144.264,-22.54834,24.90007,-145.2855,UP
-0.5544434,-0.7907715,0.4372559,-0.2687786,0.06435877,0.1219313,-48.40005,31.66188,-66.11699,-48.23687,31.53272,-65.64136,-0.2028809,-0.1821289,-0.3867188,0.1838853,-0.1386412,-0.2295268,-22.97358,25.66063,-144.2785,-22.63866,25.38991,-144.816,UP
-0.5510254,-0.7895508,0.4328613,-0.2535114,0.07962596,-0.07654199,-48.40401,31.65911,-66.11162,-48.41151,31.46511,-65.7924,-0.2028809,-0.1838379,-0.3752441,-0.09092379,0.09036642,-0.3669312,-22.98173,25.6667,-144.276,-23.31409,25.89782,-143.8851,UP
-0.5529785,-0.7929688,0.4326172,-0.2077099,0.01855725,0.09139694,-48.40855,31.65568,-66.10587,-48.47814,31.47387,-65.89141,-0.1972656,-0.1801758,-0.3840332,0.1991527,0.1514351,-0.3669312,-22.97221,25.65439,-144.2994,-22.65221,24.93988,-145.1744,UP
-0.546875,-0.7895508,0.4267578,-0.3145801,-0.3020534,-0.0002061129,-48.41896,31.64523,-66.10461,-48.69818,31.35517,-66.04292,-0.1999512,-0.1855469,-0.3759766,0.03121376,0.5483816,-0.3363969,-22.98318,25.6593,-144.2991,-23.54375,25.4967,-144.0384,UP
-0.5500488,-0.7878418,0.4333496,0.1129008,-0.2257175,-0.0002061129,-48.41629,31.63812,-66.09701,-48.36877,31.45567,-65.72449,-0.2072754,-0.1845703,-0.3745117,0.01594663,0.6399847,-0.3211298,-22.9898,25.68355,-144.287,-23.32542,26.40168,-143.4588,UP
-0.5427246,-0.7880859,0.4301758,0.1892367,-0.1341145,0.1371985,-48.41904,31.62642,-66.08891,-48.69253,31.15182,-65.7933,-0.2043457,-0.1838379,-0.380127,-0.01458788,0.2125039,-0.1989923,-22.99166,25.68929,-144.2866,-23.07272,25.82456,-144.1293,UP
-0.548584,-0.7922363,0.4343262,0.128168,0.1101603,0.07612977,-48.41988,31.62072,-66.08085,-48.54908,31.26568,-65.73801,-0.1987305,-0.1818848,-0.3737793,-0.1825268,0.3499084,-0.09212208,-22.99953,25.69168,-144.2866,-23.2511,25.55157,-144.2181,UP
-0.5529785,-0.8007813,0.4348145,0.02129769,-0.1493817,0.07612977,-48.42521,31.61115,-66.0766,-48.70196,31.2518,-65.92453,-0.2004395,-0.1850586,-0.3752441,-0.2283282,0.05983204,0.1521528,-23.01308,25.69067,-144.2783,-23.50903,25.59753,-143.9826,UP
-0.5593262,-0.7978516,0.4326172,0.06709921,-0.1951832,0.2898702,-48.42472,31.60895,-66.07199,-48.4505,31.64446,-66.05911,-0.2019043,-0.1853027,-0.3847656,-0.3504658,-0.3371145,-0.1837251,-23.01989,25.67798,-144.2862,-23.09588,25.30363,-144.5397,UP
-0.5529785,-0.7834473,0.4272461,0.3571756,0.06435877,0.4730763,-48.41635,31.61342,-66.0633,-48.26838,31.78534,-65.98522,-0.2050781,-0.1882324,-0.3757324,-0.5184045,-0.4745191,0.2132213,-23.04185,25.67769,-144.2667,-23.73691,26.01219,-143.4665,UP
-0.5422363,-0.7963867,0.4331055,0.3571756,0.1406947,0.534145,-48.42139,31.60092,-66.05007,-48.93098,30.8853,-65.79455,-0.2019043,-0.1860352,-0.3713379,-0.7779465,-0.06230533,0.1368854,-23.0668,25.68179,-144.2499,-23.75592,25.92564,-143.5231,UP
-0.5407715,-0.7880859,0.4326172,0.4640458,-0.07304579,0.5036107,-48.42045,31.58845,-66.0351,-48.69282,31.02742,-65.64691,-0.2004395,-0.1867676,-0.3779297,-0.6252747,-0.1844428,-0.0005190372,-23.08636,25.67404,-144.2462,-23.58531,25.42971,-144.061,UP
-0.5488281,-0.7810059,0.4443359,0.2655725,0.003290057,0.4578092,-48.40577,31.58505,-66.00844,-47.88158,31.4161,-65.03857,-0.2021484,-0.1831055,-0.3820801,-0.6558094,0.7010534,0.350626,-23.09343,25.68099,-144.2457,-22.9575,25.50649,-144.4788,UP
-0.5620117,-0.7890625,0.4411621,0.2350382,0.06435877,0.5036107,-48.391,31.59167,-65.99119,-47.83981,31.86855,-65.5158,-0.199707,-0.1843262,-0.3847656,-0.3962674,0.6705191,0.3964274,-23.09809,25.67891,-144.2502,-23.03513,25.08401,-144.7654,UP
-0.557373,-0.7868652,0.435791,-0.009236574,0.003290057,0.3814733,-48.3841,31.59558,-65.97935,-48.03947,31.7848,-65.68,-0.1992188,-0.1811523,-0.390625,-0.2741299,0.4415114,0.3353589,-23.08909,25.66839,-144.2687,-22.44674,24.82853,-145.4207,UP
-0.5488281,-0.7851563,0.4338379,-0.02450383,0.1254275,0.1677328,-48.38274,31.59469,-65.97001,-48.29827,31.4591,-65.63528,-0.1901855,-0.1835938,-0.3728027,-0.3199313,0.3346412,0.091084,-23.10574,25.65178,-144.2752,-23.68619,24.59181,-144.6607,UP
-0.550293,-0.7932129,0.4355469,-0.3603816,0.06435877,0.2135344,-48.39037,31.58983,-65.96181,-48.499,31.30418,-65.71729,-0.2036133,-0.1848145,-0.3837891,0.0,0.6399847,0.1368854,-23.10451,25.65911,-144.2752,-23.04453,25.54776,-144.3788,UP
-0.5495605,-0.7932129,0.4274902,-0.1008396,0.2017633,0.0,-48.39853,31.58857,-65.96471,-48.72464,31.3788,-66.10664,-0.2070313,-0.1811523,-0.3779297,-0.07565641,0.1972366,-0.0310533,-23.09948,25.67441,-144.2691,-22.80112,26.28877,-143.949,UP
-0.5490723,-0.7927246,0.432373,-0.08557248,0.4002366,0.04559542,-48.40374,31.58834,-65.96178,-48.60022,31.30262,-65.84969,-0.1999512,-0.1782227,-0.3837891,0.01594663,0.578916,0.182687,-23.08493,25.67527,-144.2828,-22.38359,25.29206,-145.0884,UP
-0.5488281,-0.7924805,0.4255371,0.2503054,0.59871,0.01506107,-48.40741,31.59316,-65.96594,-48.77096,31.38926,-66.1813,-0.203125,-0.1896973,-0.3911133,0.1380839,0.7315878,0.2437558,-23.08697,25.67344,-144.2856,-23.28855,25.04612,-144.602,UP
-0.550293,-0.7895508,0.434082,-0.009236574,0.6445115,-0.03074045,-48.40747,31.59907,-65.96152,-48.40422,31.41457,-65.72266,-0.1977539,-0.1826172,-0.3852539,0.1533511,0.5941832,-0.09212208,-23.08029,25.66638,-144.3024,-22.86543,24.88356,-145.0581,UP
-0.552002,-0.7919922,0.4245605,-0.1771755,0.6750459,-0.168145,-48.41544,31.60824,-65.96998,-48.67522,31.5617,-66.26077,-0.2001953,-0.1799316,-0.3796387,0.1380839,0.5941832,0.3658931,-23.07169,25.67078,-144.3046,-22.74517,25.47869,-144.6625,UP
-0.5554199,-0.782959,0.4211426,0.05183208,0.6139771,0.01506107,-48.41288,31.6244,-65.97662,-48.32285,31.99482,-66.31245,-0.2009277,-0.1816406,-0.3769531,0.0006792545,0.6705191,-0.07685494,-23.07098,25.68021,-144.3057,-23.03658,25.64985,-144.3008,UP
-0.5495605,-0.7890625,0.427002,-0.3603816,0.6445115,-0.01547329,-48.42167,31.63116,-65.97842,-48.5878,31.48893,-66.05577,-0.2028809,-0.1799316,-0.3864746,-0.07565641,0.7621221,0.091084,-23.05873,25.68681,-144.3171,-22.40264,25.4499,-144.944,UP
-0.5456543,-0.7905273,0.4294434,-0.650458,0.5834427,-0.09180916,-48.4369,31.63187,-65.97844,-48.70481,31.23782,-65.91168,-0.2006836,-0.1809082,-0.3747559,0.1838853,0.8231909,0.03001523,-23.0559,25.70009,-144.3145,-23.05263,25.74588,-144.2095,UP
-0.5517578,-0.7868652,0.4333496,-0.5435878,0.5529084,-0.09180916,-48.44173,31.63855,-65.97479,-48.27895,31.55917,-65.72851,-0.2021484,-0.1889648,-0.3774414,0.06174803,0.0,0.2895572,-23.07014,25.6979,-144.299,-23.81357,25.5902,-143.7535,UP
-0.5549316,-0.7873535,0.4360352,-0.390916,0.6445115,-0.1834122,-48.44121,31.64839,-65.9709,-48.12852,31.65677,-65.6454,-0.1999512,-0.1791992,-0.3806152,0.2144198,0.8231909,0.442229,-23.05812,25.70447,-144.3025,-22.6264,25.42142,-144.7993,UP
-0.5568848,-0.7905273,0.4296875,-0.1924427,0.873519,-0.07654199,-48.44199,31.66335,-65.97343,-48.33833,31.75449,-66.04158,-0.2004395,-0.1828613,-0.3874512,0.3976259,0.8842595,0.3048244,-23.04636,25.70395,-144.3122,-22.74285,25.07211,-144.9977,UP
-0.5583496,-0.786377,0.4311523,-0.1924427,0.7055801,-0.3055496,-48.4379,31.67789,-65.97643,-48.10545,31.90599,-65.91298,-0.2016602,-0.1828613,-0.3859863,0.4739618,0.8995267,0.5338321,-23.03401,25.70858,-144.3143,-22.77739,25.27431,-144.806,UP
-0.5544434,-0.784668,0.4208984,-0.390916,0.59871,-0.336084,-48.44334,31.69131,-65.9887,-48.42268,31.90936,-66.34288,-0.203125,-0.1811523,-0.3833008,0.4128931,0.6857863,0.182687,-23.02057,25.71649,-144.3177,-22.6653,25.60011,-144.6227,UP
-0.5490723,-0.7915039,0.432373,-0.3756489,0.3239008,-0.4887558,-48.45112,31.68891,-65.99266,-48.55641,31.33283,-65.82742,-0.1989746,-0.1831055,-0.3757324,0.2144198,0.838458,-0.1989923,-23.02322,25.7228,-144.3193,-23.30003,25.45656,-144.2585,UP
-0.5541992,-0.7900391,0.4094238,-0.02450383,0.2933664,-0.4124198,-48.46057,31.69746,-66.01868,-48.90672,31.91539,-67.01059,-0.2016602,-0.1843262,-0.3723145,0.2449541,0.6094504,-0.0310533,-23.02965,25.73514,-144.3079,-23.52477,25.89231,-143.7283,UP
-0.557373,-0.7946777,0.4335938,0.2503054,0.5376411,-0.3513512,-48.45518,31.70382,-66.02206,-48.37515,31.62049,-65.92965,-0.204834,-0.1838379,-0.3813477,-0.02985501,0.1209008,-0.04632068,-23.02967,25.73849,-144.306,-23.01035,25.81977,-144.1806,UP
-0.5512695,-0.7907715,0.4260254,0.1129008,0.07962596,-0.2750153,-48.4569,31.70161,-66.02853,-48.61857,31.53863,-66.15678,-0.2060547,-0.1811523,-0.3833008,0.04648089,-0.001236677,-0.1073892,-23.02041,25.74213,-144.3096,-22.60069,25.92126,-144.4053,UP
-0.5495605,-0.7932129,0.4304199,-0.03977096,-0.2867863,-0.3666183,-48.46137,31.69016,-66.03258,-48.65118,31.33945,-65.9614,-0.1967773,-0.1831055,-0.3837891,0.0006792545,-0.1539084,-0.0005190372,-23.02006,25.72168,-144.3233,-23.00356,24.83251,-144.994,UP
-0.5559082,-0.7900391,0.4333496,0.03656495,-0.347855,-0.06127481,-48.45683,31.68467,-66.02961,-48.26122,31.67177,-65.83935,-0.2026367,-0.1833496,-0.3779297,-0.06038928,-0.06230533,0.04528236,-23.0236,25.72132,-144.3187,-23.14966,25.75279,-144.13,UP
-0.5524902,-0.7915039,0.4326172,0.2961069,0.06435877,-0.2750153,-48.45187,31.68174,-66.0305,-48.44114,31.48767,-65.85865,-0.1977539,-0.1835938,-0.3779297,-0.1061909,0.4262443,0.5490992,-23.03045,25.71725,-144.3137,-23.28822,25.20445,-144.4734,UP
-0.5537109,-0.7836914,0.4396973,0.479313,0.03382444,0.07612977,-48.43465,31.68142,-66.0164,-47.94279,31.6407,-65.38157,-0.1984863,-0.1806641,-0.380127,-0.07565641,0.3499084,0.3353589,-23.02779,25.71268,-144.3183,-22.84557,25.24874,-144.7753,UP
-0.546875,-0.7839355,0.4416504,0.2808397,-0.05777865,-0.1528779,-48.42446,31.67281,-66.00219,-48.11795,31.29062,-65.20044,-0.1967773,-0.1804199,-0.3708496,0.1075497,0.2735725,0.0147481,-23.03077,25.7126,-144.3168,-23.25576,25.50776,-144.2504,UP
-0.5483398,-0.7883301,0.4387207,0.1587023,-0.2104504,0.09139694,-48.41974,31.66208,-65.98972,-48.3052,31.29081,-65.44592,-0.1987305,-0.1855469,-0.3850098,-0.4573359,0.01403052,0.5338321,-23.04053,25.69732,-144.318,-23.18273,24.9379,-144.7711,UP
-0.5507813,-0.782959,0.4316406,0.3571756,0.07962596,-0.03074045,-48.41032,31.66271,-65.98495,-48.21136,31.63502,-65.72923,-0.2023926,-0.1853027,-0.369873,0.229687,0.227771,0.3048244,-23.05085,25.70811,-144.2957,-23.72525,26.06936,-143.4283,UP
-0.5546875,-0.7885742,0.4365234,0.5098474,-0.02724427,-0.06127481,-48.39798,31.66122,-65.97896,-48.16819,31.60846,-65.64046,-0.2001953,-0.1828613,-0.3869629,0.5655649,0.07509923,0.3200917,-23.03689,25.69641,-144.3047,-22.76844,25.06798,-144.9816,UP
-0.5495605,-0.7890625,0.4455566,0.6167176,-0.2409847,-0.3513512,-48.38336,31.64916,-65.96732,-48.12006,31.23541,-65.13893,-0.2038574,-0.1865234,-0.3786621,0.2144198,-0.1539084,0.1063511,-23.04216,25.69593,-144.2948,-23.44759,25.77821,-143.8815,UP
-0.5471191,-0.7905273,0.4465332,0.2961069,-0.07304579,-0.07654199,-48.37611,31.63665,-65.95076,-48.22433,31.07337,-65.08675,-0.1987305,-0.1870117,-0.3833008,-0.3199313,-0.3065802,-0.0310533,-23.05441,25.67719,-144.3004,-23.41947,24.98404,-144.5515,UP
-0.5510254,-0.791748,0.4333496,0.05183208,-0.1035802,0.2288015,-48.3774,31.63047,-65.94454,-48.4783,31.40398,-65.80832,-0.2009277,-0.1833496,-0.3896484,-0.7168779,-0.2149771,0.1368854,-23.05777,25.66075,-144.314,-22.6957,25.01325,-145.0815,UP
-0.5495605,-0.7895508,0.4172363,-0.5283206,0.06435877,0.4883435,-48.3946,31.63097,-65.94952,-48.84922,31.60809,-66.55235,-0.1889648,-0.185791,-0.3884277,-0.6863437,0.2430381,0.03001523,-23.0715,25.62477,-144.3412,-23.27341,23.69507,-145.6965,UP
-0.5463867,-0.7900391,0.4294434,-0.4367175,0.2322977,0.4120076,-48.40597,31.62721,-65.94312,-48.66371,31.28403,-65.912,-0.199707,-0.203125,-0.3779297,-0.381,0.04456491,0.2284887,-23.12401,25.61212,-144.3109,-25.41714,24.95985,-142.9937,UP
-0.5517578,-0.7910156,0.4350586,-0.2840458,0.4460382,0.3967404,-48.40974,31.62988,-65.93283,-48.38581,31.43276,-65.71986,-0.2006836,-0.185791,-0.378418,-0.04512215,0.8079236,0.2132213,-23.13113,25.62009,-144.3047,-23.44868,25.45643,-144.1445,UP
-0.5524902,-0.7888184,0.4333496,-0.1619084,0.430771,0.3967404,-48.41029,31.63408,-65.9242,-48.32614,31.54444,-65.77355,-0.1984863,-0.1877441,-0.3828125,-0.1825268,0.8689924,0.2132213,-23.14174,25.61973,-144.3051,-23.52777,24.96309,-144.4847,UP
-0.5410156,-0.784668,0.4233398,-0.03977096,0.3849695,0.4120076,-48.41864,31.63205,-65.92067,-48.79853,31.24952,-66.05059,-0.1984863,-0.1804199,-0.3840332,-0.3199313,0.0,-0.1073892,-23.13918,25.60873,-144.3228,-22.65343,25.06991,-145.0673,UP
-0.5490723,-0.7873535,0.4328613,-0.4519846,0.339168,0.3814733,-48.42835,31.63564,-65.9082,-48.39461,31.42918,-65.72726,-0.1901855,-0.1791992,-0.3815918,-0.4573359,0.9300611,-0.1379237,-23.13862,25.59495,-144.3502,-22.79703,24.28166,-145.5971,UP
-0.5493164,-0.7873535,0.4277344,-0.3756489,-0.02724427,0.3204046,-48.43526,31.63276,-65.90535,-48.51566,31.51042,-65.98517,-0.203125,-0.1850586,-0.3769531,-0.4115343,0.4109771,-0.1531909,-23.14935,25.60537,-144.3436,-23.37304,25.81365,-143.9094,UP
-0.552002,-0.7890625,0.4309082,-0.4061831,0.03382444,0.04559542,-48.44075,31.63158,-65.90443,-48.41159,31.54907,-65.89268,-0.1984863,-0.1879883,-0.3793945,-0.197794,0.1514351,-0.168458,-23.16335,25.59781,-144.3437,-23.70347,25.11603,-144.2247,UP
-0.5532227,-0.7878418,0.4311523,-0.2840458,0.171229,0.07612977,-48.44256,31.63412,-65.90269,-48.32237,31.63269,-65.87395,-0.201416,-0.1804199,-0.376709,-0.1214581,0.4109771,-0.0005190372,-23.15969,25.60637,-144.3434,-22.89708,25.74427,-144.3287,UP
-0.5534668,-0.7922363,0.4328613,-0.1924427,0.1101603,0.1371985,-48.44495,31.63318,-65.9002,-48.4302,31.51126,-65.87226,-0.2055664,-0.1813965,-0.375,0.01594663,0.227771,-0.1073892,-23.15597,25.6229,-144.3347,-22.98533,26.26519,-143.83,UP
-0.5429688,-0.7868652,0.432373,-0.131374,-0.04251146,0.06086259,-48.44968,31.62316,-65.89458,-48.58463,31.16366,-65.66447,-0.2050781,-0.1809082,-0.3811035,0.1075497,0.07509923,0.1216183,-23.14498,25.63005,-144.333,-22.68571,25.92559,-144.338,UP
-0.5534668,-0.7897949,0.4318848,-0.03977096,-0.02724427,-0.0002061129,-48.4486,31.62201,-65.89421,-48.36675,31.58524,-65.87624,-0.2070313,-0.1813965,-0.385498,-0.06038928,0.1209008,-0.1379237,-23.1333,25.63757,-144.3378,-22.51649,25.91691,-144.472,UP
-0.5539551,-0.7937012,0.432373,-0.1619084,0.2170305,-0.07654199,-48.4516,31.62284,-65.89603,-48.47933,31.50403,-65.92905,-0.197998,-0.1799316,-0.3903809,0.4739618,0.487313,0.06054974,-23.11058,25.62661,-144.3617,-22.34579,24.73171,-145.5758,UP
-0.5537109,-0.7817383,0.4321289,-0.05503809,0.3239008,-0.2139466,-48.4446,31.63104,-65.89566,-48.06097,31.79482,-65.72047,-0.204834,-0.1791992,-0.3842773,0.6266336,0.5483816,-0.04632068,-23.08652,25.63784,-144.369,-22.36797,25.7848,-144.6927,UP
-0.5549316,-0.7878418,0.4360352,0.3113741,0.1559618,-0.3513512,-48.43405,31.6336,-65.896,-48.14617,31.64463,-65.65432,-0.2070313,-0.1806641,-0.3762207,0.9472442,0.3957099,-0.168458,-23.06721,25.65858,-144.3612,-22.81716,26.3842,-143.8572,UP
-0.5461426,-0.7880859,0.4365234,-0.009236574,0.09489316,0.0,-48.43394,31.62682,-65.88852,-48.42178,31.22486,-65.52176,-0.203125,-0.1848145,-0.3752441,1.191519,0.3346412,-0.2753282,-23.05673,25.66837,-144.3541,-23.41893,25.90171,-143.8017,UP
-0.5500488,-0.7910156,0.4335938,-0.1924427,0.1254275,0.0,-48.43763,31.6236,-65.88615,-48.47699,31.37362,-65.77048,-0.2004395,-0.1845703,-0.385498,1.481595,0.3346412,-0.01578617,-23.03558,25.66209,-144.3622,-23.0155,25.1251,-144.7469,UP
-0.5495605,-0.7844238,0.4326172,-0.08557248,0.5376411,0.0,-48.43563,31.62907,-65.88227,-48.27908,31.52819,-65.69184,-0.1994629,-0.1828613,-0.3771973,1.466328,0.5941832,0.1063511,-23.01727,25.66652,-144.3603,-23.19799,25.44674,-144.3446,UP
-0.5568848,-0.7866211,0.4274902,-0.02450383,0.781916,0.0,-48.43231,31.64564,-65.88623,-48.25163,31.88265,-66.08028,-0.2021484,-0.1784668,-0.3803711,1.237321,0.7163206,0.04528236,-22.98883,25.67759,-144.3657,-22.505,25.69337,-144.6661,UP
-0.552002,-0.7910156,0.4316406,-0.222977,0.858252,-1.038374,-48.43622,31.65515,-65.90161,-48.46359,31.49049,-65.89189,-0.2023926,-0.1831055,-0.3808594,1.313656,0.5025801,0.06054974,-22.9711,25.68276,-144.365,-23.00349,25.59138,-144.3741,UP
-0.5498047,-0.7888184,0.434082,-0.2840458,0.4155039,-1.206313,-48.43925,31.65595,-65.91419,-48.39338,31.41011,-65.703,-0.1977539,-0.1865234,-0.3823242,1.466328,0.2735725,0.182687,-22.9587,25.67177,-144.3668,-23.42864,24.93225,-144.5863,UP
-0.5505371,-0.7922363,0.4335938,-0.07030535,0.5834427,-1.053641,-48.44161,31.65873,-65.92738,-48.50528,31.36601,-65.79897,-0.2033691,-0.1835938,-0.378418,1.557931,0.4109771,0.5490992,-22.93942,25.68047,-144.3533,-23.13975,25.80461,-144.0948,UP
-0.5517578,-0.7907715,0.432373,0.1739695,0.59871,-0.9162367,-48.4391,31.66386,-65.93926,-48.44429,31.47532,-65.84811,-0.2019043,-0.1867676,-0.3759766,1.40526,0.4567786,0.5643663,-22.93407,25.68682,-144.3347,-23.63617,25.68485,-143.8131,UP
-0.5554199,-0.7929688,0.432373,0.4640458,0.430771,-0.763565,-48.43208,31.66829,-65.94964,-48.40635,31.58969,-65.93433,-0.2011719,-0.2016602,-0.3874512,1.038847,0.4567786,0.3353589,-22.95599,25.67439,-144.3167,-24.79341,24.72934,-143.6775,UP
-0.5610352,-0.791748,0.4348145,0.2350382,0.2170305,-0.6108932,-48.42245,31.675,-65.95689,-48.12363,31.84456,-65.86334,-0.197998,-0.1826172,-0.3818359,0.748771,-0.01650381,0.2284887,-22.94669,25.66207,-144.3232,-23.00482,25.06994,-144.8,UP
-0.5458984,-0.793457,0.4387207,0.2808397,0.09489316,-0.6108932,-48.42149,31.66384,-65.95633,-48.56682,31.0518,-65.50952,-0.1896973,-0.1884766,-0.3837891,0.5502977,-0.07757253,0.3048244,-22.9549,25.62619,-144.3349,-23.76157,23.92504,-145.1326,UP
-0.5473633,-0.7878418,0.4338379,0.3266413,0.1864962,-0.2902825,-48.4171,31.65979,-65.95479,-48.44217,31.32432,-65.66593,-0.1992188,-0.1835938,-0.3752441,0.3518243,0.04456491,0.2437558,-22.95805,25.62424,-144.328,-23.37107,25.49579,-144.1719,UP
-0.5493164,-0.7966309,0.4250488,0.0976336,0.2780993,-0.1528779,-48.42564,31.65699,-65.96368,-48.9157,31.31504,-66.28635,-0.2019043,-0.184082,-0.3825684,0.4586947,0.6857863,-0.07685494,-22.95318,25.63052,-144.3319,-23.052,25.43435,-144.4662,UP
-0.5600586,-0.7854004,0.4318848,0.3419085,0.1254275,0.1219313,-48.41205,31.66567,-65.96023,-47.99744,31.99906,-65.88105,-0.1994629,-0.1843262,-0.3793945,0.1228168,0.1361679,0.091084,-22.95782,25.62595,-144.3321,-23.26932,25.3087,-144.4029,UP
-0.5522461,-0.7854004,0.4311523,0.1739695,-0.08831299,0.04559542,-48.40673,31.66412,-65.95673,-48.2653,31.64856,-65.81701,-0.1975098,-0.1845703,-0.3786621,0.01594663,0.3651755,-0.4585342,-22.96589,25.62121,-144.3418,-23.37258,25.1203,-144.477,UP
-0.5444336,-0.7932129,0.4289551,-0.1619084,-0.01197708,0.1066641,-48.41803,31.65308,-65.95542,-48.85275,31.12101,-65.96967,-0.2038574,-0.1882324,-0.3725586,0.1838853,0.9147939,-0.6570077,-22.98195,25.64284,-144.331,-23.90425,26.03024,-143.3225,UP
-0.5566406,-0.7956543,0.4360352,-0.2535114,0.01855725,0.2288015,-48.42086,31.65088,-65.94931,-48.37285,31.52968,-65.818,-0.1994629,-0.1850586,-0.3776855,-0.06038928,0.7163206,-0.4432673,-22.99171,25.64796,-144.3355,-23.42565,25.37262,-144.2307,UP
-0.5476074,-0.7893066,0.435791,-0.2840458,-0.1951832,0.3051374,-48.42537,31.64045,-65.93783,-48.43781,31.27279,-65.59932,-0.1984863,-0.1818848,-0.3769531,-0.07565641,0.5025801,-0.1531909,-22.99531,25.64934,-144.3403,-23.1197,25.37195,-144.4657,UP
-0.5583496,-0.7976074,0.4262695,-0.3603816,-0.02724427,0.3662061,-48.43439,31.64109,-65.94115,-48.62905,31.69082,-66.35522,-0.1882324,-0.182373,-0.3642578,0.1380839,0.7010534,-0.5654044,-23.01296,25.64266,-144.347,-23.97913,24.80056,-144.2643,UP
-0.5563965,-0.791748,0.4326172,-0.2382443,0.03382444,0.3051374,-48.43571,31.64199,-65.9361,-48.32533,31.66167,-65.91261,-0.1977539,-0.1811523,-0.385498,-0.09092379,0.2735725,-0.3974657,-23.00784,25.63192,-144.3694,-22.69046,24.90433,-145.1743,UP
-0.5463867,-0.793457,0.4250488,-0.4977863,-0.02724427,0.3356718,-48.45226,31.63391,-65.93629,-48.89714,31.25801,-66.19278,-0.197998,-0.2019043,-0.3835449,0.1686182,0.3041069,-0.260061,-23.04658,25.61477,-144.3578,-25.06854,24.55111,-143.5987,UP
-0.5454102,-0.7910156,0.4318848,-0.3298473,-0.2562519,0.3356718,-48.46143,31.6211,-65.92856,-48.66835,31.18143,-65.7963,-0.199707,-0.1799316,-0.3847656,0.04648089,0.2735725,-0.168458,-23.03584,25.60986,-144.3742,-22.54145,25.1813,-145.0607,UP
-0.5466309,-0.791748,0.4267578,-0.1466411,-0.07304579,0.1219313,-48.46991,31.61346,-65.92991,-48.785,31.28905,-66.07979,-0.2167969,-0.1843262,-0.3845215,0.1228168,0.1514351,-0.3363969,-23.02659,25.63887,-144.3616,-22.6639,26.94938,-143.4967,UP
-0.5432129,-0.7946777,0.4309082,-0.1466411,-0.2104504,0.0,-48.48056,31.59813,-65.92899,-48.89473,31.00196,-65.88423,-0.2006836,-0.1896973,-0.376709,0.3823588,-0.1844428,-0.0310533,-23.04005,25.63247,-144.3499,-23.96195,25.44541,-143.7563,UP
-0.5534668,-0.7839355,0.4299316,-0.03977096,0.3239008,0.0,-48.47557,31.60579,-65.92774,-48.20351,31.75868,-65.86664,-0.1984863,-0.1818848,-0.4013672,0.5655649,0.3346412,0.091084,-23.01308,25.60971,-144.3846,-22.10733,24.24841,-146.1481,UP
-0.5466309,-0.7949219,0.4345703,0.1434351,0.2475649,-0.1223435,-48.47798,31.59943,-65.926,-48.70129,31.10578,-65.75046,-0.2006836,-0.1884766,-0.3828125,0.5197632,0.7773893,0.2742901,-23.01638,25.61272,-144.3784,-23.5601,25.18857,-144.2769,UP
-0.5490723,-0.7980957,0.432373,0.4640458,0.430771,-0.1986794,-48.47744,31.59718,-65.92935,-48.79206,31.1702,-65.94736,-0.1970215,-0.189209,-0.3820801,0.9472442,0.1819695,0.3353589,-23.01818,25.59899,-144.3749,-23.75606,24.80157,-144.4377,UP
-0.5480957,-0.7949219,0.4338379,0.5556489,0.5376411,-0.4429542,-48.47373,31.59628,-65.93295,-48.67313,31.18348,-65.80508,-0.2006836,-0.1796875,-0.3640137,0.672435,0.2583054,0.2895572,-23.0155,25.61693,-144.3531,-23.37816,26.30587,-143.4983,UP
-0.5490723,-0.7907715,0.4279785,0.5709161,0.3697023,-0.4734885,-48.46867,31.59799,-65.94189,-48.64053,31.41039,-66.03205,-0.1994629,-0.1877441,-0.373291,0.6419008,-0.3065802,0.9307787,-23.02481,25.61074,-144.3279,-23.92152,25.51801,-143.7287,UP
-0.5466309,-0.7861328,0.4279785,0.7846565,0.430771,-0.427687,-48.45957,31.6002,-65.94725,-48.55198,31.41263,-65.9166,-0.1999512,-0.1884766,-0.376709,1.084649,-0.06230533,0.610168,-23.02521,25.60547,-144.3102,-23.84204,25.39305,-143.8922,UP
-0.550293,-0.7924805,0.4313965,1.334275,0.03382444,-0.7177633,-48.4423,31.59626,-65.95703,-48.57697,31.37837,-65.90897,-0.1975098,-0.1862793,-0.3781738,1.481595,-0.3676488,0.0,-23.01466,25.59004,-144.3105,-23.58679,25.10392,-144.3249,UP
-0.5500488,-0.7890625,0.4375,1.227405,-0.1951832,0.0,-48.42159,31.58884,-65.94872,-48.30835,31.36866,-65.54166,-0.1982422,-0.185791,-0.385498,1.038847,-0.7340611,0.4727633,-23.00309,25.56457,-144.3138,-23.19993,24.85615,-144.8242,UP
-0.5458984,-0.7897949,0.4370117,1.074733,-0.1035802,-0.8246336,-48.40693,31.57883,-65.95239,-48.47874,31.16476,-65.52612,-0.203125,-0.1918945,-0.3791504,0.9930458,-0.3218473,0.7933741,-23.01027,25.55982,-144.2889,-24.04298,25.54792,-143.6098,UP
-0.5495605,-0.7844238,0.4335938,0.6319848,0.1559618,-0.6566947,-48.39521,31.57969,-65.95522,-48.25449,31.51474,-65.64334,-0.2062988,-0.1831055,-0.3820801,0.2144198,-0.06230533,0.4269619,-23.00421,25.56695,-144.2803,-22.86472,25.96193,-144.173,UP
-0.5458984,-0.7890625,0.4338379,0.3419085,0.4002366,-0.1834122,-48.39294,31.5785,-65.95221,-48.53294,31.22598,-65.66972,-0.2009277,-0.185791,-0.3828125,0.2144198,-0.6729923,0.5643663,-23.00607,25.55125,-144.2751,-23.25485,25.27659,-144.4402,UP
-0.5349121,-0.7900391,0.4311523,0.4029771,0.3086336,-0.336084,-48.39894,31.56595,-65.95174,-48.98888,30.72416,-65.68189,-0.1984863,-0.182373,-0.3859863,0.2449541,-0.1081069,0.3353589,-22.99841,25.53745,-144.2865,-22.79142,24.93587,-145.0719,UP
-0.545166,-0.7880859,0.4331055,0.3571756,0.4155039,-0.06127481,-48.39685,31.56485,-65.94712,-48.53973,31.22599,-65.6787,-0.1970215,-0.1845703,-0.3845215,0.4586947,-0.031771,0.3811603,-22.99434,25.5221,-144.2937,-23.13162,24.79331,-144.9276,UP
-0.546875,-0.7868652,0.4311523,0.3266413,0.4765725,-0.0002061129,-48.39392,31.56781,-65.94368,-48.49042,31.36249,-65.77509,-0.1992188,-0.1860352,-0.3808594,0.1991527,0.4109771,0.5796337,-22.9996,25.52118,-144.2875,-23.40416,25.17368,-144.4093,UP
-0.5461426,-0.782959,0.4367676,0.4335115,0.3544351,0.1219313,-48.38427,31.56863,-65.9313,-48.22986,31.34829,-65.41444,-0.1938477,-0.1833496,-0.3884277,0.1075497,0.6399847,0.5338321,-22.99608,25.50533,-144.3047,-22.89705,24.28991,-145.5137,UP
-0.5441895,-0.7924805,0.4321289,0.2655725,0.2170305,-0.01547329,-48.38802,31.56194,-65.9288,-48.7538,31.08518,-65.79568,-0.1967773,-0.1862793,-0.378418,-0.02985501,0.6399847,0.1216183,-23.00845,25.50485,-144.3047,-23.5928,25.01084,-144.3957,UP
-0.5480957,-0.7939453,0.4301758,0.0976336,-0.1341145,-0.2139466,-48.39343,31.55386,-65.93274,-48.73049,31.25671,-65.96839,-0.1945801,-0.1862793,-0.3828125,-0.02985501,0.3651755,-0.3821983,-23.01773,25.49138,-144.3216,-23.45055,24.56283,-144.8672,UP
-0.5507813,-0.7873535,0.4306641,-0.05503809,-0.1951832,-0.168145,-48.39427,31.55068,-65.93372,-48.39513,31.5385,-65.85814,-0.2053223,-0.1862793,-0.3891602,0.1533511,0.02929771,0.2437558,-23.01404,25.49097,-144.3223,-22.9458,25.44947,-144.5345,UP
-0.5490723,-0.7946777,0.4348145,0.00603056,0.01855725,0.2135344,-48.39847,31.54437,-65.9272,-48.60869,31.22156,-65.76474,-0.1967773,-0.182373,-0.3847656,-0.02985501,0.1514351,0.091084,-23.01179,25.47944,-144.3367,-22.87971,24.80341,-145.1123,UP
-0.5554199,-0.7888184,0.4287109,-0.009236574,-0.01197708,0.2593359,-48.39759,31.54817,-65.92565,-48.34788,31.7431,-66.04063,-0.199707,-0.189209,-0.3845215,-0.02985501,0.2583054,-0.1226563,-23.02403,25.47539,-144.3411,-23.58995,24.98572,-144.4182,UP
-0.5529785,-0.7839355,0.4436035,0.38771,-0.4547252,0.2288015,-48.37843,31.53788,-65.90566,-47.87662,31.54632,-65.18403,-0.2001953,-0.1877441,-0.3786621,0.1380839,-1.054672,0.07581687,-23.03489,25.45729,-144.3345,-23.66883,25.34538,-144.0652,UP
-0.5476074,-0.7878418,0.4523926,0.2808397,-0.607397,0.2440687,-48.36599,31.5198,-65.87907,-47.96272,31.08018,-64.75584,-0.2036133,-0.1835938,-0.3842773,-0.5336719,-1.192076,-0.06158781,-23.0398,25.44167,-144.3386,-22.88769,25.55235,-144.4941,UP
-0.5498047,-0.7895508,0.4316406,0.0976336,-0.4089237,0.2135344,-48.36686,31.5119,-65.8751,-48.48116,31.42517,-65.83733,-0.1984863,-0.1853027,-0.380127,-0.07565641,-0.5203207,-0.06158781,-23.04751,25.42805,-144.3419,-23.36987,25.14348,-144.4603,UP
-0.545166,-0.7875977,0.427002,0.05183208,0.0,0.1982672,-48.3723,31.50808,-65.87415,-48.67683,31.32095,-65.97352,-0.2001953,-0.1809082,-0.3796387,0.1380839,-0.6271908,-0.0005190372,-23.04165,25.4194,-144.347,-22.85597,25.45652,-144.5969,UP
-0.5483398,-0.7868652,0.4306641,0.05183208,-0.7295343,-0.2292137,-48.37321,31.49594,-65.8764,-48.45577,31.43731,-65.81807,-0.2060547,-0.1828613,-0.3808594,0.1228168,-0.1691756,-0.09212208,-23.03688,25.42852,-144.3439,-22.89366,25.99954,-144.12,UP
-0.5437012,-0.7854004,0.432373,-0.4214504,-0.3631221,-0.2902825,-48.3821,31.48537,-65.87608,-48.50818,31.2342,-65.64671,-0.2033691,-0.1853027,-0.3842773,0.2907557,-0.06230533,0.2895572,-23.03355,25.42878,-144.3407,-23.08395,25.48697,-144.3987,UP
-0.5524902,-0.7866211,0.4279785,-0.1008396,-0.4699924,-0.07654199,-48.38356,31.48221,-65.87968,-48.38089,31.67275,-66.00007,-0.1977539,-0.1721191,-0.3806152,0.2907557,0.227771,0.1216183,-23.00619,25.42999,-144.361,-21.86473,25.33327,-145.441,UP
-0.5476074,-0.7856445,0.4331055,-0.1008396,-0.1646488,-0.2902825,-48.38474,31.47831,-65.87937,-48.37345,31.40024,-65.66493,-0.1975098,-0.1826172,-0.3828125,0.3976259,0.1056336,-0.0310533,-22.9997,25.42235,-144.3724,-22.97404,24.97005,-144.9049,UP
-0.5522461,-0.7866211,0.4379883,0.1434351,0.2322977,-0.01547329,-48.3777,31.48264,-65.87203,-48.13826,31.524,-65.50092,-0.1877441,-0.1853027,-0.3728027,0.2602212,0.3346412,-0.07685494,-23.01464,25.40429,-144.3804,-23.93818,24.27373,-144.7173,UP
-0.5439453,-0.7893066,0.4226074,-0.131374,0.2017633,-0.09180916,-48.38986,31.48156,-65.88013,-48.8891,31.28041,-66.20891,-0.1987305,-0.1748047,-0.3806152,0.3060229,0.227771,-0.1379237,-22.99319,25.407,-144.3984,-22.152,25.38347,-145.1862,UP
-0.543457,-0.7902832,0.4362793,-0.390916,0.07962596,-0.1834122,-48.39928,31.474,-65.87585,-48.59254,31.0491,-65.54021,-0.2009277,-0.1865234,-0.3833008,0.2907557,0.1819695,0.03001523,-22.99537,25.40628,-144.3985,-23.3159,25.23717,-144.4255,UP
-0.543457,-0.7880859,0.449707,-0.02450383,0.3086336,-0.2597481,-48.39504,31.46744,-65.8589,-48.16912,30.919,-64.83747,-0.203125,-0.1879883,-0.378418,0.4586947,0.5331145,0.4269619,-23.0015,25.41949,-144.3806,-23.63915,25.67472,-143.8192,UP
-0.5437012,-0.7929688,0.4394531,-0.009236574,0.3086336,-0.1223435,-48.39928,31.46166,-65.85225,-48.60015,30.9518,-65.43641,-0.203125,-0.1862793,-0.3881836,0.5197632,0.3499084,-0.0310533,-22.99452,25.42137,-144.386,-23.03432,25.25623,-144.6255,UP
-0.5522461,-0.7858887,0.4248047,0.1129008,0.2780993,-0.2750153,-48.39846,31.47098,-65.86209,-48.44133,31.7232,-66.14183,-0.2004395,-0.1826172,-0.3806152,0.5350306,0.1514351,0.091084,-22.98734,25.42299,-144.3877,-23.00248,25.39826,-144.5335,UP
-0.550293,-0.7866211,0.4414063,0.3266413,0.1559618,-0.168145,-48.38829,31.47143,-65.85329,-48.11385,31.38644,-65.30706,-0.2004395,-0.1884766,-0.3742676,0.4281602,0.2125039,0.0147481,-23.00006,25.42891,-144.3733,-23.938,25.56287,-143.6793,UP
-0.5625,-0.7854004,0.4365234,0.1892367,0.1101603,-0.0002061129,-48.37386,31.48456,-65.8499,-47.80589,32.04668,-65.68358,-0.2016602,-0.182373,-0.3825684,0.229687,0.5178473,-0.1073892,-22.99399,25.43686,-144.3794,-22.86547,25.44614,-144.5983,UP
-0.5461426,-0.7871094,0.4372559,0.0976336,0.2780993,-0.03074045,-48.3723,31.48373,-65.8427,-48.3679,31.23892,-65.46739,-0.2062988,-0.1850586,-0.3798828,0.5197632,0.5636489,-0.168458,-22.98998,25.45686,-144.3721,-23.17548,26.02214,-143.8878,UP
-0.5458984,-0.786377,0.4406738,0.02129769,0.2475649,-0.2902825,-48.36979,31.48167,-65.83575,-48.26216,31.19865,-65.28162,-0.2058105,-0.201416,-0.3730469,0.4739618,0.5941832,-0.3821983,-23.02972,25.47377,-144.3366,-25.30234,25.89477,-142.334,UP
-0.5410156,-0.7849121,0.4470215,-0.131374,0.5071069,-0.1834122,-48.36819,31.47738,-65.8191,-48.1996,30.91931,-64.87723,-0.2145996,-0.1860352,-0.3793945,0.3060229,0.4109771,-0.04632068,-23.02689,25.50883,-144.3141,-23.11286,26.92451,-143.1819,UP
-0.5407715,-0.7890625,0.4477539,-0.2382443,0.6292443,-0.4124198,-48.37109,31.47303,-65.80711,-48.33841,30.79729,-64.91685,-0.1994629,-0.1833496,-0.3737793,0.3823588,0.0,-0.3058627,-23.02876,25.51063,-144.3136,-23.40127,25.59916,-144.064,UP
-0.5429688,-0.7819824,0.4382324,-0.558855,0.262832,-0.4887558,-48.37704,31.47151,-65.8038,-48.25777,31.20402,-65.28214,-0.2067871,-0.1870117,-0.3842773,0.4128931,0.0,-0.4738016,-23.02647,25.51683,-144.3146,-23.19754,25.82063,-144.0376,UP
-0.5407715,-0.782959,0.4353027,-0.558855,0.3239008,-0.2292137,-48.38593,31.46887,-65.79922,-48.43837,31.11742,-65.41759,-0.2072754,-0.1801758,-0.3835449,0.1838853,0.0,-0.3974657,-23.01232,25.5278,-144.3221,-22.45412,26.06498,-144.3953,UP
-0.541748,-0.7851563,0.4416504,-0.4977863,0.59871,-0.3971527,-48.39201,31.46873,-65.79221,-48.32393,31.0217,-65.15656,-0.2043457,-0.1848145,-0.3830566,0.6113663,0.0,-0.168458,-23.00486,25.53049,-144.3234,-23.05891,25.66255,-144.2734,UP
-0.5495605,-0.7875977,0.425293,-0.7878625,0.6292443,-0.427687,-48.40653,31.47896,-65.80453,-48.57779,31.54881,-66.11437,-0.2011719,-0.184082,-0.3813477,0.4281602,0.9605954,0.0147481,-23.00087,25.54223,-144.3254,-23.12002,25.41123,-144.4332,UP
-0.5549316,-0.793457,0.4389648,-0.6809924,0.5834427,-0.3208168,-48.41391,31.48727,-65.8054,-48.27528,31.46559,-65.61258,-0.1958008,-0.1884766,-0.3815918,0.5350306,0.4720459,-0.260061,-23.00797,25.53196,-144.3333,-23.72297,24.70516,-144.541,UP
-0.5546875,-0.7890625,0.4311523,-0.4825191,0.5681756,-0.1834122,-48.41864,31.49872,-65.81011,-48.31956,31.66987,-65.91475,-0.1918945,-0.184082,-0.3759766,0.4434273,0.2125039,0.1216183,-23.01253,25.51698,-144.3394,-23.5617,24.62651,-144.7298,UP
-0.5471191,-0.7954102,0.4265137,-0.390916,0.4918396,-0.01547329,-48.43414,31.50045,-65.81742,-48.90639,31.22402,-66.16438,-0.2011719,-0.1801758,-0.3786621,0.4281602,-0.001236677,-0.1226563,-23.00225,25.51919,-144.3444,-22.79226,25.6285,-144.5035,UP
-0.5505371,-0.7902832,0.4353027,-0.3603816,0.2780993,0.1066641,-48.43825,31.50208,-65.81319,-48.39214,31.3911,-65.67884,-0.1967773,-0.1872559,-0.3857422,0.06174803,0.04456491,-0.3669312,-23.00899,25.50248,-144.3599,-23.38499,24.65096,-144.8472,UP
-0.5561523,-0.7915039,0.435791,-0.3145801,0.1559618,0.06086259,-48.43902,31.5066,-65.811,-48.24556,31.61326,-65.74865,-0.1965332,-0.1848145,-0.3762207,-0.04512215,-0.031771,-0.168458,-23.02005,25.49437,-144.3623,-23.52877,25.12045,-144.3564,UP
-0.5466309,-0.7856445,0.425293,-0.3298473,0.1559618,0.1524656,-48.44712,31.50799,-65.81337,-48.60205,31.4614,-66.04177,-0.2011719,-0.1831055,-0.3825684,0.1533511,0.578916,-0.4127328,-23.01657,25.50051,-144.3728,-22.95863,25.37576,-144.5853,UP
-0.5441895,-0.7895508,0.4370117,-0.5893893,0.2475649,-0.1223435,-48.45733,31.50329,-65.8089,-48.52422,31.09126,-65.49973,-0.1982422,-0.1860352,-0.3845215,-0.01458788,-0.01650381,-0.428,-23.02181,25.48819,-144.386,-23.26884,24.8957,-144.7391,UP
-0.5444336,-0.7907715,0.4401855,-0.9252671,0.2475649,-0.1528779,-48.47046,31.49721,-65.80219,-48.47941,31.02955,-65.36878,-0.2004395,-0.1928711,-0.380127,0.3518243,0.5483816,-0.3974657,-23.03963,25.49017,-144.3802,-24.17119,25.18434,-143.8046,UP
-0.5393066,-0.7915039,0.434082,-0.8794656,0.07962596,-0.07654199,-48.49048,31.48554,-65.79965,-48.82499,30.85508,-65.61902,-0.197998,-0.1877441,-0.3874512,0.6113663,0.8231909,-0.5196033,-23.03664,25.48641,-144.3972,-23.3395,24.6968,-144.8454,UP
-0.5463867,-0.7963867,0.4309082,-0.7267939,0.2933664,-0.1986794,-48.50843,31.48229,-65.80569,-48.85399,31.10741,-65.95515,-0.1955566,-0.1862793,-0.3701172,0.4434273,0.0,-0.4890685,-23.04917,25.48199,-144.3941,-23.98913,25.26538,-143.8814,UP
-0.5458984,-0.7919922,0.4238281,0.0,0.1864962,-0.1528779,-48.51609,31.48115,-65.81624,-48.89125,31.28808,-66.22102,-0.1950684,-0.1843262,-0.3623047,0.2144198,0.0,-0.7486105,-23.06785,25.48505,-144.3859,-24.13039,25.63518,-143.4705,UP
-0.5478516,-0.7995605,0.420166,-0.6046565,-0.01197708,-0.2139466,-48.53785,31.47613,-65.83412,-49.18938,31.2386,-66.56339,-0.1943359,-0.1875,-0.3862305,0.1991527,0.4415114,-0.1837251,-23.07246,25.46891,-144.4016,-23.44446,24.3535,-145.0398,UP
-0.5466309,-0.7973633,0.4191895,-0.2687786,0.3849695,-0.1223435,-48.55456,31.47726,-65.8504,-49.17562,31.2495,-66.55798,-0.1958008,-0.1833496,-0.378418,0.4739618,0.3041069,-0.09212208,-23.07018,25.46308,-144.4082,-23.28339,24.96866,-144.6688,UP
-0.5483398,-0.7941895,0.4279785,-0.1008396,-0.1035802,-0.2902825,-48.56058,31.47212,-65.85908,-48.78663,31.2914,-66.08481,-0.2050781,-0.1845703,-0.3859863,0.7182367,0.05983204,0.07581687,-23.05608,25.46689,-144.4078,-22.89319,25.60969,-144.4427,UP
-0.5471191,-0.7910156,0.4289551,0.4335115,-0.08831299,-0.7024961,-48.55675,31.46739,-65.87149,-48.68759,31.30042,-65.96335,-0.1977539,-0.1904297,-0.385498,0.5502977,-0.09283972,-0.1531909,-23.0614,25.45017,-144.4128,-23.72675,24.699,-144.5431,UP
-0.546875,-0.7905273,0.4326172,0.1587023,-0.2562519,-0.4887558,-48.55499,31.45931,-65.87664,-48.58539,31.25172,-65.76958,-0.1999512,-0.1921387,-0.3847656,0.2449541,-0.1691756,0.03001523,-23.07478,25.43754,-144.4085,-23.89838,24.93489,-144.2193,UP
-0.5410156,-0.8115234,0.4331055,-0.2840458,-0.2257175,-0.2139466,-48.57785,31.43626,-65.88316,-49.50349,30.46179,-66.05588,-0.2019043,-0.1884766,-0.3813477,-0.04512215,-0.3371145,0.2895572,-23.08586,25.43166,-144.3978,-23.59546,25.39102,-144.0848,UP
-0.5466309,-0.7902832,0.440918,-0.2077099,0.03382444,0.04559542,-48.57683,31.43071,-65.87186,-48.37383,31.13355,-65.35181,-0.2036133,-0.1862793,-0.3764648,-0.2130611,-0.123374,0.2132213,-23.09768,25.43845,-144.3818,-23.52021,25.86217,-143.7567,UP
-0.5429688,-0.7966309,0.4370117,-0.07030535,-0.07304579,0.09139694,-48.58265,31.41825,-65.86539,-48.81662,30.86134,-65.61533,-0.2072754,-0.1901855,-0.3828125,0.04648089,0.1056336,-0.07685494,-23.10703,25.44862,-144.3691,-23.5996,25.86913,-143.69,UP
-0.5429688,-0.7895508,0.4384766,-0.1466411,-0.07304579,-0.1376107,-48.58367,31.4091,-65.85835,-48.52552,31.01448,-65.41164,-0.1987305,-0.1865234,-0.3840332,0.1380839,0.2735725,0.3200917,-23.10953,25.44289,-144.3697,-23.3335,24.96118,-144.6363,UP
-0.5449219,-0.7849121,0.4450684,-0.2077099,0.2933664,0.04559542,-48.5776,31.4078,-65.841,-48.12754,31.12841,-65.02463,-0.2050781,-0.1794434,-0.3769531,0.07701516,0.6247175,0.259023,-23.10006,25.46644,-144.3613,-22.69265,26.16133,-144.1366,UP
-0.5498047,-0.7902832,0.4331055,-0.07030535,0.430771,0.03032825,-48.5765,31.41372,-65.83929,-48.47071,31.38708,-65.77815,-0.1992188,-0.1879883,-0.3754883,0.3518243,0.0,0.1063511,-23.11004,25.46473,-144.3503,-23.85782,25.38074,-143.8899,UP
-0.5500488,-0.7888184,0.442627,-0.02450383,0.3544351,0.04559542,-48.56873,31.41674,-65.82751,-48.17011,31.30431,-65.2846,-0.2009277,-0.1860352,-0.3828125,0.1686182,0.8231909,0.1674199,-23.11101,25.47296,-144.3493,-23.28215,25.27105,-144.4238,UP
-0.5334473,-0.7929688,0.4445801,0.00603056,0.2933664,-0.1834122,-48.57308,31.4008,-65.81472,-48.79071,30.404,-65.05276,-0.2021484,-0.1884766,-0.3835449,0.2754886,0.5331145,0.06054974,-23.11492,25.47712,-144.3459,-23.49568,25.31532,-144.2235,UP
-0.5541992,-0.7875977,0.4326172,-0.1466411,0.06435877,-0.1070763,-48.56855,31.40694,-65.81608,-48.24583,31.66386,-65.80942,-0.2016602,-0.1870117,-0.3681641,0.2907557,0.3346412,0.1063511,-23.12861,25.49307,-144.3222,-24.01316,26.02876,-143.2394,UP
-0.5446777,-0.7895508,0.4316406,-0.1466411,0.171229,0.04559542,-48.57224,31.40506,-65.81453,-48.64534,31.18685,-65.77222,-0.2004395,-0.1899414,-0.3798828,-0.02985501,0.3499084,0.07581687,-23.14359,25.49364,-144.3144,-23.8559,25.26408,-143.9862,UP
-0.5322266,-0.7932129,0.4367676,-0.1161069,0.2933664,0.1524656,-48.58335,31.39018,-65.80456,-49.04242,30.44543,-65.42816,-0.1972656,-0.1828613,-0.3859863,0.1686182,0.2583054,0.03001523,-23.13569,25.48336,-144.3302,-22.87251,24.79035,-145.1284,UP
-0.5444336,-0.7958984,0.4338379,-0.3145801,0.1864962,-0.1223435,-48.59281,31.38491,-65.80581,-48.82476,30.98967,-65.77692,-0.199707,-0.1896973,-0.3793945,0.1075497,0.2430381,0.03001523,-23.14884,25.48126,-144.3236,-23.86684,25.21161,-144.0203,UP
-0.5410156,-0.7946777,0.4255371,-0.2077099,-0.3020534,0.01506107,-48.60585,31.37248,-65.81197,-49.10226,30.97083,-66.12384,-0.1972656,-0.1896973,-0.3771973,0.4739618,-0.3218473,0.2132213,-23.1593,25.46777,-144.3147,-24.02006,25.0429,-144.0371,UP
-0.5476074,-0.7954102,0.434082,0.00603056,-0.2104504,-0.0002061129,-48.60764,31.36485,-65.81165,-48.69998,31.14559,-65.7958,-0.1977539,-0.1850586,-0.3791504,0.07701516,-0.4287176,-0.04632068,-23.1624,25.45102,-144.3187,-23.40107,25.1134,-144.4607,UP
-0.5415039,-0.7844238,0.4245605,0.03656495,0.06435877,0.1524656,-48.60952,31.36424,-65.81179,-48.74272,31.26202,-65.99104,-0.2023926,-0.1845703,-0.3762207,0.1838853,-0.2607787,0.06054974,-23.16377,25.45375,-144.3103,-23.36631,25.77925,-143.9429,UP
-0.5466309,-0.7883301,0.4404297,0.2808397,-0.1646488,0.01506107,-48.59952,31.3583,-65.80212,-48.31584,31.18808,-65.33955,-0.2016602,-0.1879883,-0.3879395,0.1228168,-0.031771,-0.0005190372,-23.16401,25.4456,-144.3161,-23.26576,25.0699,-144.6002,UP
-0.5510254,-0.7890625,0.4396973,0.1434351,-0.1493817,0.183,-48.58986,31.35661,-65.7923,-48.2221,31.38373,-65.44589,-0.2004395,-0.2028809,-0.3852539,0.07701516,-0.0470382,-0.07685494,-23.20041,25.43038,-144.3007,-25.04053,24.71885,-143.4882,UP
-0.5524902,-0.7956543,0.4458008,0.08236647,-0.3325878,-0.07654199,-48.58204,31.34872,-65.78333,-48.25924,31.20659,-65.28707,-0.2019043,-0.1872559,-0.3862305,0.1228168,0.1209008,0.3658931,-23.19962,25.42738,-144.2995,-23.25141,25.19167,-144.5121,UP
-0.548584,-0.7949219,0.4372559,0.2655725,-0.2867863,0.1524656,-48.57792,31.34073,-65.77827,-48.57134,31.1601,-65.64273,-0.2001953,-0.1894531,-0.3842773,0.04648089,0.01403052,0.2437558,-23.20728,25.41994,-144.297,-23.61663,25.04503,-144.3495,UP
-0.5517578,-0.7888184,0.4318848,0.06709921,-0.1341145,0.3814733,-48.57309,31.34256,-65.77383,-48.38617,31.53055,-65.83674,-0.1970215,-0.1921387,-0.3786621,-0.02985501,-0.2760458,-0.1379237,-23.22825,25.4053,-144.2929,-24.23392,24.89105,-143.9915,UP
-0.5498047,-0.7905273,0.4345703,0.128168,-0.179916,0.3814733,-48.5686,31.34028,-65.76694,-48.44265,31.36113,-65.71016,-0.203125,-0.1906738,-0.3837891,-0.4573359,-0.4897862,0.07581687,-23.24454,25.3972,-144.2864,-23.70676,25.36039,-144.0237,UP
-0.5422363,-0.7924805,0.4406738,0.05183208,-0.439458,0.4730763,-48.56842,31.3246,-65.75163,-48.59766,30.87906,-65.34846,-0.1989746,-0.1901855,-0.3771973,-0.3351984,-0.5813893,-0.04632068,-23.26495,25.38571,-144.2789,-24.03509,25.22148,-143.8811,UP
-0.5397949,-0.7832031,0.4306641,-0.2077099,-0.3631221,0.2593359,-48.57185,31.31571,-65.74586,-48.59766,31.12914,-65.641,-0.1977539,-0.1884766,-0.3828125,-0.2130611,-0.1386412,0.2132213,-23.2753,25.37327,-144.2799,-23.62596,24.86558,-144.4874,UP
-0.5400391,-0.7922363,0.4255371,0.05183208,-0.02724427,0.5188779,-48.58058,31.30871,-65.74466,-49.04663,30.98557,-66.06707,-0.2011719,-0.1875,-0.3759766,-0.09092379,-0.07757253,0.1521528,-23.28585,25.37639,-144.2684,-23.73576,25.58627,-143.817,UP
-0.5483398,-0.7946777,0.434082,0.0976336,-0.1646488,0.4578092,-48.58054,31.30406,-65.73887,-48.65047,31.19751,-65.79164,-0.199707,-0.1865234,-0.3776855,-0.1672597,-0.1844428,0.1521528,-23.2943,25.37347,-144.2631,-23.58528,25.36567,-144.1133,UP
-0.5415039,-0.7907715,0.4338379,0.2961069,-0.05777865,0.4883435,-48.57928,31.29671,-65.72982,-48.73476,30.97902,-65.6454,-0.206543,-0.1889648,-0.378418,-0.1519923,-0.2607787,0.3658931,-23.30402,25.3827,-144.2426,-23.66863,26.02672,-143.5071,UP
-0.550293,-0.7946777,0.4377441,-0.1161069,-0.4547252,0.3814733,-48.57932,31.28886,-65.72233,-48.49618,31.23846,-65.63587,-0.2053223,-0.1860352,-0.3747559,-0.289397,-0.2607787,0.2284887,-23.31243,25.39425,-144.2251,-23.52624,26.13915,-143.5235,UP
-0.5480957,-0.791748,0.4318848,0.128168,-0.3936565,0.2288015,-48.57815,31.28345,-65.72161,-48.6087,31.28809,-65.84369,-0.2053223,-0.1850586,-0.3786621,-0.2435954,-0.4897862,0.06054974,-23.31475,25.39864,-144.2171,-23.24949,25.97371,-143.8716,UP
-0.5461426,-0.7871094,0.4343262,-0.07030535,-0.2409847,0.2288015,-48.57647,31.27982,-65.71606,-48.4423,31.27901,-65.61257,-0.206543,-0.1838379,-0.3876953,-0.06038928,-0.2455115,0.610168,-23.30353,25.40115,-144.2139,-22.70918,25.70476,-144.5032,UP
-0.5437012,-0.7922363,0.4343262,0.1129008,-0.02724427,0.2288015,-48.57737,31.2746,-65.7119,-48.70472,31.03889,-65.67613,-0.2072754,-0.1887207,-0.3793945,-0.02985501,-0.5966565,0.350626,-23.30952,25.40626,-144.1956,-23.58257,26.06589,-143.5408,UP
-0.5493164,-0.7888184,0.4431152,0.1739695,-0.01197708,0.2288015,-48.56706,31.27422,-65.69955,-48.18076,31.26371,-65.25111,-0.1999512,-0.1882324,-0.3842773,-0.1519923,-0.4897862,0.5185649,-23.31529,25.39185,-144.1931,-23.48643,25.04584,-144.4496,UP
-0.5446777,-0.7978516,0.4333496,0.2045038,-0.02724427,0.1219313,-48.57069,31.26753,-65.70056,-48.89896,30.95969,-65.83987,-0.1994629,-0.185791,-0.380127,-0.1214581,0.1667023,0.9460459,-23.31883,25.39128,-144.1824,-23.40277,25.24062,-144.3559,UP
-0.5478516,-0.7871094,0.4382324,0.2961069,0.2475649,0.1219313,-48.5607,31.27192,-65.69358,-48.28893,31.30495,-65.44112,-0.203125,-0.1872559,-0.3840332,-0.09092379,0.1667023,0.701771,-23.32004,25.39429,-144.1745,-23.31723,25.42732,-144.2692,UP
-0.5480957,-0.7880859,0.4377441,0.2808397,0.339168,0.2440687,-48.55221,31.27711,-65.68609,-48.32884,31.29889,-65.48649,-0.1984863,-0.1828613,-0.378418,0.06174803,0.4109771,0.8544428,-23.31609,25.39804,-144.1685,-23.16765,25.27984,-144.5043,UP
-0.5441895,-0.7875977,0.4316406,0.3571756,0.4765725,0.0,-48.54773,31.28282,-65.68697,-48.5906,31.21247,-65.73002,-0.1994629,-0.1911621,-0.3605957,0.229687,0.07509923,0.8239083,-23.34411,25.4121,-144.1239,-24.88607,26.04572,-142.5419,UP
-0.5478516,-0.7927246,0.4418945,0.3419085,0.4613054,-0.1070763,-48.53971,31.28629,-65.68211,-48.39833,31.11714,-65.36475,-0.1984863,-0.1816406,-0.3752441,0.3976259,0.3499084,0.6559694,-23.33508,25.41784,-144.1196,-23.16547,25.45941,-144.3591,UP
-0.5476074,-0.7880859,0.4401855,0.4945802,0.690313,0.1219313,-48.52779,31.29489,-65.67398,-48.28241,31.24276,-65.35966,-0.199707,-0.1872559,-0.3764648,0.1533511,0.1819695,0.7323053,-23.34054,25.42029,-144.1059,-23.72103,25.40619,-143.9753,UP
-0.5498047,-0.7844238,0.4404297,0.3724428,0.5834427,-0.09180916,-48.51324,31.3062,-65.66801,-48.07425,31.43155,-65.30805,-0.1970215,-0.1855469,-0.3811035,0.3976259,0.7010534,0.3964274,-23.33604,25.42009,-144.1108,-23.38805,24.92964,-144.6198,UP
-0.5490723,-0.7880859,0.4343262,0.5709161,0.3697023,-0.09180916,-48.50282,31.31297,-65.66927,-48.38415,31.39097,-65.6681,-0.2041016,-0.1975098,-0.380127,0.4128931,0.04456491,0.6559694,-23.35519,25.42186,-144.0836,-24.59714,25.47562,-143.2339,UP
-0.5490723,-0.784668,0.4250488,0.4029771,0.1559618,-0.2444809,-48.49672,31.32106,-65.68082,-48.49376,31.60311,-66.06721,-0.1977539,-0.1838379,-0.3833008,0.3060229,0.1819695,0.1674199,-23.34529,25.41504,-144.0962,-23.08535,24.9472,-144.8383,UP
-0.5507813,-0.784668,0.434082,0.1587023,0.1864962,-0.1223435,-48.48869,31.32856,-65.68179,-48.21212,31.55859,-65.63935,-0.203125,-0.1838379,-0.3725586,0.1533511,0.3651755,-0.09212208,-23.34476,25.43286,-144.089,-23.42411,26.05544,-143.6708,UP
-0.5488281,-0.784668,0.4316406,0.1129008,0.07962596,-0.2444809,-48.48409,31.33311,-65.68622,-48.33597,31.50148,-65.73545,-0.2001953,-0.1843262,-0.3757324,0.04648089,0.3499084,0.0147481,-23.34539,25.44063,-144.0887,-23.41052,25.56421,-144.0856,UP
-0.5505371,-0.7912598,0.4387207,0.03656495,-0.08831299,0.04559542,-48.48069,31.33156,-65.68238,-48.34126,31.32043,-65.52819,-0.1999512,-0.1882324,-0.3747559,0.01594663,-0.123374,0.06054974,-23.35626,25.43982,-144.0814,-23.90045,25.49117,-143.7669,UP
-0.5473633,-0.7873535,0.4406738,0.00603056,-0.07304579,-0.1376107,-48.47601,31.32871,-65.67713,-48.25125,31.24271,-65.3188,-0.1992188,-0.1872559,-0.3818359,0.1075497,-0.4745191,-0.01578617,-23.35753,25.42606,-144.0879,-23.49889,25.10032,-144.3958,UP
-0.5478516,-0.7854004,0.4333496,0.1739695,0.06435877,0.1524656,-48.47094,31.33137,-65.67438,-48.35064,31.41433,-65.65145,-0.2004395,-0.1835938,-0.3825684,-0.1519923,0.02929771,-0.1379237,-23.35321,25.42365,-144.1003,-23.02974,25.28393,-144.6063,UP
-0.5454102,-0.7836914,0.4350586,-0.2535114,0.1406947,-0.01547329,-48.47172,31.3332,-65.67118,-48.32324,31.31956,-65.50343,-0.1987305,-0.1845703,-0.3828125,0.0922823,-0.3065802,-0.1379237,-23.34813,25.4119,-144.114,-23.16691,25.06166,-144.6828,UP
-0.5498047,-0.7856445,0.4348145,-0.03977096,-0.2409847,0.03032825,-48.46807,31.33257,-65.66947,-48.26022,31.47888,-65.60841,-0.204834,-0.1865234,-0.373291,0.1075497,-0.0470382,-0.0005190372,-23.35271,25.42586,-144.1001,-23.65617,26.1445,-143.4194,UP
-0.5507813,-0.7910156,0.4460449,-0.4367175,-0.1646488,0.03032825,-48.46793,31.32825,-65.65898,-48.13995,31.23742,-65.16721,-0.1962891,-0.1884766,-0.3769531,0.32129,0.3651755,-0.3058627,-23.35925,25.42219,-144.1061,-23.91617,24.97379,-144.1741,UP
-0.5495605,-0.7902832,0.4331055,-0.1466411,-0.1188473,0.04559542,-48.4703,31.32745,-65.66063,-48.47851,31.37577,-65.77505,-0.1972656,-0.1882324,-0.3759766,0.1380839,-0.07757253,-0.1379237,-23.36836,25.41536,-144.1069,-23.90929,25.13418,-144.0499,UP
-0.5629883,-0.786377,0.434082,0.1129008,-0.179916,-0.0002061129,-48.45706,31.34,-65.66398,-47.88569,32.07848,-65.82782,-0.2009277,-0.1860352,-0.3728027,0.3823588,-0.3981832,0.1063511,-23.36967,25.41612,-144.0972,-23.71484,25.7459,-143.7024,UP
-0.5461426,-0.7910156,0.4304199,0.128168,-0.3173206,-0.168145,-48.45967,31.33324,-65.67074,-48.68197,31.23527,-65.87827,-0.2038574,-0.192627,-0.3796387,0.5502977,-0.3981832,-0.260061,-23.3759,25.41371,-144.09,-24.08578,25.58801,-143.5438,UP
-0.5546875,-0.7885742,0.4433594,0.1587023,-0.5768626,-0.3055496,-48.44809,31.32838,-65.6679,-47.9973,31.51421,-65.30423,-0.2033691,-0.1950684,-0.3813477,0.32129,-0.4592519,0.2437558,-23.38981,25.40708,-144.0756,-24.29215,25.39748,-143.5372,UP
-0.5437012,-0.7927246,0.4362793,0.08236647,-0.5615954,-0.2139466,-48.45145,31.31412,-65.66925,-48.67244,31.0006,-65.58854,-0.1999512,-0.1865234,-0.3762207,0.1380839,-0.993603,-0.07685494,-23.39286,25.39358,-144.075,-23.64344,25.46214,-143.9897,UP
-0.5449219,-0.7958984,0.4387207,0.128168,-0.439458,-0.1223435,-48.45424,31.30032,-65.66851,-48.68502,30.94696,-65.54226,-0.2050781,-0.1865234,-0.375,0.01594663,-0.382916,-0.07685494,-23.3963,25.40185,-144.0652,-23.57649,26.08863,-143.5267,UP
-0.5541992,-0.7880859,0.4343262,-0.03977096,-0.2715191,0.04559542,-48.45015,31.30288,-65.66914,-48.22088,31.62825,-65.73377,-0.2016602,-0.1889648,-0.3693848,-0.07565641,-0.3065802,0.182687,-23.41309,25.40773,-144.0451,-24.18061,25.92114,-143.1976,UP
-0.5449219,-0.7836914,0.4387207,0.1892367,-0.3325878,0.0,-48.44328,31.29686,-65.66206,-48.24547,31.24625,-65.31538,-0.2028809,-0.1870117,-0.3745117,-0.1672597,-0.2607787,0.1521528,-23.42138,25.41289,-144.0343,-23.70449,25.85744,-143.6188,UP
-0.5410156,-0.791748,0.4294434,-0.07030535,-0.1493817,0.03032825,-48.4534,31.28855,-65.66589,-48.89784,30.9912,-65.87563,-0.2060547,-0.1826172,-0.3894043,-0.06038928,-0.06230533,0.1216183,-23.40407,25.41575,-144.0467,-22.51451,25.59848,-144.7374,UP
-0.5483398,-0.7922363,0.4321289,-0.1161069,0.1406947,0.07612977,-48.45817,31.29039,-65.6684,-48.61227,31.28405,-65.84361,-0.1992188,-0.184082,-0.371582,0.03121376,0.319374,0.1216183,-23.40726,25.42534,-144.0414,-23.58652,25.66036,-143.8715,UP
-0.5480957,-0.7861328,0.4509277,-0.08557248,0.2017633,0.1677328,-48.44872,31.29084,-65.64859,-47.92311,31.16455,-64.80158,-0.2058105,-0.1884766,-0.3754883,-0.01458788,0.4415114,0.3964274,-23.41448,25.4453,-144.0224,-23.75751,26.09865,-143.3793,UP
-0.5449219,-0.7939453,0.4404297,0.00603056,0.09489316,0.07612977,-48.45109,31.28585,-65.64294,-48.57165,30.9715,-65.422,-0.2001953,-0.1906738,-0.3762207,0.04648089,0.3957099,0.4269619,-23.4276,25.45003,-144.0094,-24.10438,25.39106,-143.6895,UP
-0.5454102,-0.7949219,0.4384766,-0.05503809,0.2780993,-0.2597481,-48.4557,31.28415,-65.64474,-48.6409,30.99668,-65.54242,-0.2182617,-0.1845703,-0.3835449,0.06174803,0.6094504,0.091084,-23.41207,25.49294,-143.994,-22.69678,27.14784,-143.3044,UP
-0.5415039,-0.7854004,0.4431152,-0.08557248,0.03382444,-0.1986794,-48.45389,31.27865,-65.63649,-48.30276,30.98415,-65.08558,-0.2019043,-0.1828613,-0.3742676,0.1991527,0.487313,0.0147481,-23.40626,25.50744,-143.9929,-23.26791,25.85971,-143.9517,UP
-0.5454102,-0.7841797,0.4313965,-0.1924427,0.06435877,-0.2444809,-48.45632,31.28118,-65.64125,-48.43399,31.35775,-65.69469,-0.2089844,-0.1894531,-0.3837891,0.32129,0.227771,0.06054974,-23.40218,25.52114,-143.9859,-23.43826,26.02523,-143.685,UP
-0.546875,-0.7897949,0.4238281,-0.1466411,0.3086336,-0.1986794,-48.46497,31.28786,-65.65522,-48.7807,31.38851,-66.19346,-0.2023926,-0.1811523,-0.3720703,0.4739618,0.4415114,0.1674199,-23.39029,25.53845,-143.9811,-23.15614,26.06213,-143.8694,UP
-0.5515137,-0.7971191,0.4304199,-0.1771755,0.1406947,-0.1528779,-48.47284,31.29083,-65.6655,-48.72818,31.33305,-66.05654,-0.2016602,-0.1884766,-0.380127,0.6571679,0.4262443,0.2895572,-23.38654,25.54196,-143.9778,-23.6537,25.42133,-144.0151,UP
-0.5527344,-0.7980957,0.4367676,-0.1466411,-0.05777865,-0.2597481,-48.4767,31.28983,-65.67129,-48.56543,31.28031,-65.77701,-0.197998,-0.1916504,-0.3769531,0.1991527,-0.0470382,0.3048244,-23.40054,25.53223,-143.9704,-24.23278,25.08986,-143.8325,UP
-0.543457,-0.7897949,0.4526367,0.00603056,-0.2562519,-0.03074045,-48.47018,31.27701,-65.65285,-48.15536,30.83742,-64.72652,-0.2009277,-0.1843262,-0.3730469,-0.01458788,-0.09283972,-0.01578617,-23.40294,25.53572,-143.968,-23.5101,25.77506,-143.8361,UP
-0.5449219,-0.786377,0.4345703,-0.3451145,-0.02724427,-0.03074045,-48.47482,31.27581,-65.65166,-48.44856,31.23693,-65.57124,-0.1970215,-0.1870117,-0.376709,0.1380839,0.1819695,-0.0005190372,-23.40654,25.53131,-143.9727,-23.74485,25.10111,-144.2046,UP
-0.5544434,-0.7966309,0.4216309,-0.3145801,0.2322977,0.07612977,-48.48942,31.28771,-65.66723,-48.83459,31.59734,-66.51936,-0.1994629,-0.1879883,-0.3859863,0.3365571,0.6399847,-0.0310533,-23.40173,25.52785,-143.9861,-23.397,24.91912,-144.6214,UP
-0.5488281,-0.7919922,0.4365234,-0.222977,0.2170305,-0.0002061129,-48.49223,31.29,-65.66644,-48.47712,31.25324,-65.62814,-0.2001953,-0.1896973,-0.3806152,0.229687,-0.01650381,-0.3058627,-23.40614,25.52121,-143.9926,-23.80235,25.20874,-144.0727,UP
-0.552002,-0.7858887,0.4326172,-0.2840458,-0.02724427,-0.03074045,-48.49192,31.29587,-65.66859,-48.25416,31.6049,-65.75009,-0.2038574,-0.184082,-0.3852539,0.2144198,0.6247175,0.1216183,-23.393,25.52979,-144.0013,-22.89614,25.522,-144.5126,UP
-0.5473633,-0.795166,0.4362793,-0.07030535,-0.1951832,0.09139694,-48.49592,31.28949,-65.66756,-48.64347,31.11078,-65.67987,-0.2036133,-0.185791,-0.3793945,-0.07565641,-0.01650381,0.1521528,-23.39304,25.53363,-143.9991,-23.33975,25.73357,-144.0007,UP
-0.5476074,-0.7871094,0.4335938,-0.009236574,-0.2715191,0.04559542,-48.49442,31.28685,-65.66689,-48.41409,31.35717,-65.66768,-0.2043457,-0.1943359,-0.3793945,-0.3657329,-0.0470382,-0.1226563,-23.41604,25.5345,-143.9884,-24.27407,25.61213,-143.377,UP
-0.5473633,-0.791748,0.4375,-0.1466411,-0.4241909,0.2135344,-48.49649,31.27844,-65.66155,-48.49012,31.17812,-65.5568,-0.1992188,-0.189209,-0.3808594,-0.1214581,-0.2302443,0.2742901,-23.42469,25.52245,-143.9885,-23.75953,25.10089,-144.1934,UP
-0.5454102,-0.7878418,0.4387207,-0.4367175,-0.02724427,0.2288015,-48.50058,31.2758,-65.65294,-48.38031,31.16675,-65.39912,-0.1960449,-0.1850586,-0.3771973,-0.3504658,0.5178473,-0.1837251,-23.43185,25.5199,-144.0004,-23.52484,25.01418,-144.4456,UP
-0.5412598,-0.7895508,0.4343262,-0.4214504,-0.02724427,0.2135344,-48.51049,31.26971,-65.64864,-48.68617,30.99103,-65.59541,-0.2016602,-0.1879883,-0.3835449,0.04648089,-0.01650381,-0.2753282,-23.43162,25.51473,-144.01,-23.45236,25.27294,-144.2914,UP
-0.5437012,-0.7856445,0.4362793,-0.4825191,0.2322977,0.2593359,-48.51525,31.271,-65.64126,-48.41739,31.17469,-65.4571,-0.2006836,-0.1899414,-0.3840332,-0.01458788,0.2583054,-0.1837251,-23.43661,25.51021,-144.0178,-23.67036,25.09874,-144.2644,UP
-0.5466309,-0.7878418,0.4360352,-0.4214504,0.1254275,0.07612977,-48.51933,31.27262,-65.63827,-48.40984,31.26026,-65.54768,-0.2011719,-0.1848145,-0.3781738,0.07701516,0.5178473,-0.2447939,-23.43351,25.51851,-144.0241,-23.338,25.54482,-144.1571,UP
-0.5427246,-0.7912598,0.4379883,-0.3451145,0.5529084,-0.1223435,-48.52617,31.27466,-65.6366,-48.60722,30.96791,-65.46448,-0.2023926,-0.1845703,-0.3779297,0.1991527,0.838458,0.06054974,-23.42777,25.53441,-144.0241,-23.293,25.69731,-144.0663,UP
-0.5500488,-0.7851563,0.4362793,-0.3603816,0.06435877,-0.06127481,-48.52489,31.27975,-65.63536,-48.19785,31.48215,-65.53,-0.204834,-0.1894531,-0.3796387,-0.1061909,0.4567786,0.06054974,-23.43498,25.54584,-144.0164,-23.71043,25.77005,-143.686,UP
-0.5473633,-0.7958984,0.4362793,-0.3756489,0.3086336,-0.01547329,-48.53331,31.28055,-65.63674,-48.66964,31.09284,-65.69331,-0.1994629,-0.1855469,-0.392334,0.0922823,0.4109771,-0.09212208,-23.4222,25.53423,-144.0419,-22.85913,24.68327,-145.2254,UP
-0.5512695,-0.7875977,0.4338379,-0.3451145,0.3086336,-0.2139466,-48.53356,31.28941,-65.64117,-48.30876,31.51163,-65.71146,-0.1975098,-0.1843262,-0.3823242,0.1838853,0.3499084,0.1368854,-23.4148,25.52778,-144.0541,-23.18734,24.95462,-144.754,UP
-0.546875,-0.7937012,0.4338379,-0.3603816,0.171229,-0.09180916,-48.54155,31.28928,-65.64505,-48.66838,31.15694,-65.76736,-0.197998,-0.184082,-0.3791504,0.2754886,-0.07757253,0.06054974,-23.40816,25.51934,-144.0623,-23.28528,25.16292,-144.5095,UP
-0.5427246,-0.791748,0.4428711,-0.1466411,0.01855725,-0.03074045,-48.54287,31.28156,-65.63725,-48.49961,30.8898,-65.2328,-0.2026367,-0.192627,-0.3725586,0.04648089,-0.09283972,0.091084,-23.42787,25.52334,-144.042,-24.42759,25.78736,-143.1139,UP
-0.5356445,-0.7905273,0.4443359,-0.1771755,0.06435877,0.06086259,-48.54743,31.26826,-65.62454,-48.64046,30.56899,-65.04659,-0.1999512,-0.1882324,-0.3601074,0.2449541,-0.1997099,0.2895572,-23.44691,25.53396,-144.0103,-24.55997,26.20104,-142.6714,UP
-0.5454102,-0.7902832,0.4311523,-0.02450383,0.03382444,0.07612977,-48.55005,31.26758,-65.62731,-48.6606,31.20944,-65.81921,-0.1977539,-0.1882324,-0.3774414,0.2754886,0.6705191,0.091084,-23.45059,25.53554,-144.0112,-23.83332,25.1201,-144.1205,UP
-0.5483398,-0.7910156,0.425293,-0.1619084,0.262832,0.1371985,-48.55623,31.27422,-65.63597,-48.74031,31.40644,-66.16087,-0.1984863,-0.1865234,-0.380127,-0.07565641,0.3651755,0.259023,-23.45283,25.53251,-144.0147,-23.50717,25.11556,-144.3771,UP
-0.5539551,-0.7885742,0.4353027,0.02129769,0.2322977,-0.0002061129,-48.54923,31.28398,-65.63708,-48.2219,31.59143,-65.69131,-0.1965332,-0.1882324,-0.3713379,0.1991527,0.2125039,0.4727633,-23.46352,25.53039,-144.0027,-24.13351,25.27064,-143.7643,UP
-0.5437012,-0.7839355,0.432373,0.1129008,0.07962596,0.01506107,-48.54568,31.28488,-65.63651,-48.4551,31.27059,-65.61954,-0.2006836,-0.1848145,-0.3847656,0.1686182,0.6705191,0.3048244,-23.4533,25.53259,-144.0117,-23.06829,25.18057,-144.6613,UP
-0.543457,-0.782959,0.4436035,-0.1619084,0.06435877,-0.1528779,-48.53979,31.28263,-65.62669,-48.14014,31.1283,-65.04086,-0.2004395,-0.1870117,-0.3793945,0.1228168,0.2735725,-0.3821983,-23.45341,25.53306,-144.0201,-23.54929,25.35499,-144.1498,UP
-0.5444336,-0.7880859,0.4360352,-0.2840458,-0.01197708,-0.07654199,-48.54295,31.27984,-65.62576,-48.48855,31.15197,-65.52402,-0.2043457,-0.1867676,-0.3864746,0.32129,0.3957099,-0.5806718,-23.44228,25.53737,-144.036,-23.133,25.45757,-144.3854,UP
-0.5397949,-0.7893066,0.4331055,-0.5130534,0.07962596,-0.03074045,-48.55474,31.27432,-65.62636,-48.75553,30.94503,-65.63288,-0.2087402,-0.1828613,-0.3786621,0.5350306,0.487313,-0.4432673,-23.42405,25.56179,-144.037,-22.9241,26.40005,-143.7636,UP
-0.5324707,-0.7897949,0.4309082,-0.4977863,0.03382444,-0.06127481,-48.57226,31.2617,-65.6279,-49.065,30.61841,-65.65868,-0.2006836,-0.1833496,-0.3793945,0.3823588,0.9300611,-0.5043359,-23.41258,25.57355,-144.0513,-23.13157,25.46651,-144.3791,UP
-0.5463867,-0.7941895,0.4267578,-0.5283206,0.4460382,-0.1070763,-48.58618,31.26736,-65.63934,-48.88029,31.21702,-66.12104,-0.1960449,-0.1877441,-0.3752441,0.7182367,0.0,-0.5043359,-23.41278,25.56295,-144.0596,-23.91499,25.04336,-144.1189,UP
-0.5437012,-0.7978516,0.4372559,-0.574122,0.2933664,-0.336084,-48.59895,31.26328,-65.64386,-48.83063,30.86239,-65.63502,-0.2023926,-0.1889648,-0.3840332,0.4281602,0.8231909,-0.5043359,-23.4087,25.56995,-144.07,-23.52353,25.30821,-144.2078,UP
-0.5554199,-0.7902832,0.4421387,-0.6962595,0.01855725,-0.2597481,-48.59854,31.26875,-65.64291,-48.06654,31.5227,-65.40504,-0.1965332,-0.1894531,-0.3764648,0.4128931,0.9147939,-0.8402138,-23.4157,25.57113,-144.0812,-24.04215,25.00099,-144.0536,UP
-0.5422363,-0.7905273,0.4516602,-0.7878625,-0.05777865,-0.3055496,-48.60227,31.25811,-65.62968,-48.24473,30.77657,-64.77224,-0.1958008,-0.1877441,-0.3791504,-0.197794,0.5941832,-0.6264734,-23.42525,25.56512,-144.0971,-23.7479,24.83425,-144.4178,UP
-0.5539551,-0.7932129,0.432373,-0.6657251,-0.4241909,-0.1223435,-48.60925,31.25703,-65.6373,-48.46183,31.51615,-65.92023,-0.1992188,-0.1855469,-0.380127,-0.197794,0.6399847,-0.5043359,-23.42708,25.56699,-144.1099,-23.38083,25.21916,-144.3902,UP
-0.5541992,-0.7910156,0.4421387,-0.6962595,-0.2257175,0.1066641,-48.60924,31.25777,-65.63114,-48.13125,31.44855,-65.40276,-0.2021484,-0.189209,-0.3793945,0.03121376,0.3651755,-0.3516641,-23.4332,25.57087,-144.1104,-23.75597,25.49239,-143.878,UP
-0.5498047,-0.793457,0.432373,-0.5893893,-0.3173206,0.1066641,-48.61778,31.25431,-65.63439,-48.60307,31.31842,-65.87227,-0.204834,-0.2009277,-0.3769531,-0.1672597,0.3499084,-0.5043359,-23.46892,25.57697,-144.0901,-25.09608,25.61889,-142.7222,UP
-0.5522461,-0.791748,0.4404297,-0.6351909,-0.1493817,-0.0002061129,-48.62,31.25431,-65.63121,-48.2619,31.36399,-65.47501,-0.2043457,-0.192627,-0.3771973,0.229687,0.5025801,-0.3821983,-23.47978,25.58794,-144.0806,-24.18109,25.75615,-143.3322,UP
-0.5476074,-0.791748,0.434082,-0.5130534,-0.3173206,0.04559542,-48.62651,31.24928,-65.63249,-48.56884,31.23575,-65.72874,-0.203125,-0.1838379,-0.361084,0.0006792545,0.1361679,-0.3669312,-23.48875,25.61055,-144.0602,-23.92855,26.62504,-142.8115,UP
-0.5458984,-0.7885742,0.4311523,-0.299313,-0.179916,0.0,-48.62976,31.24731,-65.63573,-48.58342,31.27454,-65.79404,-0.1987305,-0.1833496,-0.3813477,0.0922823,-0.001236677,0.03001523,-23.47946,25.60147,-144.0718,-23.09202,25.15767,-144.6619,UP
-0.5578613,-0.7939453,0.4255371,0.00603056,-0.2104504,0.0,-48.62771,31.25467,-65.64942,-48.53195,31.7699,-66.3204,-0.2041016,-0.1896973,-0.3864746,0.3670917,-0.123374,-0.0310533,-23.47372,25.59492,-144.075,-23.46238,25.36475,-144.2088,UP
-0.5493164,-0.7958984,0.4367676,0.2350382,-0.5005267,-0.01547329,-48.62361,31.24575,-65.65054,-48.59535,31.1766,-65.69391,-0.1879883,-0.1955566,-0.3706055,0.2602212,-0.6729923,0.1216183,-23.50444,25.55637,-144.0677,-25.20114,24.16202,-143.7982,UP
-0.5432129,-0.7902832,0.4365234,0.05183208,-0.6379313,-0.1986794,-48.62226,31.23215,-65.65095,-48.59407,31.03442,-65.52501,-0.197998,-0.1962891,-0.3845215,0.0922823,-0.06230533,0.5032978,-23.52121,25.53707,-144.06,-24.41059,24.63719,-144.0552,UP
-0.5456543,-0.7941895,0.4365234,0.1129008,-0.2867863,0.04559542,-48.62128,31.22433,-65.64982,-48.65662,31.05219,-65.62827,-0.2053223,-0.1879883,-0.3803711,-0.1672597,-0.6119237,0.2437558,-23.52317,25.5344,-144.0515,-23.50457,25.82327,-143.8007,UP
-0.5422363,-0.7929688,0.4538574,0.1587023,-0.08831299,0.2593359,-48.6122,31.21239,-65.62749,-48.27575,30.68799,-64.71134,-0.1975098,-0.1894531,-0.3828125,-0.04512215,-0.4745191,0.03001523,-23.52818,25.51306,-144.0588,-23.74036,24.81649,-144.438,UP
-0.5498047,-0.7927246,0.4504395,0.128168,-0.2562519,0.2746031,-48.60048,31.20619,-65.61034,-48.12044,31.09057,-64.97171,-0.2053223,-0.1918945,-0.3874512,-0.04512215,-0.5966565,0.06054974,-23.53098,25.50207,-144.0576,-23.63531,25.40205,-144.045,UP
-0.5395508,-0.7883301,0.4382324,0.03656495,-0.2104504,0.2288015,-48.59985,31.19674,-65.60191,-48.59621,30.88809,-65.35706,-0.2036133,-0.1904297,-0.3720703,0.01594663,0.01403052,0.091084,-23.54371,25.51169,-144.0383,-24.17905,25.97288,-143.1564,UP
-0.5400391,-0.793457,0.4465332,0.1434351,0.4002366,0.0,-48.59676,31.19216,-65.59088,-48.5508,30.67385,-65.05047,-0.1887207,-0.1845703,-0.3779297,0.01594663,0.6247175,0.03001523,-23.54464,25.49396,-144.0584,-23.60177,24.16593,-145.0668,UP
-0.5412598,-0.7875977,0.4379883,0.08236647,0.5376411,0.04559542,-48.59406,31.19601,-65.58594,-48.52183,30.98925,-65.37739,-0.2011719,-0.1855469,-0.3825684,0.06174803,0.0,0.4574962,-23.53749,25.49049,-144.0589,-23.23246,25.32045,-144.4215,UP
-0.5354004,-0.7880859,0.4245605,0.2961069,0.4155039,0.1066641,-48.59929,31.19587,-65.59228,-49.0733,30.88358,-65.98149,-0.2026367,-0.1870117,-0.3779297,0.1686182,0.0,0.5338321,-23.5355,25.49402,-144.0476,-23.56205,25.66705,-143.8848,UP
-0.5473633,-0.7932129,0.4294434,0.06709921,0.5529084,-0.04600763,-48.60124,31.20509,-65.60075,-48.74623,31.25068,-65.98219,-0.1931152,-0.1853027,-0.3757324,0.3518243,0.7621221,0.07581687,-23.53364,25.48955,-144.0564,-23.68384,24.74781,-144.5372,UP
-0.5493164,-0.7922363,0.4296875,-0.009236574,0.1254275,-0.2292137,-48.60219,31.20996,-65.61141,-48.64238,31.36223,-65.97688,-0.1989746,-0.1875,-0.3742676,0.2144198,0.1361679,0.3811603,-23.53706,25.49022,-144.0467,-23.86225,25.42289,-143.8522,UP
-0.5449219,-0.7932129,0.4362793,0.05183208,0.4155039,-0.336084,-48.60241,31.21277,-65.61639,-48.65113,31.04539,-65.61304,-0.1877441,-0.1860352,-0.3723145,0.489229,0.1667023,-0.0310533,-23.54002,25.46846,-144.0588,-24.04438,24.27942,-144.6292,UP
-0.5454102,-0.7878418,0.4375,0.219771,0.4765725,-0.427687,-48.59536,31.21919,-65.61954,-48.4114,31.18345,-65.4595,-0.2026367,-0.1906738,-0.3833008,0.672435,0.2125039,0.5949008,-23.53477,25.4686,-144.0499,-23.73886,25.32966,-144.0238,UP
-0.5439453,-0.7922363,0.4428711,0.2808397,0.1101603,-0.5650916,-48.58917,31.21501,-65.62006,-48.47876,30.93467,-65.2576,-0.1962891,-0.1889648,-0.3776855,0.7945726,-0.09283972,0.1521528,-23.53116,25.45643,-144.0505,-23.93867,24.92842,-144.1931,UP
-0.5488281,-0.784668,0.4382324,0.5709161,0.003290057,-0.504023,-48.57238,31.21898,-65.62324,-48.16956,31.41063,-65.40849,-0.2033691,-0.1855469,-0.3779297,0.8709083,-0.3981832,0.5338321,-23.51535,25.45709,-144.0403,-23.38054,25.78232,-143.9294,UP
-0.5437012,-0.7878418,0.4360352,0.3724428,0.003290057,-0.7482977,-48.56552,31.21712,-65.63197,-48.50305,31.12385,-65.51009,-0.1999512,-0.1867676,-0.3852539,0.6266336,-0.5966565,0.5643663,-23.50208,25.44044,-144.0441,-23.28166,25.03372,-144.6173,UP
-0.5432129,-0.793457,0.4230957,0.2045038,0.1559618,-0.6872291,-48.57239,31.21764,-65.65378,-49.04938,31.1361,-66.25069,-0.2028809,-0.1848145,-0.3735352,0.748771,0.1514351,0.5185649,-23.48513,25.45419,-144.0254,-23.49846,25.95731,-143.6949,UP
-0.5466309,-0.7890625,0.4365234,0.2961069,0.3086336,-0.6566947,-48.5631,31.22471,-65.66643,-48.44149,31.22348,-65.54609,-0.206543,-0.1882324,-0.3796387,0.8556412,0.2430381,0.3658931,-23.47354,25.4684,-144.0124,-23.5348,25.98584,-143.6436,UP
-0.5512695,-0.7919922,0.4372559,0.738855,0.2322977,-0.6872291,-48.5486,31.23076,-65.67567,-48.38126,31.35619,-65.62315,-0.2028809,-0.1875,-0.3859863,0.9167099,0.07509923,0.6254351,-23.45684,25.46614,-144.0117,-23.26718,25.30415,-144.4082,UP
-0.548584,-0.7851563,0.4394531,0.4029771,0.06435877,-0.6414275,-48.53538,31.23443,-65.67804,-48.16409,31.37034,-65.35403,-0.1994629,-0.1901855,-0.380127,0.5655649,0.02929771,0.3048244,-23.45728,25.46003,-144.0081,-23.89492,25.13925,-144.057,UP
-0.5515137,-0.7915039,0.4440918,0.38771,0.07962596,-0.5650916,-48.52265,31.23664,-65.67841,-48.18394,31.28609,-65.2814,-0.2016602,-0.1884766,-0.3815918,0.1533511,0.1514351,0.3658931,-23.4577,25.46012,-144.005,-23.59051,25.35277,-144.1198,UP
-0.5534668,-0.7880859,0.4375,0.3266413,0.1864962,-0.336084,-48.51069,31.24566,-65.68114,-48.16483,31.55083,-65.56767,-0.1999512,-0.1875,-0.3811035,-0.01458788,0.1056336,0.2132213,-23.45957,25.45656,-144.0074,-23.54128,25.20973,-144.2742,UP
-0.5454102,-0.7927246,0.4306641,-0.07030535,0.04909158,-0.2139466,-48.51665,31.24454,-65.68822,-48.76059,31.15563,-65.88818,-0.2009277,-0.1943359,-0.3798828,-0.1672597,-0.2149771,0.04528236,-23.47949,25.44856,-143.9997,-24.33294,25.21489,-143.6529,UP
-0.5412598,-0.7912598,0.4470215,-0.03977096,0.09489316,0.01506107,-48.51533,31.23658,-65.67425,-48.42118,30.77699,-65.00073,-0.2019043,-0.2011719,-0.3828125,-0.04512215,-0.2760458,0.1979542,-23.50917,25.43607,-143.9834,-24.93,25.027,-143.3309,UP
-0.5424805,-0.7927246,0.435791,-0.08557248,0.3849695,0.1219313,-48.52075,31.23652,-65.67091,-48.72374,30.95035,-65.59721,-0.2011719,-0.189209,-0.3710938,-0.1061909,0.2735725,0.4727633,-23.52342,25.44694,-143.9636,-24.14387,25.77833,-143.3431,UP
-0.5488281,-0.7832031,0.4404297,-0.131374,0.09489316,0.09139694,-48.51348,31.24151,-65.6616,-48.06071,31.4164,-65.27258,-0.2055664,-0.1877441,-0.3815918,-0.06038928,0.3041069,0.1674199,-23.52224,25.45843,-143.9596,-23.41982,25.79778,-143.8866,UP
-0.5449219,-0.7893066,0.4438477,-0.2840458,0.07962596,0.0,-48.51374,31.23861,-65.65171,-48.31771,31.03799,-65.16732,-0.1994629,-0.1960449,-0.3828125,-0.3504658,0.6247175,0.091084,-23.54546,25.45605,-143.9561,-24.42586,24.88037,-143.8487,UP
-0.5480957,-0.786377,0.4335938,-0.4367175,0.2780993,0.2898702,-48.51732,31.24589,-65.64763,-48.37202,31.39805,-65.66045,-0.1960449,-0.1882324,-0.3847656,-0.1825268,0.6857863,-0.1379237,-23.54828,25.44886,-143.9742,-23.55207,24.59282,-144.7643,UP
-0.548584,-0.7905273,0.4365234,-0.4367175,0.3239008,0.0,-48.52204,31.25129,-65.64664,-48.43222,31.27801,-65.59809,-0.1977539,-0.1904297,-0.3867188,-0.1061909,0.0,-0.0310533,-23.55225,25.43276,-143.9877,-23.67393,24.64373,-144.6286,UP
-0.541748,-0.7873535,0.4382324,-0.5435878,0.3849695,0.1677328,-48.52888,31.25184,-65.63875,-48.49124,31.01472,-65.367,-0.1884766,-0.1884766,-0.3813477,-0.1367252,0.9300611,-0.3363969,-23.56115,25.41572,-144.0139,-23.89701,23.89701,-145.048,UP
-0.5341797,-0.7883301,0.439209,-0.299313,0.2322977,0.2440687,-48.53753,31.24268,-65.62718,-48.74133,30.62293,-65.23968,-0.1975098,-0.201416,-0.3652344,-0.4573359,0.6399847,-0.06158781,-23.61375,25.42298,-143.9809,-25.87731,25.3395,-142.3185,UP
-0.5432129,-0.7893066,0.4233398,-0.4977863,0.07962596,0.4883435,-48.5515,31.24364,-65.6312,-48.89439,31.23635,-66.16309,-0.199707,-0.1860352,-0.3703613,-0.5947404,0.3041069,-0.2142596,-23.62725,25.43353,-143.9766,-23.85149,25.72706,-143.6122,UP
-0.5476074,-0.7844238,0.4460449,-0.3451145,0.2170305,0.6410153,-48.54556,31.24699,-65.6092,-48.00078,31.25158,-65.00256,-0.1970215,-0.1889648,-0.3779297,-0.5489388,0.1667023,-0.1073892,-23.64099,25.42728,-143.9818,-23.91101,24.99874,-144.158,UP
-0.543457,-0.7666016,0.4377441,-0.3298473,0.09489316,0.6868168,-48.53327,31.25579,-65.58736,-47.68874,31.61732,-65.02214,-0.2009277,-0.1882324,-0.3803711,-0.4115343,0.227771,-0.01578617,-23.64647,25.42856,-143.9845,-23.63262,25.33483,-144.1018,UP
-0.5478516,-0.7873535,0.4396973,-0.1771755,0.2933664,0.4883435,-48.53024,31.26028,-65.57639,-48.26062,31.2788,-65.37331,-0.201416,-0.1877441,-0.369873,-0.640542,0.4262443,0.1674199,-23.66349,25.44426,-143.969,-24.02637,25.90033,-143.3346,UP
-0.5625,-0.791748,0.4375,-0.07030535,0.5071069,0.5646794,-48.52089,31.28002,-65.57156,-48.01133,31.87472,-65.75017,-0.2036133,-0.1833496,-0.3791504,-0.3199313,0.6399847,0.03001523,-23.65612,25.4602,-143.9721,-23.07563,25.80206,-144.1456,UP
-0.5429688,-0.7915039,0.4367676,-0.07030535,0.4002366,0.3967404,-48.52423,31.27971,-65.56534,-48.63945,30.98981,-65.53247,-0.1970215,-0.185791,-0.3806152,-0.197794,0.4567786,-0.07685494,-23.65464,25.45664,-143.9852,-23.43665,24.9468,-144.5683,UP
-0.5424805,-0.7905273,0.4260254,-0.03977096,0.262832,0.3204046,-48.5322,31.28069,-65.57016,-48.89386,31.13568,-66.04198,-0.2004395,-0.1833496,-0.3769531,-0.3962674,0.4415114,0.1216183,-23.6522,25.46512,-143.9881,-23.24159,25.55581,-144.2218,UP
-0.5422363,-0.7900391,0.4345703,-0.1619084,0.339168,0.2135344,-48.53727,31.28049,-65.56771,-48.66631,31.02132,-65.60479,-0.2036133,-0.1875,-0.3828125,-0.04512215,0.319374,0.2284887,-23.64753,25.47116,-143.9876,-23.38521,25.53234,-144.1311,UP
-0.5419922,-0.7973633,0.4355469,-0.222977,0.3849695,0.0,-48.54802,31.27689,-65.57013,-48.91117,30.81763,-65.68884,-0.2016602,-0.1921387,-0.3842773,-0.01458788,0.746855,0.07581687,-23.65239,25.47487,-143.9881,-23.88086,25.1442,-144.0639,UP
-0.5439453,-0.7932129,0.4331055,-0.2840458,0.5529084,0.06086259,-48.55622,31.27979,-65.57304,-48.763,31.04267,-65.75767,-0.199707,-0.1865234,-0.3730469,-0.1061909,0.746855,0.091084,-23.65667,25.48807,-143.9825,-23.7883,25.58617,-143.7764,UP
-0.5517578,-0.7929688,0.4313965,-0.1771755,0.5223741,-0.1376107,-48.55865,31.29055,-65.58234,-48.54762,31.434,-65.93632,-0.199707,-0.1899414,-0.3815918,0.1533511,0.8079236,-0.01578617,-23.65725,25.49227,-143.9863,-23.79819,25.10401,-144.1608,UP
-0.5334473,-0.7922363,0.4440918,-0.1619084,0.59871,-0.09180916,-48.5654,31.28211,-65.5733,-48.77725,30.42816,-65.06289,-0.1950684,-0.1828613,-0.3874512,-0.02985501,0.5483816,0.4269619,-23.6417,25.48008,-144.0081,-22.85774,24.47998,-145.3908,UP
-0.5480957,-0.7922363,0.4296875,-0.08557248,0.3697023,0.09139694,-48.56898,31.28801,-65.57971,-48.68156,31.30562,-65.96152,-0.1999512,-0.1862793,-0.3759766,-0.07565641,0.3651755,0.1216183,-23.64251,25.48544,-144.0059,-23.62653,25.47948,-143.9886,UP
-0.5471191,-0.7919922,0.4348145,0.05183208,0.3849695,0.0,-48.56833,31.29185,-65.58193,-48.57464,31.19717,-65.69082,-0.1984863,-0.1889648,-0.3798828,-0.5184045,0.4720459,0.2132213,-23.65311,25.48408,-144.0065,-23.79157,25.07078,-144.1929,UP
-0.5483398,-0.786377,0.4372559,-0.07030535,0.4460382,0.1982672,-48.56343,31.29976,-65.57702,-48.27168,31.35913,-65.48215,-0.1999512,-0.1906738,-0.3786621,-0.4115343,0.5636489,0.07581687,-23.66574,25.48713,-144.003,-24.00241,25.24989,-143.8836,UP
-0.5466309,-0.7944336,0.4399414,-0.2382443,-0.07304579,0.2440687,-48.56638,31.29367,-65.57166,-48.54762,31.04542,-65.47681,-0.1945801,-0.1862793,-0.3798828,-0.3351984,0.1514351,0.06054974,-23.66892,25.47356,-144.0152,-23.57832,24.69746,-144.6598,UP
-0.545166,-0.7910156,0.4379883,-0.1161069,0.09489316,0.3051374,-48.56718,31.29094,-65.56557,-48.52104,31.08747,-65.49112,-0.2026367,-0.1853027,-0.3747559,-0.1825268,0.1972366,0.1216183,-23.66835,25.48418,-144.0085,-23.50663,25.85949,-143.7693,UP
-0.5444336,-0.7944336,0.4321289,-0.02450383,0.03382444,0.2898702,-48.57252,31.28658,-65.56668,-48.81588,31.04846,-65.83459,-0.2019043,-0.1889648,-0.3818359,-0.4726033,0.6399847,0.07581687,-23.67451,25.49104,-144.009,-23.62885,25.35693,-144.0867,UP
-0.5449219,-0.7954102,0.4360352,0.1739695,0.1101603,0.3356718,-48.57323,31.28237,-65.56372,-48.73593,30.99489,-65.66559,-0.197998,-0.1896973,-0.375,-0.2588627,0.4567786,0.091084,-23.68658,25.49203,-144.004,-24.1006,25.22716,-143.8252,UP
-0.5471191,-0.7890625,0.4414063,-0.03977096,0.5071069,0.5036107,-48.56835,31.28727,-65.55177,-48.30204,31.1794,-65.31135,-0.203125,-0.1855469,-0.3847656,-0.2130611,0.4262443,-0.01578617,-23.67791,25.4971,-144.0129,-23.09607,25.43183,-144.4346,UP
-0.5480957,-0.7924805,0.4311523,0.02129769,0.339168,0.3051374,-48.56974,31.2921,-65.55411,-48.65344,31.27985,-65.89335,-0.2019043,-0.1867676,-0.3625488,-0.04512215,0.8079236,0.2895572,-23.68963,25.52581,-143.9846,-24.23088,26.33872,-142.8149,UP
-0.557373,-0.7915039,0.4289551,0.08236647,-0.01197708,0.1371985,-48.56465,31.30133,-65.56303,-48.37589,31.76246,-66.10152,-0.1975098,-0.1853027,-0.3759766,-0.2435954,0.319374,0.4727633,-23.69087,25.52459,-143.9827,-23.57243,25.22997,-144.2337,UP
-0.5441895,-0.7915039,0.4299316,0.38771,0.3239008,-0.1070763,-48.56315,31.30285,-65.57108,-48.77458,31.13882,-65.88682,-0.2009277,-0.1877441,-0.3793945,-0.06038928,0.4720459,0.3200917,-23.69028,25.52841,-143.9799,-23.62024,25.39196,-144.0648,UP
-0.5410156,-0.7851563,0.4345703,0.6167176,0.3086336,-0.09180916,-48.55401,31.30271,-65.57088,-48.52908,31.0846,-65.49831,-0.2026367,-0.1870117,-0.3791504,0.32129,0.02929771,0.4727633,-23.68194,25.53045,-143.9728,-23.50947,25.60912,-143.9727,UP
-0.5395508,-0.7924805,0.4414063,0.479313,-0.2409847,-0.09180916,-48.54915,31.288,-65.56638,-48.66357,30.74401,-65.27805,-0.203125,-0.189209,-0.3752441,0.32129,0.2735725,0.2132213,-23.68186,25.5398,-143.9604,-23.91393,25.7966,-143.5069,UP
-0.5402832,-0.7944336,0.4350586,0.2808397,-0.2104504,-0.4887558,-48.55151,31.27546,-65.57498,-48.87363,30.81596,-65.63733,-0.203125,-0.1904297,-0.3774414,0.1380839,-0.07757253,0.2742901,-23.68542,25.5412,-143.9491,-23.9545,25.66309,-143.5846,UP
-0.536377,-0.7949219,0.4418945,0.1892367,-0.02724427,-0.336084,-48.55465,31.26018,-65.57329,-48.83839,30.53023,-65.25943,-0.2053223,-0.2001953,-0.3815918,-0.2283282,-0.07757253,0.2895572,-23.71101,25.53877,-143.9273,-24.79691,25.47669,-143.0751,UP
-0.5356445,-0.7858887,0.4418945,0.219771,0.2017633,-0.3513512,-48.55106,31.25224,-65.56857,-48.53681,30.71459,-65.07908,-0.2026367,-0.1877441,-0.3813477,-0.2283282,-0.07757253,0.6559694,-23.71008,25.53662,-143.9208,-23.49708,25.48843,-144.0811,UP
-0.5480957,-0.7961426,0.4338379,0.2503054,0.4155039,-0.2597481,-48.5507,31.25637,-65.57757,-48.71672,31.15348,-65.82735,-0.2026367,-0.1835938,-0.3859863,-0.04512215,0.3041069,0.442229,-23.69326,25.53736,-143.93,-22.83794,25.36503,-144.6857,UP
-0.5415039,-0.795166,0.4333496,0.0976336,0.7513816,-0.1528779,-48.55644,31.25911,-65.58314,-48.90461,30.8778,-65.75082,-0.2011719,-0.1845703,-0.3786621,0.229687,0.4262443,0.701771,-23.68181,25.54343,-143.9252,-23.28952,25.52727,-144.2086,UP
-0.550293,-0.7954102,0.4387207,0.2350382,0.8277176,-0.1834122,-48.55182,31.27024,-65.5862,-48.49778,31.20733,-65.60129,-0.1984863,-0.1884766,-0.3771973,0.1991527,0.4109771,0.8849771,-23.68234,25.54275,-143.9144,-23.8546,25.20733,-144.0332,UP
-0.5554199,-0.7902832,0.4428711,0.479313,0.0,-0.1376107,-48.5347,31.27509,-65.58389,-48.04823,31.51262,-65.36913,-0.2006836,-0.1865234,-0.3813477,0.4281602,1.021664,0.9613131,-23.67091,25.55194,-143.909,-23.4049,25.30155,-144.3046,UP
-0.5493164,-0.7883301,0.4492188,0.3419085,1.209397,-0.0002061129,-48.51948,31.29,-65.57106,-48.00827,31.19137,-64.94263,-0.1999512,-0.1960449,-0.3789063,0.2144198,1.250672,0.8239083,-23.68611,25.56153,-143.8894,-24.58842,25.11193,-143.5343,UP
-0.5515137,-0.7944336,0.4396973,0.3113741,1.056725,-0.1528779,-48.51251,31.30523,-65.57291,-48.39974,31.27432,-65.55093,-0.2033691,-0.1877441,-0.3833008,0.0922823,0.8995267,0.701771,-23.67897,25.57306,-143.8846,-23.39713,25.47713,-144.1671,UP
-0.5478516,-0.7915039,0.4328613,-0.2077099,0.7055801,0.06086259,-48.51698,31.31488,-65.57632,-48.58311,31.26962,-65.78778,-0.1992188,-0.1845703,-0.3818359,-0.04512215,0.8842595,0.5490992,-23.67001,25.57782,-143.8904,-23.19774,25.16129,-144.578,UP
-0.5410156,-0.7871094,0.4362793,0.0976336,0.0,0.1982672,-48.51632,31.30885,-65.57088,-48.55585,31.01314,-65.44986,-0.1975098,-0.184082,-0.3859863,-0.2435954,1.250672,0.7475727,-23.66028,25.58047,-143.9022,-23.00407,24.79058,-145.0276,UP
-0.5458984,-0.7905273,0.4353027,0.1739695,0.9956565,0.442542,-48.5144,31.32071,-65.56544,-48.5485,31.16995,-65.62418,-0.1936035,-0.1989746,-0.3781738,-0.197794,1.128534,0.0,-23.6917,25.57181,-143.8985,-25.0956,24.37336,-143.7173,UP
-0.5412598,-0.7912598,0.4433594,0.08236647,0.7971831,0.4578092,-48.5133,31.32177,-65.55146,-48.51558,30.82682,-65.18079,-0.1975098,-0.1843262,-0.3815918,-0.4268017,0.5636489,0.7781069,-23.68851,25.56843,-143.9031,-23.21873,24.98872,-144.7022,UP
-0.548584,-0.7861328,0.4343262,0.2045038,0.5681756,0.4272748,-48.50661,31.33202,-65.54667,-48.32912,31.41677,-65.6259,-0.197998,-0.1872559,-0.3815918,-0.2588627,0.3346412,0.4880307,-23.68903,25.56118,-143.9077,-23.53689,24.9766,-144.4667,UP
-0.543457,-0.784668,0.4291992,0.2350382,0.5376411,0.442542,-48.50466,31.33844,-65.54543,-48.5703,31.28435,-65.78828,-0.2001953,-0.1845703,-0.3789063,-0.7474122,-0.001236677,0.3964274,-23.69812,25.55808,-143.9065,-23.30124,25.40744,-144.2977,UP
-0.5478516,-0.7890625,0.4379883,-0.1924427,0.2475649,0.3356718,-48.50621,31.34245,-65.53674,-48.36563,31.26016,-65.48935,-0.2009277,-0.1843262,-0.3769531,-0.5489388,0.4109771,0.2742901,-23.69905,25.56471,-143.9068,-23.34095,25.58732,-144.12,UP
-0.5612793,-0.7939453,0.4287109,-0.4061831,0.1559618,0.4578092,-48.50895,31.35557,-65.54341,-48.34438,31.88389,-66.20631,-0.1967773,-0.1835938,-0.3815918,-0.01458788,0.6094504,0.4116948,-23.68831,25.56025,-143.9191,-23.1524,24.92375,-144.8059,UP
-0.5498047,-0.7956543,0.4350586,0.1739695,-0.05777865,0.3051374,-48.50867,31.35223,-65.54395,-48.61416,31.22812,-65.77976,-0.1972656,-0.1872559,-0.3752441,-0.09092379,0.1667023,-0.06158781,-23.69251,25.55532,-143.9229,-23.83142,25.19151,-144.0641,UP
-0.5500488,-0.791748,0.4345703,0.4182443,-0.2715191,0.3814733,-48.50192,31.34804,-65.54218,-48.47876,31.34225,-65.73561,-0.204834,-0.1889648,-0.3818359,-0.2741299,-0.123374,0.1521528,-23.69393,25.55596,-143.9197,-23.56194,25.67781,-143.8761,UP
-0.5512695,-0.7824707,0.4382324,0.3113741,-0.4699924,0.702084,-48.48755,31.34574,-65.52901,-48.01236,31.57843,-65.39952,-0.199707,-0.1848145,-0.380127,-0.7016106,-0.8409313,-0.07685494,-23.69543,25.5391,-143.9305,-23.2874,25.29005,-144.4042,UP
-0.5402832,-0.7832031,0.4287109,0.05183208,-0.5005267,0.8394885,-48.48973,31.33553,-65.52182,-48.632,31.17875,-65.74496,-0.2023926,-0.1818848,-0.3835449,0.0,-0.5355878,-0.1073892,-23.67659,25.53028,-143.9464,-22.75359,25.49152,-144.6456,UP
-0.5480957,-0.7902832,0.4370117,-0.131374,-0.4089237,0.9463588,-48.4904,31.32791,-65.50874,-48.42658,31.25474,-65.56324,-0.2021484,-0.1826172,-0.3713379,-0.8695498,-0.5050534,0.04528236,-23.68306,25.53296,-143.9415,-23.36088,26.03562,-143.7355,UP
-0.545166,-0.7839355,0.4404297,-0.2382443,-0.1646488,0.8547558,-48.48816,31.32349,-65.49077,-48.203,31.22798,-65.23849,-0.201416,-0.1845703,-0.3796387,-0.5794735,-0.1386412,-0.0310533,-23.68219,25.53056,-143.9483,-23.2422,25.5079,-144.2607,UP
-0.548584,-0.7900391,0.4450684,-0.07030535,-0.1035802,0.961626,-48.48332,31.31906,-65.47112,-48.19822,31.17315,-65.16844,-0.2036133,-0.1784668,-0.3867188,-0.5336719,0.227771,0.2132213,-23.66064,25.53431,-143.9662,-22.21251,25.55075,-145.0027,UP
-0.5495605,-0.7824707,0.453125,-0.05503809,-0.1951832,0.8852901,-48.46824,31.31562,-65.44156,-47.68863,31.29059,-64.64411,-0.2036133,-0.185791,-0.3759766,-0.4268017,0.4262443,0.182687,-23.66343,25.54784,-143.9593,-23.48625,25.89723,-143.7538,UP
-0.550293,-0.7868652,0.4353027,-0.131374,-0.1646488,0.702084,-48.46634,31.31618,-65.43467,-48.27658,31.46449,-65.61298,-0.1975098,-0.1848145,-0.3771973,-0.4268017,0.5025801,-0.1073892,-23.66529,25.54745,-143.9687,-23.46382,25.18365,-144.3552,UP
-0.5517578,-0.786377,0.4406738,-0.1771755,0.1406947,0.6715496,-48.46099,31.32119,-65.42392,-48.07733,31.47036,-65.35764,-0.2021484,-0.1811523,-0.3837891,-0.381,0.7773893,-0.1073892,-23.65092,25.55732,-143.9855,-22.66645,25.46952,-144.7295,UP
-0.5541992,-0.7946777,0.4421387,-0.3603816,0.2322977,0.5036107,-48.46232,31.32536,-65.41743,-48.26275,31.35877,-65.46998,-0.1999512,-0.1887207,-0.3735352,-0.2435954,0.7926565,0.0,-23.66143,25.56779,-143.9787,-24.00948,25.53745,-143.6444,UP
-0.5512695,-0.7878418,0.4467773,-0.1008396,0.2475649,0.4578092,-48.45429,31.32879,-65.40437,-47.99168,31.3273,-65.07857,-0.2055664,-0.1818848,-0.373291,-0.2283282,0.487313,-0.1531909,-23.65382,25.59035,-143.9748,-23.11324,26.33765,-143.673,UP
-0.5437012,-0.7924805,0.4355469,-0.3451145,0.1254275,0.2898702,-48.46393,31.32439,-65.40443,-48.68236,31.01645,-65.62023,-0.2006836,-0.177002,-0.3796387,-0.1214581,0.3651755,0.182687,-23.63043,25.59554,-143.9892,-22.401,25.59921,-144.8219,UP
-0.543457,-0.7888184,0.4377441,-0.1161069,0.1559618,0.4120076,-48.46629,31.32134,-65.3995,-48.50238,31.06516,-65.44048,-0.2036133,-0.1794434,-0.3747559,-0.07565641,0.1819695,0.1216183,-23.61523,25.60826,-143.9895,-22.81829,26.10678,-144.0877,UP
-0.5444336,-0.7851563,0.4401855,0.05183208,0.06435877,0.442542,-48.46179,31.31914,-65.39072,-48.27667,31.16718,-65.26392,-0.2041016,-0.1799316,-0.3769531,-0.2588627,0.2735725,0.2742901,-23.60214,25.62096,-143.9893,-22.77032,26.04189,-144.1777,UP
-0.5437012,-0.7883301,0.4423828,-0.1008396,0.1406947,0.4883435,-48.4612,31.31533,-65.37984,-48.35836,31.02512,-65.20538,-0.2060547,-0.1806641,-0.3791504,-0.4573359,0.6247175,0.3658931,-23.59116,25.64038,-143.9869,-22.71733,26.13321,-144.1416,UP
-0.5449219,-0.7861328,0.4489746,-0.08557248,0.5223741,0.442542,-48.45467,31.31759,-65.36285,-48.07169,31.04452,-64.85559,-0.2177734,-0.1811523,-0.3825684,-0.4878702,0.9605954,0.2895572,-23.57339,25.68525,-143.9729,-22.36788,27.22481,-143.4823,UP
-0.5478516,-0.7841797,0.4367676,-0.3298473,0.5376411,0.534145,-48.4545,31.32657,-65.35744,-48.21989,31.39758,-65.4593,-0.1987305,-0.1799316,-0.380127,-0.2130611,0.6094504,0.3811603,-23.5602,25.68636,-143.9839,-22.75702,25.29243,-144.8066,UP
-0.5515137,-0.7905273,0.4365234,0.05183208,0.59871,0.2746031,-48.45144,31.33711,-65.35896,-48.33925,31.41359,-65.63552,-0.1999512,-0.1826172,-0.3813477,-0.07565641,0.9453281,0.5185649,-23.54968,25.69179,-143.9896,-22.98232,25.30953,-144.6215,UP
-0.5524902,-0.7880859,0.4450684,0.2503054,0.873519,0.4578092,-48.43908,31.35038,-65.34916,-48.00551,31.40132,-65.18281,-0.1931152,-0.1838379,-0.3823242,0.01594663,0.578916,0.4880307,-23.54303,25.67598,-144.0048,-23.22893,24.47585,-145.1087,UP
-0.5534668,-0.7807617,0.4423828,0.1129008,0.5376411,0.1371985,-48.42417,31.36456,-65.34399,-47.77633,31.66455,-65.19157,-0.2001953,-0.1879883,-0.375,0.1228168,0.3804427,0.5490992,-23.54749,25.6783,-143.9923,-23.85644,25.51257,-143.7836,UP
-0.5541992,-0.7858887,0.4365234,0.03656495,0.430771,0.2440687,-48.41688,31.37666,-65.34522,-48.08652,31.65268,-65.58504,-0.2001953,-0.1826172,-0.3828125,0.3365571,0.578916,0.5032978,-23.53022,25.67803,-143.9997,-22.91502,25.26746,-144.7072,UP
-0.5527344,-0.7854004,0.4362793,0.1892367,0.5223741,0.01506107,-48.40837,31.3883,-65.34949,-48.12141,31.6005,-65.56921,-0.1999512,-0.1879883,-0.380127,0.3365571,0.6857863,0.4574962,-23.52744,25.67943,-143.9964,-23.63818,25.24407,-144.1714,UP
-0.5566406,-0.7836914,0.439209,-0.08557248,0.3239008,-0.06127481,-48.39871,31.40095,-65.35228,-47.86253,31.78271,-65.44388,-0.1953125,-0.185791,-0.3820801,0.3976259,0.2735725,0.1216183,-23.51966,25.66337,-144.0107,-23.41126,24.68888,-144.7963,UP
-0.5566406,-0.7900391,0.4428711,0.06709921,0.1254275,-0.3055496,-48.38984,31.40615,-65.35704,-48.00117,31.5747,-65.38043,-0.2006836,-0.1882324,-0.3808594,0.5044961,-0.2149771,0.1674199,-23.51419,25.65265,-144.0111,-23.61708,25.28509,-144.1544,UP
-0.5507813,-0.7878418,0.435791,0.1129008,0.003290057,-0.09180916,-48.38606,31.4072,-65.36351,-48.28407,31.45619,-65.61304,-0.1972656,-0.1855469,-0.3781738,0.4434273,-0.1844428,0.3353589,-23.50758,25.63875,-144.0138,-23.50968,25.09358,-144.393,UP
-0.5478516,-0.7851563,0.4335938,-0.1008396,-0.1646488,-0.1223435,-48.38654,31.40497,-65.37074,-48.33561,31.41705,-65.63483,-0.1999512,-0.1833496,-0.3835449,0.3976259,0.02929771,0.2284887,-23.49141,25.63017,-144.0249,-22.97183,25.1897,-144.7275,UP
-0.5578613,-0.786377,0.4416504,0.1739695,0.4002366,0.09139694,-48.37364,31.41713,-65.36985,-47.86086,31.73813,-65.38895,-0.2006836,-0.189209,-0.3867188,0.1838853,-0.01650381,0.4727633,-23.48836,25.61717,-144.0276,-23.47409,24.99198,-144.5028,UP
-0.5478516,-0.7844238,0.4223633,0.03656495,0.2017633,0.09139694,-48.37746,31.42353,-65.38474,-48.59188,31.58895,-66.18169,-0.2033691,-0.1835938,-0.3840332,0.04648089,0.5331145,0.4880307,-23.47598,25.62341,-144.0297,-22.90328,25.53713,-144.4948,UP
-0.5551758,-0.7856445,0.4499512,0.0976336,0.4460382,0.09139694,-48.36269,31.43195,-65.37437,-47.71059,31.51678,-64.9335,-0.1989746,-0.1826172,-0.3762207,0.1991527,0.5636489,0.07581687,-23.468,25.62811,-144.0345,-23.22343,25.44456,-144.3269,UP
-0.5458984,-0.7856445,0.4299316,-0.3145801,0.2933664,0.2288015,-48.37024,31.43491,-65.37954,-48.50851,31.36405,-65.80093,-0.1967773,-0.1853027,-0.3862305,-0.02985501,0.2888396,0.1521528,-23.462,25.61323,-144.0519,-23.14612,24.6717,-145.0148,UP
-0.552002,-0.7875977,0.4304199,-0.1008396,0.2933664,0.07612977,-48.37173,31.44237,-65.38863,-48.37093,31.59231,-65.89027,-0.1989746,-0.185791,-0.3996582,-0.04512215,0.2125039,0.1368854,-23.44532,25.59004,-144.0836,-22.59473,24.29744,-145.739,UP
-0.5505371,-0.7907715,0.4272461,0.128168,0.1559618,0.3051374,-48.37465,31.44558,-65.39812,-48.6117,31.48822,-66.08689,-0.199707,-0.1862793,-0.3896484,0.1686182,0.227771,0.3964274,-23.43504,25.57769,-144.096,-23.04709,24.81612,-144.974,UP
-0.5617676,-0.7885742,0.4313965,0.2961069,-0.179916,0.2288015,-48.36449,31.45429,-65.40669,-48.0698,32.00442,-65.98413,-0.1975098,-0.1875,-0.3737793,0.2907557,-0.1997099,0.3200917,-23.44043,25.56884,-144.0878,-23.91825,25.2822,-143.923,UP
-0.5532227,-0.7893066,0.4406738,0.4335115,-0.2715191,-0.168145,-48.35357,31.45053,-65.40965,-48.13708,31.46574,-65.43066,-0.2004395,-0.1901855,-0.3798828,0.1075497,-0.2302443,-0.0310533,-23.44781,25.55947,-144.0859,-23.88313,25.25839,-143.9696,UP
-0.5517578,-0.78125,0.439209,0.2961069,-0.2104504,0.06086259,-48.34099,31.45098,-65.40732,-47.92784,31.6178,-65.33496,-0.2006836,-0.1833496,-0.375,-0.5794735,-0.3523817,0.2132213,-23.45377,25.55664,-144.0823,-23.32011,25.67675,-144.0625,UP
-0.5498047,-0.7790527,0.4509277,-0.1466411,-0.2257175,0.4883435,-48.32857,31.44697,-65.3858,-47.61214,31.41644,-64.69023,-0.189209,-0.1804199,-0.385498,-0.9764199,-0.001236677,-0.04632068,-23.45388,25.52483,-144.1184,-22.78921,23.96704,-145.8553,UP
-0.5522461,-0.7858887,0.4326172,-0.6351909,-0.04251146,0.6715496,-48.33564,31.44978,-65.38393,-48.24636,31.61621,-65.75323,-0.2067871,-0.1848145,-0.3879395,-0.9306183,-0.382916,-0.1379237,-23.45452,25.52266,-144.1268,-22.8021,25.69785,-144.4389,UP
-0.5517578,-0.7790527,0.434082,-0.4367175,-0.01197708,0.7478855,-48.33488,31.45549,-65.37624,-47.97643,31.74444,-65.54861,-0.2011719,-0.1882324,-0.3891602,-0.8390155,0.2735725,-0.1531909,-23.4628,25.51534,-144.1406,-23.25194,24.95539,-144.7038,UP
-0.5507813,-0.7802734,0.4404297,-0.5130534,-0.01197708,0.793687,-48.33356,31.4578,-65.36192,-47.89228,31.57968,-65.24358,-0.1948242,-0.182373,-0.376709,-0.7474122,0.746855,-0.1989923,-23.4699,25.51525,-144.1544,-23.26854,24.96167,-144.6859,UP
-0.5600586,-0.7878418,0.4516602,-0.5130534,0.06435877,0.793687,-48.32636,31.46285,-65.34213,-47.59646,31.66294,-64.9554,-0.2028809,-0.1811523,-0.3608398,-0.6863437,0.7926565,-0.6264734,-23.48328,25.55017,-144.1404,-23.63439,26.6786,-142.9925,UP
-0.5551758,-0.7819824,0.4396973,-0.7725954,-0.2715191,0.8394885,-48.32788,31.46462,-65.33033,-47.83435,31.75088,-65.36917,-0.217041,-0.184082,-0.3786621,0.0,0.07509923,-0.3211298,-23.47099,25.58561,-144.1235,-22.86844,27.27079,-143.0724,UP
-0.5422363,-0.7885742,0.4443359,-0.9710688,-0.1035802,0.9158244,-48.34191,31.45239,-65.31305,-48.36307,30.9242,-65.09476,-0.201416,-0.1796875,-0.3779297,-0.7474122,0.5483816,-0.168458,-23.4678,25.596,-144.1328,-22.76215,25.70214,-144.4655,UP
-0.5507813,-0.7844238,0.4389648,0.0,-0.1035802,0.6257481,-48.33668,31.45176,-65.30545,-48.08038,31.49713,-65.39311,-0.1999512,-0.1791992,-0.3818359,-0.7474122,0.09036642,-0.4585342,-23.4602,25.59258,-144.1542,-22.57535,25.3632,-144.8857,UP
-0.550293,-0.7888184,0.4411621,0.0,-0.07304579,0.3967404,-48.33393,31.44844,-65.30109,-48.19944,31.33575,-65.35981,-0.1977539,-0.1760254,-0.3815918,-0.4115343,0.487313,-0.3821983,-23.44249,25.59191,-144.1816,-22.27214,25.20072,-145.2471,UP
-0.5507813,-0.78125,0.4367676,0.0,0.09489316,0.2898702,-48.32766,31.453,-65.29967,-48.02025,31.60658,-65.44311,-0.1982422,-0.1784668,-0.3730469,-0.3504658,0.578916,-0.3211298,-23.43683,25.60082,-144.1914,-22.90195,25.61212,-144.434,UP
-0.5595703,-0.7878418,0.4338379,-0.8489313,0.3086336,0.07612977,-48.33465,31.46624,-65.30901,-48.05331,31.88837,-65.82233,-0.1987305,-0.1806641,-0.3811035,-0.07565641,0.7926565,-0.3363969,-23.42511,25.60427,-144.2087,-22.79887,25.22963,-144.8264,UP
-0.5512695,-0.7897949,0.4238281,-0.8641985,0.2475649,0.06086259,-48.35258,31.47217,-65.32697,-48.63822,31.59277,-66.24858,-0.2036133,-0.1848145,-0.3828125,0.1838853,0.3346412,-0.6264734,-23.41561,25.60898,-144.22,-23.08557,25.59387,-144.3096,UP
-0.5495605,-0.7861328,0.4382324,-0.7267939,0.1254275,-0.09180916,-48.3602,31.47273,-65.33068,-48.19946,31.40837,-65.44512,-0.2001953,-0.1875,-0.3779297,0.0006792545,0.05983204,-0.5654044,-23.42076,25.60539,-144.2245,-23.67328,25.38554,-144.0291,UP
-0.5476074,-0.7834473,0.4316406,-0.8031298,0.2933664,0.1066641,-48.37142,31.47709,-65.33644,-48.33078,31.47514,-65.69729,-0.1999512,-0.1835938,-0.3769531,0.1838853,0.1667023,-0.3669312,-23.41525,25.60565,-144.2302,-23.28041,25.49579,-144.2413,UP
-0.5483398,-0.7871094,0.4304199,-0.833664,0.3239008,0.1219313,-48.38566,31.481,-65.3446,-48.47074,31.43455,-65.83467,-0.2019043,-0.1826172,-0.3833008,0.2449541,0.5483816,-0.0310533,-23.40072,25.60972,-144.2383,-22.85681,25.43288,-144.6157,UP
-0.5490723,-0.793457,0.435791,-0.6199236,0.4002366,0.03032825,-48.39726,31.48164,-65.35117,-48.54038,31.23842,-65.69424,-0.1989746,-0.1845703,-0.3842773,0.4281602,0.7010534,-0.01578617,-23.38504,25.61374,-144.2493,-23.09922,25.02049,-144.7681,UP
-0.5620117,-0.7861328,0.4372559,-0.650458,0.4918396,-0.06127481,-48.40057,31.50301,-65.35862,-47.82991,31.99578,-65.65445,-0.2009277,-0.197998,-0.3808594,0.6266336,0.6552519,0.1979542,-23.40199,25.61277,-144.2309,-24.69331,25.08374,-143.4738,UP
-0.5515137,-0.7861328,0.4416504,-0.2687786,0.3544351,-0.1986794,-48.39754,31.50719,-65.36041,-48.05158,31.45157,-65.30183,-0.199707,-0.1794434,-0.3808594,0.32129,0.5331145,0.1368854,-23.38253,25.61538,-144.2407,-22.64925,25.37716,-144.8185,UP
-0.5546875,-0.7814941,0.440918,-0.4061831,0.3086336,-0.1986794,-48.3912,31.51575,-65.3618,-47.8014,31.72337,-65.2935,-0.199707,-0.1818848,-0.3742676,0.2449541,0.4567786,-0.04632068,-23.37543,25.62253,-144.2402,-23.20748,25.63743,-144.1809,UP
-0.5488281,-0.7832031,0.4172363,-0.390916,0.3239008,-0.3055496,-48.402,31.5249,-65.38765,-48.64397,31.73521,-66.42948,-0.1936035,-0.1816406,-0.3676758,0.5350306,0.2125039,-0.1379237,-23.37281,25.61843,-144.2407,-23.61142,25.27167,-144.1696,UP
-0.5527344,-0.7922363,0.4331055,-0.5283206,0.1101603,-0.3055496,-48.41016,31.5254,-65.40111,-48.44746,31.47415,-65.85092,-0.1948242,-0.1853027,-0.3818359,0.5197632,0.1361679,-0.3974657,-23.36526,25.60119,-144.2587,-23.37771,24.65664,-144.8482,UP
-0.5554199,-0.7873535,0.4416504,-0.2687786,0.2017633,-0.3818855,-48.40536,31.52989,-65.4062,-47.97293,31.60168,-65.37515,-0.1987305,-0.1848145,-0.3876953,0.489229,0.2430381,-0.1531909,-23.35099,25.58912,-144.2758,-22.98739,24.83044,-145.0081,UP
-0.5544434,-0.7907715,0.4353027,-0.2535114,-0.1188473,-0.3818855,-48.40644,31.52885,-65.41808,-48.28559,31.55941,-65.7376,-0.192627,-0.1833496,-0.3737793,0.4586947,0.1056336,0.2742901,-23.34841,25.57547,-144.2776,-23.55878,24.82913,-144.5689,UP
-0.5439453,-0.796875,0.4353027,-0.1466411,-0.2257175,-0.3055496,-48.41723,31.51343,-65.42854,-48.83788,30.92356,-65.71639,-0.2001953,-0.1855469,-0.3786621,0.3823588,-0.01650381,-0.0310533,-23.34463,25.57166,-144.2768,-23.42182,25.39642,-144.2142,UP
-0.5461426,-0.791748,0.4382324,-0.1771755,-0.1035802,-0.4582213,-48.42152,31.50397,-65.43636,-48.51021,31.11156,-65.5051,-0.1894531,-0.182373,-0.375,0.2754886,-0.09283972,-0.1073892,-23.34297,25.54754,-144.292,-23.46455,24.43369,-144.96,UP
-0.5515137,-0.7875977,0.4348145,-0.1619084,0.07962596,-0.5345572,-48.421,31.50525,-65.44881,-48.27648,31.50955,-65.66627,-0.1977539,-0.185791,-0.3874512,0.4586947,-0.001236677,0.182687,-23.33192,25.53082,-144.3034,-23.12761,24.71286,-144.9957,UP
-0.5561523,-0.7907715,0.4455566,0.1892367,0.04909158,-0.4582213,-48.40932,31.50581,-65.4517,-47.97578,31.49723,-65.25615,-0.2021484,-0.1835938,-0.3752441,0.4586947,-0.09283972,-0.168458,-23.32461,25.53529,-144.2989,-23.30341,25.82227,-143.9555,UP
-0.5480957,-0.7878418,0.4294434,-0.02450383,-0.04251146,-0.2444809,-48.41208,31.50344,-65.46413,-48.52962,31.41823,-65.89352,-0.1977539,-0.1833496,-0.3813477,0.4586947,-0.031771,0.03001523,-23.31365,25.5251,-144.3072,-23.11369,25.04924,-144.7336,UP
-0.5495605,-0.7924805,0.439209,-0.299313,0.2322977,-0.3513512,-48.41631,31.50155,-65.4703,-48.40367,31.23867,-65.51414,-0.2001953,-0.2019043,-0.3754883,0.4739618,-0.01650381,-0.01578617,-23.34808,25.51743,-144.2786,-25.38365,25.15376,-142.866,UP
-0.5422363,-0.7871094,0.4516602,-0.2687786,0.2933664,-0.3666183,-48.41436,31.49301,-65.46043,-48.12136,30.85883,-64.70717,-0.2026367,-0.1877441,-0.380127,0.4586947,0.319374,0.04528236,-23.34582,25.52238,-144.2723,-23.54947,25.54588,-143.9937,UP
-0.5441895,-0.7871094,0.4375,-0.2382443,0.4613054,-0.3971527,-48.41782,31.49237,-65.46527,-48.42369,31.14464,-65.43015,-0.1901855,-0.1813965,-0.3747559,0.5655649,0.3804427,0.0147481,-23.33752,25.50854,-144.2858,-23.34679,24.55061,-144.9575,UP
-0.5541992,-0.7888184,0.4304199,-0.3145801,0.4155039,-0.2750153,-48.42098,31.5019,-65.47882,-48.3446,31.66342,-65.9404,-0.2006836,-0.1850586,-0.3815918,0.5655649,0.3346412,0.3200917,-23.32707,25.50976,-144.2837,-23.23025,25.32357,-144.4207,UP
-0.5495605,-0.7915039,0.4272461,-0.3145801,0.430771,-0.3208168,-48.43057,31.50669,-65.49572,-48.66948,31.42465,-66.08787,-0.1918945,-0.1833496,-0.3811035,0.5655649,0.5331145,0.2284887,-23.31783,25.495,-144.2979,-23.25335,24.40582,-145.146,UP
-0.552002,-0.7856445,0.4350586,-0.2687786,0.2933664,-0.3208168,-48.42933,31.51213,-65.5027,-48.18414,31.57737,-65.62464,-0.1950684,-0.185791,-0.3762207,0.489229,0.5941832,-0.1379237,-23.31775,25.4925,-144.3018,-23.67306,24.93354,-144.3959,UP
-0.5532227,-0.7939453,0.4313965,-0.1466411,0.4460382,-0.4734885,-48.43362,31.51799,-65.51906,-48.53579,31.47739,-65.97245,-0.192627,-0.185791,-0.3808594,0.5502977,0.5941832,0.1063511,-23.31432,25.4797,-144.3124,-23.52401,24.44496,-144.9047,UP
-0.5495605,-0.7844238,0.4360352,-0.05503809,0.2017633,-0.6108932,-48.42956,31.52002,-65.5275,-48.19296,31.48105,-65.52225,-0.1940918,-0.1887207,-0.3811035,0.5197632,0.2735725,-0.0310533,-23.3166,25.46477,-144.3189,-23.81017,24.53175,-144.612,UP
-0.5512695,-0.7890625,0.4379883,-0.131374,0.3086336,-0.5345572,-48.42805,31.52252,-65.53547,-48.25739,31.41845,-65.53326,-0.1984863,-0.1721191,-0.3762207,0.6113663,-0.06230533,-0.01578617,-23.28188,25.46715,-144.3342,-22.02997,25.62965,-145.0729,UP
-0.5571289,-0.7856445,0.440918,-0.1619084,0.1406947,-0.504023,-48.41938,31.5288,-65.54021,-47.87554,31.73282,-65.40196,-0.1950684,-0.1872559,-0.3835449,0.3518243,0.1514351,0.1216183,-23.28176,25.45112,-144.3422,-23.51746,24.56192,-144.816,UP
-0.5517578,-0.7907715,0.4294434,-0.1161069,-0.07304579,-0.3513512,-48.42294,31.52752,-65.55409,-48.51754,31.51505,-65.99323,-0.1975098,-0.1833496,-0.3813477,0.3670917,-0.2760458,0.07581687,-23.27312,25.43848,-144.3492,-23.1191,25.0221,-144.7516,UP
-0.5490723,-0.7905273,0.4289551,0.1129008,-0.1951832,-0.2597481,-48.42496,31.52217,-65.56641,-48.60724,31.40329,-65.9791,-0.1989746,-0.1870117,-0.3798828,0.3060229,-0.06230533,-0.0005190372,-23.27438,25.43219,-144.3481,-23.56152,25.1699,-144.2909,UP
-0.552002,-0.7851563,0.4414063,0.05183208,-0.08831299,0.01506107,-48.41584,31.52046,-65.5609,-48.00695,31.50164,-65.30211,-0.1950684,-0.1838379,-0.3779297,-0.06038928,-0.5661222,0.2284887,-23.27731,25.41319,-144.3509,-23.3765,24.89835,-144.654,UP
-0.5495605,-0.7861328,0.4414063,-0.05503809,-0.4089237,0.01506107,-48.41071,31.51133,-65.55523,-48.11924,31.36455,-65.28847,-0.2011719,-0.1838379,-0.3737793,-0.2283282,-0.2302443,0.2437558,-23.28346,25.41712,-144.3383,-23.41706,25.77854,-143.9046,UP
-0.5495605,-0.7907715,0.4382324,-0.131374,-0.3020534,-0.07654199,-48.41177,31.50254,-65.55586,-48.3669,31.29394,-65.53076,-0.1999512,-0.1848145,-0.3808594,-0.06038928,-0.2607787,0.03001523,-23.28369,25.41059,-144.3399,-23.25054,25.28262,-144.4386,UP
-0.5449219,-0.784668,0.434082,-0.1466411,-0.1493817,0.03032825,-48.41367,31.49601,-65.55557,-48.3991,31.28597,-65.5638,-0.2043457,-0.1833496,-0.3840332,0.0006792545,-0.3981832,0.06054974,-23.2751,25.40952,-144.341,-22.85436,25.64959,-144.4392,UP
-0.5493164,-0.7841797,0.4389648,0.1587023,-0.1341145,0.03032825,-48.40543,31.49283,-65.5514,-48.11785,31.43525,-65.36954,-0.1984863,-0.1845703,-0.378418,0.1075497,-0.2149771,-0.2295268,-23.27523,25.40298,-144.3453,-23.36104,25.24061,-144.388,UP
-0.5529785,-0.7897949,0.4365234,-0.02450383,-0.1188473,-0.0002061129,-48.403,31.49121,-65.55318,-48.26641,31.49936,-65.64085,-0.2041016,-0.1870117,-0.3742676,0.3670917,0.227771,0.3658931,-23.27806,25.41836,-144.3232,-23.68626,26.00436,-143.5119,UP
-0.5424805,-0.7883301,0.4262695,0.06709921,-0.1951832,-0.06127481,-48.41013,31.48226,-65.56281,-48.80864,31.18708,-65.98956,-0.2060547,-0.1865234,-0.3837891,-0.04512215,0.3957099,0.1368854,-23.27672,25.43092,-144.3167,-23.18027,25.77529,-144.0881,UP
-0.5429688,-0.7907715,0.4489746,-0.03977096,-0.02724427,-0.1376107,-48.40847,31.46907,-65.5518,-48.3,30.84153,-64.91786,-0.1967773,-0.1853027,-0.3769531,0.3670917,0.4109771,0.07581687,-23.27672,25.43039,-144.3163,-23.54648,25.10199,-144.3577,UP
-0.543457,-0.7907715,0.4382324,0.1434351,0.06435877,0.03032825,-48.4094,31.46085,-65.54937,-48.5602,31.01065,-65.45269,-0.1970215,-0.1835938,-0.3723145,-0.1061909,-0.2302443,0.4727633,-23.28374,25.42619,-144.3055,-23.55,25.38963,-144.121,UP
-0.5539551,-0.7861328,0.4279785,0.3724428,-0.05777865,0.1524656,-48.40206,31.46584,-65.55634,-48.31609,31.75287,-66.00989,-0.1989746,-0.1828613,-0.3718262,0.03121376,-0.291313,0.7933741,-23.28645,25.42638,-144.2875,-23.44209,25.65028,-143.9908,UP
-0.5476074,-0.7890625,0.4384766,0.6625191,0.1406947,-0.07654199,-48.3915,31.46343,-65.55557,-48.36099,31.24216,-65.46211,-0.2182617,-0.1804199,-0.3759766,0.6419008,-0.2455115,0.9613131,-23.26206,25.46678,-144.2479,-22.53889,27.62658,-143.0137,UP
-0.5541992,-0.7888184,0.4438477,0.998397,0.07962596,-0.427687,-48.36917,31.46491,-65.55631,-48.00918,31.47898,-65.27845,-0.2043457,-0.1879883,-0.3847656,0.7182367,-0.9478015,0.8544428,-23.25307,25.4537,-144.2341,-23.34019,25.50966,-144.1842,UP
-0.5415039,-0.7824707,0.440918,0.0,-0.2715191,-0.5498245,-48.36685,31.45335,-65.55605,-48.25298,31.08628,-65.13897,-0.2072754,-0.1882324,-0.3828125,0.2907557,0.0,0.6407022,-23.25169,25.46292,-144.217,-23.38339,25.91474,-143.8181,UP
-0.5407715,-0.782959,0.4494629,0.998397,-0.02724427,-0.504023,-48.34727,31.44234,-65.54617,-48.07314,30.92144,-64.71651,-0.2058105,-0.1879883,-0.3867188,0.2907557,-0.8714657,0.7170382,-23.24688,25.45241,-144.2064,-23.22533,25.57768,-144.2163,UP
-0.5349121,-0.7868652,0.4414063,0.5251145,0.03382444,-0.427687,-48.34477,31.42725,-65.54379,-48.60798,30.66311,-65.11237,-0.2087402,-0.1838379,-0.3725586,0.2907557,-0.0470382,0.7323053,-23.24349,25.47621,-144.1766,-23.29103,26.67711,-143.2549,UP
-0.552002,-0.7900391,0.4528809,0.3266413,0.339168,-0.4429542,-48.33096,31.42815,-65.53605,-47.8939,31.22299,-64.83109,-0.2019043,-0.2019043,-0.3740234,0.6419008,0.2583054,0.701771,-23.27799,25.47841,-144.1363,-25.40886,25.40886,-142.6413,UP
-0.545166,-0.7861328,0.4301758,0.3571756,0.5071069,-0.427687,-48.33031,31.43283,-65.54697,-48.54353,31.31438,-65.7884,-0.2175293,-0.1845703,-0.3847656,0.9319771,0.6552519,0.5643663,-23.25202,25.51867,-144.1142,-22.66446,27.00982,-143.4453,UP
-0.5476074,-0.7854004,0.4453125,0.4487787,0.690313,-0.3513512,-48.3182,31.43908,-65.54234,-48.05488,31.23786,-65.05694,-0.1970215,-0.1828613,-0.3820801,0.748771,0.8231909,0.6559694,-23.23758,25.51848,-144.1203,-23.04349,24.94453,-144.8725,UP
-0.5419922,-0.7880859,0.4418945,0.4335115,0.8277176,-0.4887558,-48.31421,31.44081,-65.54225,-48.41591,30.95814,-65.2028,-0.1965332,-0.1865234,-0.376709,0.7335038,0.0,0.5949008,-23.23606,25.50927,-144.1146,-23.7009,25.05787,-144.2738,UP
-0.5454102,-0.7924805,0.4345703,0.1129008,0.5834427,-0.4429542,-48.31932,31.44276,-65.55173,-48.65278,31.1091,-65.69019,-0.2006836,-0.1867676,-0.3791504,0.6877022,0.0,0.4727633,-23.23244,25.50707,-144.1085,-23.52686,25.39915,-144.1311,UP
-0.5444336,-0.782959,0.442627,0.1434351,0.5834427,-0.4124198,-48.31366,31.44565,-65.54839,-48.13444,31.18741,-65.10192,-0.1953125,-0.1826172,-0.3786621,0.4739618,0.7163206,0.3964274,-23.22484,25.50584,-144.1159,-23.20059,24.91912,-144.7727,UP
-0.5495605,-0.7854004,0.4387207,0.00603056,0.7208474,-0.2902825,-48.31051,31.45573,-65.54984,-48.16059,31.41974,-65.40742,-0.2006836,-0.1818848,-0.3830566,0.4434273,0.487313,0.3658931,-23.21049,25.50893,-144.1233,-22.81157,25.32631,-144.7375,UP
-0.552002,-0.7858887,0.4418945,-0.03977096,0.5834427,-0.3208168,-48.30527,31.46416,-65.54908,-48.02122,31.47678,-65.29164,-0.1999512,-0.1882324,-0.380127,0.5502977,0.4415114,0.3200917,-23.2115,25.51001,-144.1192,-23.66551,25.23843,-144.1548,UP
-0.5505371,-0.7893066,0.432373,0.03656495,0.4155039,-0.0002061129,-48.30723,31.47009,-65.55421,-48.43055,31.45522,-65.8059,-0.1955566,-0.1811523,-0.3811035,0.2754886,0.1819695,0.06054974,-23.2017,25.49979,-144.1365,-22.92394,24.86492,-145.0286,UP
-0.5524902,-0.7895508,0.4411621,-0.222977,0.1406947,-0.06127481,-48.3075,31.47113,-65.55206,-48.15669,31.41923,-65.40171,-0.1911621,-0.1845703,-0.380127,0.2449541,-0.01650381,-0.2295268,-23.20307,25.47637,-144.1581,-23.45051,24.34119,-145.0449,UP
-0.5507813,-0.7900391,0.4365234,-0.2535114,-0.179916,0.07612977,-48.31198,31.4669,-65.55224,-48.3449,31.39179,-65.61721,-0.1960449,-0.1723633,-0.3845215,0.1533511,-0.3218473,-0.3058627,-23.17229,25.46142,-144.1957,-21.76911,24.94967,-145.8284,UP
-0.5495605,-0.7900391,0.439209,-0.3451145,-0.4699924,-0.04600763,-48.31679,31.45709,-65.5512,-48.31588,31.29862,-65.46912,-0.2011719,-0.1862793,-0.3833008,0.1991527,-0.6271908,-0.3974657,-23.17158,25.44837,-144.2061,-23.28319,25.26955,-144.4242,UP
-0.5319824,-0.7905273,0.4365234,-0.390916,-0.1341145,-0.04600763,-48.33541,31.43602,-65.54858,-48.96037,30.50234,-65.38654,-0.2021484,-0.1882324,-0.3720703,0.1838853,-0.1997099,-0.4890685,-23.18478,25.45374,-144.1974,-23.96672,25.86402,-143.4107,UP
-0.5483398,-0.7885742,0.4389648,-0.1466411,-0.1188473,0.1219313,-48.33701,31.43118,-65.54459,-48.30783,31.28146,-65.43839,-0.1992188,-0.1860352,-0.388916,0.4128931,0.1667023,-0.5501375,-23.17665,25.44299,-144.2205,-23.06129,24.80145,-144.975,UP
-0.550293,-0.7807617,0.4272461,-0.131374,-0.1188473,0.1219313,-48.33722,31.4355,-65.55005,-48.25725,31.72832,-65.90182,-0.1972656,-0.1894531,-0.3808594,0.5502977,0.5178473,-0.4585342,-23.17733,25.44338,-144.2327,-23.83123,24.87914,-144.3167,UP
-0.5583496,-0.7915039,0.4277344,-0.1619084,-0.2409847,0.07612977,-48.34161,31.43783,-65.56081,-48.37463,31.82394,-66.17425,-0.201416,-0.1928711,-0.3779297,0.5197632,0.09036642,-0.7180762,-23.19156,25.44363,-144.2295,-24.24532,25.3938,-143.577,UP
-0.5541992,-0.786377,0.4304199,-0.1771755,-0.08831299,0.4578092,-48.34234,31.44236,-65.56124,-48.25639,31.72456,-65.89615,-0.1962891,-0.1870117,-0.3894043,0.229687,0.7315878,-0.9623513,-23.18859,25.43424,-144.2621,-23.21198,24.43662,-145.1533,UP
-0.5554199,-0.7880859,0.4411621,-0.3145801,-0.179916,0.6257481,-48.34035,31.44267,-65.54907,-48.01163,31.59035,-65.41261,-0.1992188,-0.1870117,-0.3862305,-0.1519923,0.7926565,-0.9623513,-23.19272,25.43526,-144.2854,-23.28341,24.90286,-144.7221,UP
-0.5488281,-0.7844238,0.4499512,0.02129769,-0.607397,0.4578092,-48.33049,31.42996,-65.52789,-47.86324,31.25367,-64.82681,-0.2019043,-0.1860352,-0.3754883,-0.1214581,-0.6271908,0.0,-23.20215,25.43185,-144.2763,-23.57476,25.72558,-143.827,UP
-0.5473633,-0.7873535,0.4416504,-0.1924427,0.0,0.5188779,-48.33124,31.42595,-65.51512,-48.22643,31.22928,-65.27065,-0.2006836,-0.1848145,-0.3735352,-0.4726033,-0.550855,0.0,-23.21559,25.42991,-144.2679,-23.55004,25.71259,-143.8567,UP
-0.5473633,-0.7841797,0.4411621,-0.3298473,-0.9738091,0.5036107,-48.33162,31.41035,-65.50262,-48.12384,31.31407,-65.2355,-0.1972656,-0.1850586,-0.378418,-0.3962674,-0.993603,-0.8402138,-23.22598,25.40858,-144.2838,-23.44389,25.09334,-144.444,UP
-0.5466309,-0.7858887,0.4401855,-0.08557248,0.0,0.4730763,-48.33092,31.40717,-65.49174,-48.23378,31.25144,-65.30612,-0.197998,-0.1862793,-0.369873,-0.1672597,-0.07757253,0.0,-23.2426,25.41039,-144.2718,-23.9419,25.55259,-143.6846,UP
-0.5500488,-0.7834473,0.4445801,-0.131374,-0.9738091,0.442542,-48.32462,31.39385,-65.47761,-47.92606,31.40917,-65.08839,-0.2009277,-0.1914063,-0.3781738,-0.04512215,-0.09283972,-0.7333436,-23.26007,25.40808,-144.2717,-24.08286,25.36329,-143.7288,UP
-0.5390625,-0.7858887,0.4421387,-0.3603816,-0.5463283,-0.1223435,-48.33188,31.37538,-65.47208,-48.42258,30.87152,-65.11134,-0.1987305,-0.1884766,-0.3793945,0.2144198,0.5178473,-0.5806718,-23.26677,25.41017,-144.2783,-23.75264,25.13182,-144.1737,UP
-0.5419922,-0.7861328,0.4438477,-0.390916,-0.4852595,-0.1223435,-48.33689,31.36032,-65.46584,-48.29507,30.97898,-65.0696,-0.2009277,-0.1879883,-0.3762207,0.4128931,0.8079236,-0.6264734,-23.27148,25.42377,-144.2777,-23.78575,25.53603,-143.8193,UP
-0.5461426,-0.7868652,0.4509277,-0.4061831,-0.3783893,-0.168145,-48.33593,31.34904,-65.45462,-48.01022,31.0563,-64.78973,-0.204834,-0.1806641,-0.3742676,0.5502977,0.6399847,-0.428,-23.25696,25.44946,-144.276,-22.94996,26.2375,-143.8797,UP
-0.5439453,-0.7956543,0.4465332,-0.3451145,-0.1493817,-0.2444809,-48.34443,31.33591,-65.45196,-48.50736,30.80236,-65.14185,-0.2028809,-0.1870117,-0.3813477,0.3060229,0.487313,-0.1379237,-23.25582,25.4578,-144.2747,-23.40975,25.53218,-144.1124,UP
-0.546875,-0.7841797,0.4335938,-0.4519846,0.04909158,-0.1986794,-48.35037,31.33779,-65.45773,-48.33139,31.39588,-65.6042,-0.201416,-0.189209,-0.3774414,0.1838853,0.8995267,-0.09212208,-23.26516,25.47193,-144.2663,-23.85801,25.50351,-143.7898,UP
-0.5466309,-0.7873535,0.4350586,-0.3145801,0.09489316,-0.168145,-48.35633,31.33814,-65.46278,-48.41697,31.28568,-65.58703,-0.1999512,-0.1870117,-0.3710938,0.3823588,0.578916,0.5185649,-23.27272,25.48491,-144.245,-23.92425,25.69543,-143.5817,UP
-0.5625,-0.7900391,0.4379883,-0.299313,0.3239008,-0.1834122,-48.35236,31.35435,-65.47013,-47.93777,31.91051,-65.69539,-0.2004395,-0.1882324,-0.3864746,0.4739618,0.3041069,0.2895572,-23.2684,25.47935,-144.2475,-23.38173,24.99831,-144.569,UP
-0.5541992,-0.7849121,0.4470215,0.3266413,0.5071069,-0.03074045,-48.33659,31.36483,-65.46215,-47.78799,31.53081,-65.05037,-0.2021484,-0.1889648,-0.3710938,0.3823588,0.227771,0.2437558,-23.27926,25.49098,-144.2248,-24.09269,25.89314,-143.289,UP
-0.548584,-0.7822266,0.4433594,0.2503054,0.2780993,-0.07654199,-48.32535,31.36939,-65.45616,-47.95855,31.38834,-65.10645,-0.199707,-0.1870117,-0.3796387,0.5502977,0.4415114,0.182687,-23.2767,25.4929,-144.222,-23.55544,25.26247,-144.2204,UP
-0.5437012,-0.7873535,0.4387207,0.2045038,0.339168,-0.07654199,-48.32417,31.36897,-65.45552,-48.41681,31.09917,-65.368,-0.1945801,-0.1818848,-0.376709,0.4281602,0.6094504,-0.1837251,-23.26966,25.49031,-144.2348,-23.21833,24.94532,-144.7378,UP
-0.5476074,-0.791748,0.4223633,0.05183208,0.171229,-0.09180916,-48.33425,31.37181,-65.47388,-48.86382,31.39331,-66.311,-0.197998,-0.2011719,-0.3791504,0.6266336,0.5636489,-0.1531909,-23.29882,25.48407,-144.2191,-25.18843,24.76402,-143.3336,UP
-0.4194336,-0.6508789,0.7585449,-1.261145,2.064359,-0.7024961,-36.50511,22.13803,-45.75529,-36.90333,22.76469,-45.58953,-0.2980957,-0.138916,-0.3054199,1.72587,3.357542,-0.5348701,-17.86944,41.22703,-132.5441,-18.02991,41.6191,-132.8823,LF
