xa_S1,ya_S1,za_S1,xgb_S1,ybg_S1,zbg_S1,tilt_x_S1,tilt_y_S1,tilt_z_S1,tilt_accx_S1,tilt_accy_S1,tilt_accz_S1,xa_S2,ya_S2,za_S2,xgb_S2,ybg_S2,zbg_S2,tilt_x_S2,tilt_y_S2,tilt_z_S2,tilt_accx_S2,tilt_accy_S2,tilt_accz_S2,Posture
-0.3444824,-0.5981445,0.8586426,0.128168,-0.3783893,0.7784199,-32.76507,18.23228,-38.60704,-32.8837,18.22121,-38.79528,-0.3415527,-0.1767578,-0.2702637,-0.4573359,-0.123374,0.3658931,-21.71119,47.31348,-124.6403,-22.08879,46.60508,-125.0976,S_LF
-0.3479004,-0.6020508,0.8666992,0.3266413,-0.9127405,0.6868168,-32.76113,18.21914,-38.5996,-32.80788,18.24601,-38.73962,-0.3425293,-0.1757813,-0.267334,-0.4573359,-0.2607787,0.1368854,-21.72421,47.30242,-124.6409,-22.02609,46.95227,-124.7751,S_LF
-0.3447266,-0.5986328,0.8596191,0.647252,0.0,0.7631527,-32.75393,18.21907,-38.5921,-32.87687,18.21571,-38.78556,-0.3449707,-0.170166,-0.2578125,-0.6252747,-0.1844428,0.182687,-21.72952,47.31698,-124.6222,-21.56017,48.15684,-123.8316,S_LF
-0.3388672,-0.5893555,0.8630371,0.7999237,0.0,0.5188779,-32.73671,18.214,-38.57771,-32.44178,17.96544,-38.2282,-0.345459,-0.1757813,-0.2612305,-0.7779465,-0.3676488,0.1063511,-21.7474,47.31865,-124.6079,-22.09023,47.65265,-123.9781,S_LF
-0.3432617,-0.5908203,0.8649902,0.6319848,-0.6684657,0.5036107,-32.72151,18.20342,-38.56538,-32.41039,18.14361,-38.30696,-0.3432617,-0.1728516,-0.2585449,-0.8848166,-0.1081069,-0.01578617,-21.76369,47.32714,-124.5946,-21.91128,47.82266,-123.9296,S_LF
-0.3430176,-0.5852051,0.8586426,0.1892367,-0.3325878,0.3967404,-32.7109,18.19983,-38.55442,-32.33021,18.26856,-38.30867,-0.3474121,-0.1694336,-0.270752,-0.6252747,0.4109771,-0.07685494,-21.76271,47.33757,-124.6046,-21.04061,47.4058,-125.0102,S_LF
-0.3474121,-0.5957031,0.854248,-0.3298473,-0.07304579,0.4578092,-32.72102,18.20322,-38.55172,-32.86106,18.44806,-38.91281,-0.3510742,-0.1774902,-0.2744141,-0.3504658,0.9605954,-0.4890685,-21.76697,47.34594,-124.6176,-21.71841,47.04982,-124.8982,S_LF
-0.3415527,-0.5969238,0.864502,-0.3145801,-0.2562519,0.5036107,-32.72538,18.19559,-38.54335,-32.70775,18.01008,-38.50312,-0.3427734,-0.1708984,-0.2739258,-0.1825268,0.7621221,-0.6570077,-21.75974,47.34373,-124.6457,-21.28013,46.71316,-125.5718,S_LF
-0.3427734,-0.5915527,0.8649902,-0.05503809,-0.01197708,0.4578092,-32.72057,18.19377,-38.53266,-32.44753,18.11281,-38.3228,-0.3400879,-0.1726074,-0.2678223,-0.197794,0.8079236,-0.6570077,-21.76224,47.34606,-124.664,-21.73906,46.86618,-125.078,S_LF
-0.3435059,-0.5957031,0.861084,-0.4367175,0.09489316,0.5188779,-32.72705,18.19455,-38.52658,-32.72335,18.16301,-38.61027,-0.3398438,-0.1665039,-0.2709961,-0.197794,0.8537251,-0.5348701,-21.7491,47.34962,-124.6907,-20.96002,46.89638,-125.6059,S_LF
-0.3432617,-0.5947266,0.8566895,-0.4061831,0.03382444,0.6868168,-32.73444,18.19553,-38.52023,-32.79815,18.21871,-38.71391,-0.34375,-0.1706543,-0.2705078,-0.5031376,0.578916,-0.6570077,-21.74727,47.35184,-124.7095,-21.31255,47.06358,-125.1782,S_LF
-0.3393555,-0.588623,0.8605957,-0.3298473,-0.02724427,0.4730763,-32.73364,18.19182,-38.50916,-32.46815,18.02885,-38.29109,-0.3452148,-0.1694336,-0.2680664,-0.5947404,0.5025801,-0.687542,-21.74485,47.36076,-124.723,-21.18907,47.42859,-124.8798,S_LF
-0.3427734,-0.5874023,0.854248,-0.299313,-0.04251146,0.442542,-32.73426,18.19328,-38.50296,-32.54466,18.29563,-38.52463,-0.3452148,-0.1774902,-0.2653809,-0.6558094,0.2125039,-0.3516641,-21.76249,47.36119,-124.7206,-22.17677,47.23647,-124.3593,S_LF
-0.3417969,-0.5883789,0.854248,-0.4367175,0.262832,0.442542,-32.73753,18.19777,-38.49762,-32.5981,18.23787,-38.5391,-0.3432617,-0.1740723,-0.2663574,-0.7626796,0.5178473,-0.2447939,-21.77511,47.36498,-124.7235,-21.83316,47.17034,-124.6855,S_LF
-0.3435059,-0.5927734,0.8630371,-0.5435878,0.01855725,0.3356718,-32.74165,18.19737,-38.4916,-32.54419,18.1639,-38.44384,-0.3430176,-0.1738281,-0.2712402,-0.2130611,0.578916,-0.428,-21.77609,47.36155,-124.7388,-21.67792,46.79594,-125.1972,S_LF
-0.3435059,-0.6015625,0.8635254,-0.558855,-0.2867863,0.3356718,-32.75278,18.19102,-38.49191,-32.91502,18.07675,-38.73695,-0.3388672,-0.1757813,-0.269043,0.04648089,0.8537251,-0.4432673,-21.78208,47.35721,-124.754,-22.10985,46.51744,-125.175,S_LF
-0.342041,-0.5925293,0.8554688,-0.222977,-0.07304579,0.183,-32.75594,18.19003,-38.4924,-32.7465,18.19494,-38.65127,-0.3442383,-0.173584,-0.2714844,0.1380839,0.8537251,-0.0310533,-21.77656,47.3596,-124.7624,-21.60056,46.89094,-125.1528,S_LF
-0.3503418,-0.5910645,0.8586426,-0.1008396,-0.1341145,0.1219313,-32.75244,18.19592,-38.49422,-32.51176,18.57685,-38.66708,-0.3427734,-0.1704102,-0.2749023,-0.04512215,0.4415114,-0.260061,-21.76565,47.35215,-124.7847,-21.19789,46.66259,-125.6837,S_LF
-0.3474121,-0.5927734,0.8659668,0.03656495,-0.3020534,0.09139694,-32.74541,18.19391,-38.49158,-32.42792,18.31723,-38.42927,-0.342041,-0.1584473,-0.2646484,-0.1519923,-0.1386412,-0.2905953,-21.735,47.36218,-124.7947,-20.12167,47.95566,-125.0713,S_LF
-0.3408203,-0.5922852,0.8623047,0.03656495,-0.2715191,0.2440687,-32.74136,18.18695,-38.48608,-32.56957,18.0453,-38.39553,-0.3413086,-0.1726074,-0.2805176,-0.289397,-0.4897862,-0.168458,-21.73108,47.32862,-124.8263,-21.34044,46.01995,-126.2575,S_LF
-0.3444824,-0.5869141,0.8706055,0.08236647,-0.04251146,0.3509389,-32.72704,18.18591,-38.47182,-32.08182,18.16415,-38.01429,-0.3457031,-0.1853027,-0.2702637,-0.1672597,-0.3981832,0.1368854,-21.75679,47.30684,-124.8191,-22.89365,46.53244,-124.5683,S_LF
-0.3337402,-0.590332,0.8666992,-0.1008396,0.09489316,-0.03074045,-32.7228,18.17667,-38.46367,-32.44125,17.65409,-38.04106,-0.3513184,-0.171875,-0.28125,-0.06038928,-0.3065802,-0.06158781,-21.74054,47.29302,-124.838,-20.90285,46.82602,-125.7203,S_LF
-0.338623,-0.6010742,0.854248,-0.03977096,0.262832,0.1371985,-32.73268,18.17598,-38.471,-33.18921,17.96212,-38.92454,-0.3442383,-0.1706543,-0.2700195,-0.04512215,0.09036642,0.1521528,-21.73257,47.29131,-124.8409,-21.3089,47.14104,-125.0987,S_LF
-0.3381348,-0.6000977,0.8630371,0.128168,0.4765725,-0.1223435,-32.73454,18.1761,-38.47525,-32.91963,17.83173,-38.59398,-0.3422852,-0.1696777,-0.2727051,0.2907557,0.1819695,0.2895572,-21.71748,47.28459,-124.8503,-21.19193,46.82171,-125.5202,S_LF
-0.3388672,-0.590332,0.8598633,-0.009236574,0.4613054,-0.1223435,-32.73133,18.17933,-38.47486,-32.56761,17.99874,-38.36557,-0.3413086,-0.175293,-0.2617188,0.3365571,0.05983204,0.610168,-21.72166,47.28569,-124.8302,-22.17388,47.29561,-124.2982,S_LF
-0.3483887,-0.595459,0.8637695,0.3724428,0.4765725,-0.3055496,-32.72306,18.19015,-38.48213,-32.59194,18.37001,-38.61419,-0.3398438,-0.1730957,-0.2619629,0.3518243,-0.001236677,0.350626,-21.72179,47.28526,-124.8185,-21.96923,47.26484,-124.484,S_LF
-0.3481445,-0.5991211,0.8591309,-0.009236574,0.2322977,-0.2444809,-32.72623,18.19726,-38.4936,-32.87491,18.38621,-38.88779,-0.3413086,-0.1730957,-0.2668457,0.1380839,0.1667023,0.5338321,-21.72089,47.28237,-124.812,-21.7785,47.01842,-124.8875,S_LF
-0.3476563,-0.6000977,0.8569336,0.219771,-0.01197708,-0.3055496,-32.72808,18.20079,-38.50789,-32.98016,18.38248,-38.98375,-0.3459473,-0.171875,-0.2700195,0.5044961,-0.0470382,0.4269619,-21.7073,47.28056,-124.809,-21.38769,47.22409,-124.9538,S_LF
-0.3398438,-0.5979004,0.8535156,0.6930535,-0.347855,-0.3208168,-32.72514,18.19324,-38.51935,-33.05695,18.06188,-38.86071,-0.3378906,-0.1721191,-0.2614746,0.03121376,-0.5203207,0.5643663,-21.71155,47.27103,-124.7963,-21.9424,47.18633,-124.5877,S_LF
-0.3493652,-0.5976563,0.8549805,0.647252,-0.3325878,-0.07654199,-32.71926,18.19481,-38.53003,-32.90651,18.51622,-38.99711,-0.342041,-0.1782227,-0.2683105,-0.2283282,-0.4134504,0.3200917,-21.72652,47.25391,-124.7922,-22.29215,46.71905,-124.8251,S_LF
-0.3479004,-0.592041,0.8566895,0.2655725,-0.4089237,0.1677328,-32.7136,18.19437,-38.53125,-32.63129,18.47359,-38.71447,-0.347168,-0.1762695,-0.2685547,-0.3962674,-0.4439847,-0.0005190372,-21.73503,47.24717,-124.7882,-21.88049,47.22178,-124.5957,S_LF
-0.3422852,-0.592041,0.8569336,0.219771,-0.179916,0.0,-32.70999,18.19185,-38.53245,-32.68402,18.19194,-38.59118,-0.3427734,-0.173584,-0.2592773,0.0,-0.550855,0.1063511,-21.74019,47.24791,-124.7712,-21.9929,47.68906,-124.0121,S_LF
-0.342041,-0.590332,0.855957,0.03656495,0.04909158,0.0,-32.70799,18.19291,-38.53295,-32.63693,18.20879,-38.55755,-0.3383789,-0.1669922,-0.267334,-0.1672597,-0.3371145,0.04528236,-21.73121,47.23861,-124.7814,-21.16827,47.03071,-125.3163,S_LF
-0.345459,-0.5927734,0.8596191,0.03656495,0.171229,0.0,-32.70555,18.1977,-38.53418,-32.6128,18.3063,-38.59459,-0.3400879,-0.1730957,-0.2807617,-0.2741299,-0.1691756,0.07581687,-21.72895,47.20906,-124.8116,-21.43007,45.87707,-126.3434,S_LF
-0.34375,-0.5930176,0.857666,-0.08557248,-0.1951832,-0.0002061129,-32.70646,18.19598,-38.53614,-32.69242,18.2457,-38.63175,-0.3393555,-0.1706543,-0.2734375,0.2144198,0.09036642,0.06054974,-21.7189,47.1957,-124.8295,-21.3843,46.4747,-125.7486,S_LF
-0.347168,-0.6010742,0.8608398,-0.2382443,-0.439458,-0.07654199,-32.71434,18.19154,-38.54415,-32.92564,18.29703,-38.88062,-0.3564453,-0.1745605,-0.2717285,0.5502977,0.227771,-0.0005190372,-21.70202,47.21156,-124.8208,-21.27912,47.82097,-124.397,S_LF
-0.3481445,-0.5949707,0.8569336,0.2045038,-0.958542,-0.1528779,-32.71207,18.18272,-38.5518,-32.75089,18.45481,-38.81427,-0.3432617,-0.1755371,-0.2636719,0.4586947,-0.550855,-0.07685494,-21.70273,47.20522,-124.8129,-22.07483,47.29946,-124.3683,S_LF
-0.3483887,-0.5898438,0.8632813,0.2655725,-0.8211374,0.03032825,-32.7011,18.17557,-38.54898,-32.35865,18.42867,-38.43338,-0.34375,-0.1716309,-0.263916,0.2449541,-0.8256641,0.1216183,-21.69718,47.19929,-124.8046,-21.60511,47.51571,-124.485,S_LF
-0.3447266,-0.5969238,0.8613281,0.0976336,-1.202817,0.1066641,-32.70079,18.15855,-38.54984,-32.7576,18.20875,-38.67002,-0.3491211,-0.1699219,-0.2592773,-0.1672597,0.0,0.1979542,-21.69255,47.22324,-124.7802,-21.34275,48.39698,-123.7336,S_LF
-0.345459,-0.598877,0.8642578,0.5251145,-1.416557,0.3509389,-32.69423,18.13831,-38.54685,-32.75882,18.18782,-38.65843,-0.3491211,-0.1708984,-0.2668457,-0.4573359,0.0,0.3811603,-21.69001,47.2342,-124.7688,-21.25185,47.77152,-124.4695,S_LF
-0.3398438,-0.5939941,0.8669434,0.4945802,-1.462359,0.0,-32.68424,18.11388,-38.54165,-32.53373,17.92013,-38.28659,-0.3483887,-0.1733398,-0.2749023,-0.381,-0.8867329,0.2437558,-21.68814,47.21716,-124.7748,-21.33529,46.99019,-125.2395,S_LF
-0.3398438,-0.5888672,0.8657227,0.4945802,-4.59213,0.1982672,-32.67058,18.04825,-38.53098,-32.34056,17.98257,-38.14434,-0.3491211,-0.171875,-0.2658691,-0.1061909,-0.5813893,0.4880307,-21.68372,47.22023,-124.759,-21.3886,47.79788,-124.3421,S_LF
-0.3415527,-0.592041,0.8676758,0.03656495,-0.3936565,-0.1070763,-32.66487,18.04175,-38.52651,-32.41187,18.01243,-38.22876,-0.3425293,-0.1716309,-0.2719727,0.1838853,-0.3065802,0.1521528,-21.67603,47.20772,-124.7692,-21.42567,46.80505,-125.3703,S_LF
-0.3391113,-0.5917969,0.8666992,0.1129008,-0.4699924,-0.1528779,-32.65905,18.03261,-38.52212,-32.45131,17.90698,-38.20185,-0.3442383,-0.171875,-0.2641602,0.5350306,0.1209008,-0.06158781,-21.66682,47.21585,-124.7641,-21.60875,47.52561,-124.4718,S_LF
-0.3400879,-0.5966797,0.8623047,-0.05503809,-0.5005267,0.09139694,-32.66206,18.02398,-38.52106,-32.76958,17.96895,-38.53605,-0.3474121,-0.1721191,-0.262207,0.3365571,0.319374,-0.2905953,-21.66039,47.23439,-124.7542,-21.576,47.92352,-124.0703,S_LF
-0.3481445,-0.5900879,0.8735352,-0.2687786,-0.4699924,0.1066641,-32.65469,18.02257,-38.51133,-32.10892,18.2761,-38.10791,-0.3410645,-0.1687012,-0.2722168,0.07701516,0.1819695,-0.428,-21.64877,47.22843,-124.777,-21.13615,46.80247,-125.5802,S_LF
-0.340332,-0.5895996,0.855957,-0.2840458,-0.2104504,0.2898702,-32.65822,18.02164,-38.50677,-32.62249,18.13055,-38.49652,-0.3398438,-0.173584,-0.2705078,0.0006792545,0.1819695,-0.4585342,-21.65145,47.21829,-124.7944,-21.78323,46.59661,-125.3314,S_LF
-0.3444824,-0.5930176,0.8623047,-0.6351909,-0.1646488,0.03032825,-32.66504,18.02334,-38.50615,-32.56381,18.21969,-38.49609,-0.3461914,-0.1726074,-0.2631836,0.01594663,-0.01650381,-0.4890685,-21.65117,47.22818,-124.7903,-21.64887,47.72479,-124.2294,S_LF
-0.3417969,-0.5847168,0.8647461,-0.6962595,-0.2562519,0.3051374,-32.66524,18.0217,-38.49291,-32.16303,18.13001,-38.06882,-0.345459,-0.1713867,-0.2548828,0.07701516,-0.382916,-0.687542,-21.65226,47.24518,-124.7738,-21.76259,48.35985,-123.4623,S_LF
-0.342041,-0.5915527,0.8676758,-0.6046565,-0.4241909,-0.0002061129,-32.66854,18.01585,-38.48748,-32.38551,18.04093,-38.22148,-0.3496094,-0.1577148,-0.2724609,0.1228168,-0.291313,-0.7486105,-21.60927,47.25624,-124.7964,-19.58671,47.99764,-125.3896,S_LF
-0.338623,-0.5959473,0.8583984,-0.4977863,-0.4852595,0.04559542,-32.6791,18.00797,-38.48926,-32.85522,17.95465,-38.60745,-0.3461914,-0.1743164,-0.2800293,-0.01458788,-0.5050534,-0.5348701,-21.60489,47.23138,-124.8253,-21.37961,46.38448,-125.8469,S_LF
-0.3400879,-0.5913086,0.8566895,-0.574122,-0.179916,0.09139694,-32.68758,18.00702,-38.4887,-32.68114,18.0928,-38.52832,-0.3410645,-0.1691895,-0.2712402,-0.1214581,-0.7340611,-0.4127328,-21.59895,47.21303,-124.8442,-21.21886,46.85354,-125.4674,S_LF
-0.3283691,-0.5957031,0.8625488,-0.3451145,-0.1493817,-0.01547329,-32.6957,17.99255,-38.48434,-32.83987,17.39322,-38.25956,-0.3461914,-0.1755371,-0.2614746,-0.01458788,-0.4897862,-0.09212208,-21.60775,47.21619,-124.8279,-22.02886,47.70704,-123.9658,S_LF
-0.3391113,-0.592041,0.8574219,-0.390916,-0.3631221,-0.1070763,-32.70124,17.98827,-38.48634,-32.70432,18.02772,-38.51056,-0.3513184,-0.1689453,-0.2717285,0.3670917,0.1361679,-0.168458,-21.58672,47.22735,-124.8314,-20.82616,47.67397,-124.8782,S_LF
-0.342041,-0.6008301,0.8574219,-0.2535114,-0.4089237,-0.2444809,-32.71211,17.98433,-38.49781,-33.05864,18.09184,-38.88037,-0.3474121,-0.1740723,-0.2788086,0.8861756,0.05983204,-0.2753282,-21.56885,47.21541,-124.852,-21.34431,46.58641,-125.6595,S_LF
-0.3310547,-0.5942383,0.859375,0.06709921,-0.4241909,-0.3971527,-32.71353,17.97003,-38.50096,-32.83233,17.58101,-38.36314,-0.3461914,-0.1796875,-0.2651367,0.6266336,0.227771,0.04528236,-21.57677,47.21874,-124.8385,-22.39524,47.22564,-124.2062,S_LF
-0.3422852,-0.5964355,0.8652344,0.4640458,-0.04251146,-0.3208168,-32.70609,17.97087,-38.50488,-32.65983,18.04097,-38.47707,-0.3574219,-0.1740723,-0.2678223,0.4586947,-0.031771,0.5949008,-21.56436,47.23817,-124.8123,-21.29311,48.21344,-123.967,S_LF
-0.3464355,-0.5949707,0.8701172,0.2503054,0.03382444,-0.168145,-32.69683,17.97582,-38.50431,-32.42701,18.19363,-38.35289,-0.3415527,-0.1743164,-0.2602539,0.2907557,-0.2607787,0.5338321,-21.57069,47.23909,-124.7915,-22.09454,47.47602,-124.1644,S_LF
-0.3417969,-0.5961914,0.864502,0.3419085,0.4613054,-0.1528779,-32.69133,17.98366,-38.50612,-32.67326,18.0288,-38.48224,-0.3449707,-0.1765137,-0.2661133,0.3823588,-0.2607787,0.701771,-21.57213,47.23289,-124.7701,-22.05489,47.21017,-124.4786,S_LF
-0.3415527,-0.5910645,0.8740234,0.219771,0.2322977,0.03032825,-32.67688,17.98774,-38.49517,-32.20564,17.93731,-37.9915,-0.3405762,-0.1584473,-0.2700195,0.489229,-0.1844428,0.442229,-21.53456,47.23388,-124.7828,-20.02969,47.40917,-125.7103,S_LF
-0.3395996,-0.5925293,0.861084,0.128168,0.4002366,-0.3971527,-32.67408,17.99345,-38.4991,-32.62474,17.9988,-38.41887,-0.3376465,-0.1708984,-0.2700195,0.5655649,-0.1081069,0.259023,-21.52693,47.21915,-124.7935,-21.56836,46.57664,-125.5086,S_LF
-0.3405762,-0.5942383,0.8583984,0.05183208,0.3849695,-0.2902825,-32.67504,18.00059,-38.50511,-32.75998,18.06725,-38.5864,-0.3391113,-0.177002,-0.2653809,0.4586947,0.01403052,0.1368854,-21.53655,47.20999,-124.7907,-22.34516,46.75097,-124.7513,S_LF
-0.3415527,-0.5966797,0.8647461,-0.009236574,0.4460382,-0.3513512,-32.67548,18.00731,-38.50991,-32.69073,18.00908,-38.48664,-0.34375,-0.1750488,-0.2756348,0.5044961,-0.07757253,0.04528236,-21.53224,47.19418,-124.8052,-21.66723,46.47235,-125.5471,S_LF
-0.3356934,-0.5944824,0.8710938,-0.3451145,0.430771,-0.6261602,-32.67649,18.00621,-38.51004,-32.4892,17.65673,-38.08737,-0.3435059,-0.1730957,-0.2509766,0.8251068,0.1819695,0.3353589,-21.53227,47.22116,-124.7666,-22.14034,48.40928,-123.1234,S_LF
-0.3327637,-0.6030273,0.8608398,-0.2840458,0.4765725,-0.6566947,-32.69035,18.00446,-38.52275,-33.16029,17.56799,-38.6629,-0.3410645,-0.1757813,-0.267334,0.840374,0.4720459,0.2895572,-21.53168,47.21981,-124.7647,-22.07911,46.82976,-124.8661,S_LF
-0.3432617,-0.6018066,0.8723145,-0.4367175,0.4155039,-0.6872291,-32.69653,18.00901,-38.53088,-32.69966,17.94731,-38.45773,-0.3410645,-0.1779785,-0.2597656,0.7182367,0.3804427,0.3353589,-21.54139,47.22671,-124.745,-22.54513,47.28522,-124.0282,S_LF
-0.3432617,-0.5961914,0.8637695,-0.3603816,0.4002366,-0.6566947,-32.70144,18.01693,-38.54063,-32.67722,18.11075,-38.53553,-0.3452148,-0.1755371,-0.2680664,0.6571679,0.2735725,0.091084,-21.53917,47.22858,-124.7426,-21.88136,47.13274,-124.69,S_LF
-0.3415527,-0.6000977,0.8637695,-0.2077099,0.3239008,-0.427687,-32.70756,18.02085,-38.54846,-32.86519,17.99077,-38.63851,-0.342041,-0.1765137,-0.2619629,0.4281602,0.1819695,0.1368854,-21.54768,47.23223,-124.7306,-22.27909,47.27686,-124.2391,S_LF
-0.3359375,-0.5979004,0.8674316,-0.222977,0.4918396,-0.3513512,-32.71132,18.02138,-38.54927,-32.73121,17.68586,-38.33075,-0.3425293,-0.1757813,-0.267334,0.1686182,-0.01650381,0.4116948,-21.55493,47.2264,-124.7258,-22.02609,46.95227,-124.7751,S_LF
-0.3435059,-0.597168,0.8608398,-0.2535114,0.5681756,-0.1376107,-32.71644,18.03181,-38.55357,-32.79376,18.15275,-38.66973,-0.3422852,-0.1765137,-0.2714844,-0.06038928,-0.01650381,0.3811603,-21.56473,47.21338,-124.7293,-22.00037,46.5877,-125.1814,S_LF
-0.3300781,-0.5959473,0.8532715,-0.1619084,0.2780993,-0.04600763,-32.72609,18.02718,-38.55525,-33.07969,17.59614,-38.60388,-0.3439941,-0.1777344,-0.2670898,0.03121376,-0.07757253,0.3353589,-21.57699,47.2079,-124.7218,-22.20068,46.99627,-124.5981,S_LF
-0.3364258,-0.5952148,0.8635254,-0.222977,0.59871,-0.1223435,-32.72907,18.03114,-38.55337,-32.71113,17.78498,-38.37109,-0.3447266,-0.1784668,-0.2607422,0.2144198,-0.01650381,-0.2447939,-21.59122,47.21336,-124.7085,-22.43561,47.49223,-123.8892,S_LF
-0.3359375,-0.5959473,0.8618164,-0.5283206,0.8277176,-0.1376107,-32.7376,18.0374,-38.55304,-32.79302,17.77652,-38.44257,-0.3444824,-0.1716309,-0.2644043,0.672435,0.8231909,-0.2295268,-21.58082,47.23198,-124.7075,-21.56543,47.53935,-124.4889,S_LF
-0.3483887,-0.5930176,0.8581543,-0.6199236,0.4002366,-0.3208168,-32.74458,18.05191,-38.56092,-32.63084,18.46866,-38.71102,-0.3349609,-0.1730957,-0.2617188,0.7793052,0.6857863,-0.07685494,-21.58164,47.23415,-124.7097,-22.15638,46.86986,-124.7659,S_LF
-0.3422852,-0.6083984,0.8574219,-0.299313,0.4002366,-0.3513512,-32.76148,18.05704,-38.57753,-33.38478,18.03367,-39.15093,-0.3400879,-0.1772461,-0.2612305,0.4739618,0.3499084,-0.06158781,-21.59216,47.23723,-124.7016,-22.4562,47.13106,-124.2614,S_LF
-0.3574219,-0.5939941,0.8491211,-0.02450383,0.3849695,-0.168145,-32.76285,18.08216,-38.59303,-32.81184,19.03009,-39.22885,-0.3410645,-0.1748047,-0.2709961,0.4586947,-0.2607787,0.04528236,-21.59087,47.22074,-124.7122,-21.86455,46.60401,-125.264,S_LF
-0.3415527,-0.6030273,0.855957,-0.02450383,-0.5005267,-0.06127481,-32.77192,18.07449,-38.60199,-33.19819,18.06664,-38.99582,-0.3417969,-0.1750488,-0.2670898,0.2449541,-0.5050534,0.5643663,-21.59522,47.2083,-124.7066,-21.97635,46.94527,-124.8194,S_LF
-0.3435059,-0.604248,0.8581543,0.2350382,-0.8516718,-0.01547329,-32.7767,18.06377,-38.61028,-33.17263,18.12277,-39.00576,-0.3452148,-0.1791992,-0.2705078,-0.2130611,-1.146275,0.3964274,-21.61094,47.18275,-124.703,-22.22466,46.77346,-124.8176,S_LF
-0.3334961,-0.6003418,0.8696289,0.7083206,-0.9738091,0.1371985,-32.76685,18.03849,-38.60202,-32.80463,17.5154,-38.29844,-0.3469238,-0.1755371,-0.270752,-0.3351984,-1.360015,0.8239083,-21.61857,47.16058,-124.6939,-21.74623,47.0739,-124.8522,S_LF
-0.3413086,-0.5961914,0.8657227,0.7693894,-0.6379313,0.2288015,-32.75314,18.02811,-38.59528,-32.6465,17.9886,-38.43301,-0.3432617,-0.175293,-0.2668457,-0.8695498,-1.421084,0.3964274,-21.63729,47.13935,-124.6885,-21.95804,47.07377,-124.6961,S_LF
-0.3391113,-0.5842285,0.8706055,0.7693894,-0.5005267,0.0,-32.72787,18.01914,-38.57954,-32.01772,17.92309,-37.80835,-0.3283691,-0.1694336,-0.2753906,-0.3046641,-0.8409313,0.2895572,-21.64045,47.09304,-124.7244,-21.5715,45.44228,-126.697,S_LF
-0.3449707,-0.590332,0.8640137,0.2045038,-0.5157939,0.2135344,-32.71824,18.01609,-38.57193,-32.39662,18.24558,-38.35633,-0.3486328,-0.1777344,-0.2634277,-0.1672597,-0.4745191,0.04528236,-21.65262,47.09769,-124.7082,-22.13387,47.65078,-123.9473,S_LF
-0.3474121,-0.5915527,0.8637695,0.2503054,-0.2715191,0.3814733,-32.70907,18.01921,-38.5644,-32.43119,18.35809,-38.45737,-0.3464355,-0.1777344,-0.2641602,0.1686182,-0.3218473,0.1216183,-21.66096,47.09932,-124.6954,-22.19386,47.41587,-124.1543,S_LF
-0.3383789,-0.5913086,0.8647461,-0.1008396,-0.2104504,0.3662061,-32.70613,18.01375,-38.55238,-32.48811,17.90092,-38.2325,-0.3413086,-0.1733398,-0.2678223,-0.07565641,-0.0470382,-0.4127328,-21.66436,47.09535,-124.7067,-21.77891,46.93298,-124.978,S_LF
-0.3444824,-0.5996094,0.8659668,-0.1466411,0.01855725,0.2898702,-32.70915,18.01594,-38.54954,-32.75637,18.11045,-38.6092,-0.3435059,-0.1721191,-0.2722168,-0.2283282,0.1056336,-0.1379237,-21.66323,47.09189,-124.7209,-21.44023,46.84495,-125.3176,S_LF
-0.3459473,-0.59375,0.8635254,-0.1161069,0.06435877,0.442542,-32.70766,18.02194,-38.54229,-32.54898,18.26887,-38.51229,-0.3427734,-0.1740723,-0.2570801,-0.09092379,-0.2302443,-0.260061,-21.67351,47.10329,-124.7057,-22.11032,47.83106,-123.7711,S_LF
-0.3491211,-0.59375,0.864502,-0.08557248,-0.1951832,0.2288015,-32.70457,18.02687,-38.53899,-32.49068,18.41201,-38.5458,-0.3422852,-0.1728516,-0.2631836,0.2449541,-0.6729923,-0.3211298,-21.67304,47.09977,-124.7053,-21.81786,47.38885,-124.4638,S_LF
-0.3430176,-0.595459,0.8684082,-0.2382443,-0.3325878,0.2288015,-32.7043,18.02265,-38.53218,-32.52736,18.04395,-38.35539,-0.342041,-0.1728516,-0.2661133,-0.07565641,-0.7493282,-0.07685494,-21.67558,47.0897,-124.7078,-21.74487,47.14687,-124.7755,S_LF
-0.3354492,-0.6027832,0.8581543,-0.1466411,-0.6684657,0.3967404,-32.71624,18.00713,-38.5316,-33.19321,17.73796,-38.79441,-0.3469238,-0.168457,-0.2570801,-0.3199313,-0.7493282,-0.0310533,-21.67302,47.10611,-124.6879,-21.31238,48.46074,-123.6873,S_LF
-0.3354492,-0.5925293,0.862793,-0.3145801,-0.3325878,0.1982672,-32.71899,17.99751,-38.52364,-32.62255,17.77035,-38.27961,-0.3432617,-0.1699219,-0.2663574,-0.4268017,-0.8561985,-0.06158781,-21.67304,47.09886,-124.6913,-21.35999,47.37313,-124.8155,S_LF
-0.3381348,-0.5957031,0.8603516,0.128168,-0.4852595,0.0,-32.71869,17.98856,-38.52367,-32.79822,17.9069,-38.52549,-0.3522949,-0.168457,-0.2663574,-0.02985501,-0.6271908,0.07581687,-21.65755,47.11197,-124.6824,-20.87802,48.18472,-124.2977,S_LF
-0.3330078,-0.5915527,0.8691406,0.0976336,-0.4089237,0.0,-32.71175,17.97468,-38.51303,-32.43858,17.57521,-37.99168,-0.3459473,-0.1733398,-0.2651367,0.1533511,-0.4439847,0.091084,-21.65589,47.11362,-124.6758,-21.68737,47.52078,-124.4192,S_LF
-0.3432617,-0.595459,0.8706055,0.128168,-0.2867863,-0.1376107,-32.70499,17.97151,-38.51059,-32.46811,18.02694,-38.2899,-0.3435059,-0.1745605,-0.2753906,0.5502977,-0.2455115,0.2284887,-21.64723,47.0976,-124.69,-21.62767,46.49303,-125.554,S_LF
-0.3310547,-0.5996094,0.8671875,0.5556489,0.003290057,-0.1376107,-32.69995,17.96078,-38.50846,-32.86127,17.43253,-38.30269,-0.3464355,-0.170166,-0.2602539,0.3976259,-0.291313,0.4880307,-21.63765,47.11346,-124.6693,-21.44094,48.09001,-123.9911,S_LF
-0.3354492,-0.5959473,0.8569336,0.6167176,-0.04251146,0.01506107,-32.69603,17.95731,-38.50991,-32.92678,17.81624,-38.59141,-0.347168,-0.1733398,-0.2678223,0.1228168,-0.6119237,0.3811603,-21.6345,47.11058,-124.6626,-21.5704,47.4192,-124.6134,S_LF
-0.3364258,-0.5944824,0.8630371,0.4335115,0.06435877,-0.09180916,-32.68957,17.95507,-38.50828,-32.69185,17.79798,-38.36085,-0.3457031,-0.166748,-0.2590332,0.1686182,-0.550855,0.4269619,-21.62147,47.12617,-124.6434,-21.10691,48.29508,-124.0149,S_LF
-0.3383789,-0.5898438,0.8691406,0.38771,0.2780993,-0.04600763,-32.67627,17.95718,-38.49958,-32.3098,17.85612,-38.03946,-0.345459,-0.1738281,-0.2590332,0.1380839,-0.4745191,0.3048244,-21.62558,47.13502,-124.6223,-21.92865,47.91768,-123.8145,S_LF
-0.333252,-0.5957031,0.8569336,0.5098474,0.2017633,-0.06127481,-32.67403,17.95518,-38.50126,-32.93877,17.70906,-38.53875,-0.3395996,-0.1594238,-0.2626953,0.4281602,-0.291313,0.3048244,-21.59461,47.14552,-124.6257,-20.37092,47.85968,-125.0007,S_LF
-0.3405762,-0.5900879,0.8601074,0.38771,0.262832,-0.1986794,-32.66589,17.96134,-38.50164,-32.53283,18.0826,-38.3839,-0.3405762,-0.175293,-0.2668457,0.2602212,-0.291313,0.2742901,-21.6,47.13531,-124.6264,-22.0552,46.84928,-124.8631,S_LF
-0.3430176,-0.5910645,0.8618164,0.479313,0.3849695,-0.2750153,-32.65564,17.9712,-38.50391,-32.50599,18.17178,-38.41307,-0.3461914,-0.1691895,-0.2658691,0.2754886,-0.382916,0.3048244,-21.58795,47.14112,-124.6218,-21.18643,47.68847,-124.6053,S_LF
-0.3413086,-0.595459,0.8657227,0.38771,0.2933664,-0.2444809,-32.6495,17.97571,-38.50533,-32.61452,17.99524,-38.40719,-0.3459473,-0.1679688,-0.2731934,0.3365571,-0.1691756,0.2742901,-21.56876,47.13936,-124.6334,-20.85909,47.16892,-125.3896,S_LF
-0.338623,-0.5942383,0.859375,0.1739695,0.1864962,-0.504023,-32.64922,17.9779,-38.51244,-32.75462,17.95739,-38.51511,-0.3442383,-0.1748047,-0.2744141,0.4586947,-0.09283972,0.2895572,-21.56378,47.12751,-124.6446,-21.6568,46.61485,-125.4042,S_LF
-0.3400879,-0.5957031,0.8608398,0.2655725,0.262832,-0.4887558,-32.64764,17.98215,-38.52036,-32.76522,17.99722,-38.54901,-0.3459473,-0.1791992,-0.2678223,0.580832,-0.07757253,0.4727633,-21.57001,47.12452,-124.6353,-22.27381,47.03165,-124.5054,S_LF
-0.3430176,-0.5969238,0.862793,0.1892367,-0.04251146,-0.2902825,-32.64683,17.98403,-38.52569,-32.73717,18.10495,-38.58794,-0.3439941,-0.184082,-0.2626953,0.4739618,-0.3218473,0.4116948,-21.59244,47.11731,-124.6156,-23.04004,47.00064,-123.953,S_LF
-0.3400879,-0.5944824,0.8662109,0.3571756,-0.1341145,-0.336084,-32.64008,17.98112,-38.52677,-32.57163,17.93742,-38.33233,-0.347168,-0.168457,-0.269043,0.5350306,-0.3523817,0.610168,-21.57293,47.12137,-124.6126,-20.98388,47.56203,-124.8849,S_LF
-0.3413086,-0.6010742,0.8591309,0.3724428,0.1254275,-0.2139466,-32.6428,17.98384,-38.53554,-33.03194,18.03081,-38.81857,-0.3447266,-0.1694336,-0.2695313,0.1075497,-0.3676488,0.2132213,-21.56322,47.11907,-124.6184,-21.16634,47.27683,-125.0571,S_LF
-0.3371582,-0.5935059,0.8544922,0.1434351,0.07962596,-0.168145,-32.64516,17.98445,-38.53967,-32.86633,17.95595,-38.61862,-0.3442383,-0.1711426,-0.2719727,0.229687,-0.5813893,0.3811603,-21.5548,47.10755,-124.626,-21.31083,46.97047,-125.2779,S_LF
-0.3352051,-0.6071777,0.8625488,0.3724428,0.3544351,-0.1834122,-32.65219,17.98256,-38.54762,-33.27005,17.62936,-38.80219,-0.347168,-0.1760254,-0.265625,0.03121376,-0.3065802,0.2132213,-21.56195,47.11023,-124.6167,-21.93389,47.45203,-124.3102,S_LF
-0.3310547,-0.5935059,0.8596191,0.5556489,0.06435877,0.0,-32.6474,17.97548,-38.54325,-32.79369,17.58441,-38.32899,-0.347168,-0.1696777,-0.2697754,-0.09092379,-0.3981832,0.0147481,-21.55411,47.11114,-124.6226,-21.1029,47.44814,-124.9208,S_LF
-0.3430176,-0.5917969,0.8581543,0.5403817,-0.1646488,0.04559542,-32.63918,17.97783,-38.54287,-32.63367,18.21415,-38.55778,-0.34375,-0.1713867,-0.2641602,-0.02985501,-0.5203207,0.1216183,-21.55487,47.11145,-124.6187,-21.57048,47.5092,-124.5173,S_LF
-0.3405762,-0.59375,0.8637695,0.4945802,0.3849695,0.09139694,-32.63109,17.98394,-38.53857,-32.59813,18.00043,-38.39503,-0.347168,-0.1696777,-0.2648926,0.2602212,-0.550855,0.182687,-21.54489,47.11805,-124.6125,-21.23408,47.81956,-124.4312,S_LF
-0.3310547,-0.595459,0.8632813,0.1739695,0.430771,-0.09180916,-32.63174,17.98056,-38.53466,-32.78277,17.51951,-38.2804,-0.3432617,-0.1721191,-0.2705078,0.5502977,0.2430381,0.259023,-21.5315,47.12023,-124.6176,-21.49602,46.953,-125.1629,S_LF
-0.3400879,-0.5976563,0.848877,0.219771,0.4765725,-0.1223435,-32.63749,17.99446,-38.54692,-33.16687,18.13806,-39.00962,-0.3361816,-0.1706543,-0.2641602,0.5044961,-0.1539084,0.2742901,-21.52913,47.1139,-124.6219,-21.75916,46.90945,-125.0174,S_LF
-0.342041,-0.5927734,0.859375,0.5861833,0.171229,-0.1834122,-32.62979,17.99972,-38.54916,-32.65485,18.14035,-38.53264,-0.340332,-0.1706543,-0.2636719,0.7029693,-0.7187939,0.5796337,-21.52068,47.10701,-124.615,-21.62287,47.29728,-124.7049,S_LF
-0.3408203,-0.5905762,0.8659668,0.7235878,-0.5310611,0.04559542,-32.61455,17.99216,-38.54184,-32.39936,18.01218,-38.21697,-0.3439941,-0.1799316,-0.2641602,0.3518243,-0.9630688,0.8239083,-21.53606,47.09373,-124.5961,-22.53147,47.10363,-124.2336,S_LF
-0.3369141,-0.6008301,0.8605957,0.8915268,-0.9738091,-0.09180916,-32.61059,17.97489,-38.54576,-33.02837,17.79655,-38.67477,-0.3427734,-0.1784668,-0.2687988,0.2144198,-1.176809,0.6865039,-21.54777,47.0692,-124.5905,-22.27913,46.73215,-124.8209,S_LF
-0.338623,-0.5974121,0.8745117,1.181603,-0.607397,0.06086259,-32.59099,17.96108,-38.53677,-32.49907,17.73065,-38.14065,-0.347168,-0.1804199,-0.2668457,-0.02985501,-1.024137,0.7781069,-21.56513,47.05564,-124.5731,-22.39351,47.14373,-124.2953,S_LF
-0.3452148,-0.5917969,0.8591309,1.380076,-0.7600687,0.07612977,-32.57059,17.95688,-38.53633,-32.58521,18.30987,-38.57108,-0.3486328,-0.1743164,-0.2602539,-0.4878702,-1.176809,0.6865039,-21.57769,47.05845,-124.5462,-21.83461,48.06105,-123.7306,S_LF
-0.3398438,-0.5869141,0.8669434,1.364809,-0.4547252,0.07612977,-32.54357,17.95074,-38.52521,-32.22302,17.98397,-38.03587,-0.3432617,-0.1740723,-0.2614746,-0.5336719,-1.207344,0.6712368,-21.59285,47.05148,-124.5299,-21.96945,47.53844,-124.1911,S_LF
-0.3344727,-0.5869141,0.8659668,0.8304581,-0.2562519,0.2746031,-32.52736,17.94282,-38.51008,-32.30251,17.73048,-37.95733,-0.3500977,-0.1875,-0.2614746,0.04648089,-0.8867329,0.5643663,-21.62479,47.04573,-124.4982,-23.22404,47.41578,-123.3603,S_LF
-0.3337402,-0.5927734,0.8730469,0.6319848,-0.2104504,0.1677328,-32.51519,17.93187,-38.49592,-32.38334,17.55013,-37.92525,-0.3518066,-0.1745605,-0.2810059,0.2602212,-0.4287176,0.3353589,-21.61228,47.03375,-124.515,-21.19082,46.76175,-125.5842,S_LF
-0.3305664,-0.5874023,0.8735352,0.3266413,-0.1035802,0.01506107,-32.50341,17.92038,-38.47886,-32.16648,17.43374,-37.65417,-0.3449707,-0.1694336,-0.2644043,0.1228168,-0.1844428,-0.0310533,-21.60429,47.0443,-124.5156,-21.29696,47.68774,-124.5262,S_LF
-0.338623,-0.5908203,0.871582,0.4335115,0.2780993,0.03032825,-32.49314,17.92234,-38.46889,-32.2871,17.82736,-38.00105,-0.3566895,-0.1723633,-0.2651367,0.2449541,0.1514351,-0.0005190372,-21.5928,47.07429,-124.5012,-21.19745,48.44004,-123.7936,S_LF
-0.3442383,-0.5788574,0.8730469,0.08236647,0.4002366,-0.1986794,-32.47548,17.93322,-38.45518,-31.66691,18.19176,-37.64709,-0.3483887,-0.1716309,-0.2636719,0.0922823,-0.123374,-0.01578617,-21.5885,47.08932,-124.4949,-21.44597,47.91652,-124.1733,S_LF
-0.3398438,-0.5908203,0.8703613,-0.05503809,0.4918396,-0.09180916,-32.47291,17.93985,-38.44872,-32.30633,17.90362,-38.06483,-0.3288574,-0.1708984,-0.2675781,0.3518243,0.01403052,0.1216183,-21.59064,47.06788,-124.5198,-21.95421,46.00694,-125.8289,S_LF
-0.3395996,-0.5944824,0.869873,-0.03977096,0.1101603,-0.1528779,-32.47366,17.93998,-38.44609,-32.48157,17.86521,-38.20493,-0.3486328,-0.1740723,-0.2614746,0.0006792545,-0.1997099,-0.2447939,-21.5943,47.08321,-124.5102,-21.77373,47.98116,-123.8619,S_LF
-0.3439941,-0.5917969,0.8649902,0.02129769,0.06435877,0.1371985,-32.47279,17.94554,-38.44229,-32.44568,18.17085,-38.35637,-0.3493652,-0.1706543,-0.262207,-0.3046641,-0.4592519,-0.1073892,-21.59368,47.09792,-124.5015,-21.33946,48.15611,-123.9946,S_LF
-0.3330078,-0.5913086,0.8630371,-0.08557248,0.3697023,-0.01547329,-32.47634,17.9452,-38.43725,-32.5873,17.65681,-38.17899,-0.359375,-0.1738281,-0.2702637,-0.3504658,-0.3065802,-0.1837251,-21.58967,47.11541,-124.4961,-21.1354,48.19818,-124.098,S_LF
-0.340332,-0.5915527,0.8693848,-0.07030535,0.262832,0.0,-32.47502,17.94884,-38.43114,-32.35869,17.93402,-38.13189,-0.3466797,-0.1865234,-0.2663574,-0.1672597,-0.2760458,0.091084,-21.62244,47.10572,-124.4865,-23.10522,46.8335,-124.0822,S_LF
-0.3417969,-0.5935059,0.8654785,-0.299313,0.09489316,-0.06127481,-32.48053,17.95207,-38.43054,-32.53046,18.04031,-38.35607,-0.342041,-0.171875,-0.2661133,0.32129,0.1972366,-0.1073892,-21.61793,47.1104,-124.4944,-21.63339,47.19471,-124.8064,S_LF
-0.3393555,-0.5930176,0.8637695,-0.1619084,-0.2104504,-0.1986794,-32.48487,17.94887,-38.43174,-32.57855,17.9467,-38.34438,-0.3474121,-0.1728516,-0.2585449,0.672435,0.07509923,0.091084,-21.61152,47.13253,-124.4768,-21.75893,48.16508,-123.6751,S_LF
-0.3427734,-0.5961914,0.8725586,0.3419085,-0.1188473,-0.2750153,-32.47957,17.94767,-38.43174,-32.45461,17.97066,-38.24332,-0.3452148,-0.1721191,-0.2617188,0.4128931,-0.07757253,0.1063511,-21.6066,47.14433,-124.4688,-21.66852,47.77977,-124.156,S_LF
-0.34375,-0.5927734,0.8735352,0.5403817,0.2017633,-0.2292137,-32.46745,17.95241,-38.42871,-32.2707,18.03638,-38.11194,-0.3581543,-0.1721191,-0.2609863,0.04648089,-0.3676488,0.3048244,-21.59834,47.17405,-124.4412,-21.22582,48.88236,-123.2966,S_LF
-0.3400879,-0.5952148,0.8735352,0.4945802,0.003290057,-0.01547329,-32.45959,17.9501,-38.42283,-32.41399,17.83477,-38.12367,-0.3322754,-0.1713867,-0.2597656,-0.02985501,-0.5203207,0.3964274,-21.60911,47.16042,-124.4424,-22.11469,46.875,-124.7915,S_LF
-0.3330078,-0.5825195,0.8884277,0.2808397,0.06435877,0.1371985,-32.43724,17.94013,-38.3936,-31.54834,17.40397,-37.06199,-0.3459473,-0.1728516,-0.2641602,-0.1672597,-0.5050534,0.1368854,-21.61256,47.16216,-124.4382,-21.65869,47.61863,-124.3357,S_LF
-0.3395996,-0.5820313,0.861084,0.1434351,0.2017633,0.1371985,-32.42962,17.94618,-38.38462,-32.16143,18.09458,-38.04576,-0.345459,-0.1733398,-0.2631836,-0.2741299,-0.6577252,0.182687,-21.61924,47.16245,-124.432,-21.75863,47.62794,-124.252,S_LF
-0.340332,-0.5869141,0.8710938,-0.07030535,0.5071069,0.03032825,-32.42421,17.95328,-38.37478,-32.11115,17.95296,-37.91317,-0.3439941,-0.1757813,-0.2612305,0.07701516,-0.5966565,0.1063511,-21.62861,47.16106,-124.4232,-22.14417,47.53142,-124.0677,S_LF
-0.3359375,-0.5910645,0.8647461,0.128168,0.5071069,-0.2902825,-32.42389,17.95731,-38.37503,-32.5022,17.78212,-38.17434,-0.3474121,-0.1723633,-0.2661133,0.04648089,-0.382916,0.1063511,-21.62535,47.1649,-124.4224,-21.49774,47.6156,-124.457,S_LF
-0.3376465,-0.5881348,0.8693848,-0.08557248,0.5376411,-0.2444809,-32.4213,17.96218,-38.37001,-32.23579,17.83195,-37.95606,-0.3491211,-0.1682129,-0.2692871,0.3518243,0.04456491,-0.2295268,-21.60532,47.17656,-124.4332,-20.88253,47.71509,-124.7945,S_LF
-0.3322754,-0.5854492,0.8688965,0.02129769,0.4613054,-0.2292137,-32.41623,17.96163,-38.36131,-32.18376,17.59587,-37.76642,-0.3491211,-0.170166,-0.2680664,0.4586947,0.1056336,0.1368854,-21.58965,47.18876,-124.4349,-21.1363,47.71439,-124.6138,S_LF
-0.3374023,-0.588623,0.8691406,0.08236647,0.2017633,-0.336084,-32.4121,17.96154,-38.35822,-32.26601,17.81874,-37.97625,-0.3486328,-0.1745605,-0.262207,0.4586947,0.1361679,-0.3211298,-21.5873,47.20502,-124.4294,-21.80913,47.90142,-123.9213,S_LF
-0.3395996,-0.5900879,0.8632813,-0.4672519,0.3086336,-0.5803587,-32.41993,17.96668,-38.36481,-32.46014,17.99186,-38.26127,-0.3515625,-0.177002,-0.2583008,0.3060229,-0.0470382,-0.09212208,-21.59303,47.22646,-124.4075,-22.08405,48.30936,-123.2746,S_LF
-0.3354492,-0.5979004,0.8569336,-0.5283206,0.6139771,-0.4582213,-32.43903,17.97174,-38.37702,-33.01237,17.7984,-38.66089,-0.3466797,-0.1730957,-0.2675781,0.489229,-0.0470382,0.1216183,-21.58532,47.22942,-124.4101,-21.56673,47.40925,-124.6267,S_LF
-0.3410645,-0.5961914,0.8630371,-0.2840458,0.4002366,-0.3055496,-32.4488,17.97843,-38.38426,-32.71901,18.012,-38.51479,-0.3493652,-0.1743164,-0.2670898,0.2907557,-0.1539084,0.1521528,-21.58179,47.2347,-124.4072,-21.62266,47.60658,-124.3751,S_LF
-0.338623,-0.5957031,0.8710938,-0.1161069,0.4002366,-0.3055496,-32.4518,17.98055,-38.38485,-32.51307,17.79025,-38.18935,-0.3435059,-0.1757813,-0.2568359,0.1380839,-0.07757253,0.1368854,-21.59397,47.24538,-124.3901,-22.28557,47.82222,-123.6479,S_LF
-0.3383789,-0.5913086,0.8725586,0.1434351,0.4002366,-0.03074045,-32.44651,17.9824,-38.37722,-32.28574,17.79818,-37.98227,-0.3466797,-0.1733398,-0.2697754,0.1838853,0.2583054,-0.01578617,-21.59025,47.24867,-124.3993,-21.53426,47.23247,-124.8385,S_LF
-0.3435059,-0.6083984,0.869873,-0.03977096,0.6139771,-0.07654199,-32.45903,17.98981,-38.38615,-33.04505,17.93146,-38.7711,-0.345459,-0.1728516,-0.2651367,-0.1214581,0.1972366,-0.04632068,-21.59322,47.25669,-124.4013,-21.64939,47.50453,-124.4645,S_LF
-0.3479004,-0.5844727,0.8684082,-0.2077099,0.4002366,-0.07654199,-32.45282,18.00358,-38.38095,-31.99582,18.38443,-38.06973,-0.3459473,-0.1699219,-0.2685547,-0.2588627,0.2430381,-0.1989923,-21.58928,47.2637,-124.4136,-21.2059,47.42852,-124.8678,S_LF
-0.3435059,-0.5893555,0.8693848,-0.299313,0.1254275,0.0,-32.45277,18.00756,-38.37571,-32.23022,18.11029,-38.11921,-0.3461914,-0.168457,-0.2641602,0.04648089,0.1361679,-0.5501375,-21.57978,47.27753,-124.4225,-21.1487,47.85498,-124.4551,S_LF
-0.3374023,-0.5932617,0.8562012,-0.1924427,0.3239008,0.01506107,-32.4627,18.01112,-38.37915,-32.8079,17.94769,-38.55906,-0.3483887,-0.1726074,-0.2658691,0.1686182,0.2430381,-0.168458,-21.57582,47.28935,-124.4236,-21.4974,47.70215,-124.3649,S_LF
-0.3347168,-0.5925293,0.861084,-0.4519846,0.1864962,-0.1528779,-32.47314,18.00859,-38.38007,-32.67484,17.75638,-38.3201,-0.3469238,-0.1733398,-0.2602539,0.6266336,0.838458,-0.1837251,-21.57081,47.3153,-124.4151,-21.78584,47.97042,-123.8645,S_LF
-0.3425293,-0.5939941,0.8566895,-0.3603816,0.09489316,-0.09180916,-32.48445,18.01359,-38.38728,-32.77369,18.1892,-38.67315,-0.34375,-0.1708984,-0.2629395,0.5044961,0.4720459,-0.1989923,-21.56344,47.328,-124.4177,-21.54819,47.62631,-124.4087,S_LF
-0.3325195,-0.5917969,0.8632813,-0.1924427,0.5071069,-0.1528779,-32.48955,18.01278,-38.38521,-32.6073,17.62498,-38.17876,-0.3444824,-0.173584,-0.2668457,0.2449541,0.2735725,-0.1073892,-21.56298,47.33064,-124.4245,-21.72037,47.25896,-124.6742,S_LF
-0.3447266,-0.5874023,0.8605957,-0.390916,0.6292443,0.07612977,-32.49268,18.02791,-38.38356,-32.35878,18.30662,-38.35852,-0.3481445,-0.1723633,-0.2636719,0.1075497,-0.031771,-0.04632068,-21.561,47.3408,-124.4199,-21.53784,47.86031,-124.1661,S_LF
-0.342041,-0.6022949,0.8518066,-0.6809924,-0.1951832,-0.1223435,-32.51759,18.02773,-38.39989,-33.27112,18.15259,-39.11605,-0.3522949,-0.1743164,-0.265625,0.3518243,0.3957099,-0.04632068,-21.55577,47.35889,-124.4132,-21.55824,47.95447,-124.0502,S_LF
-0.3395996,-0.6027832,0.8652344,-0.1008396,-0.4241909,-0.2139466,-32.528,18.01796,-38.40797,-32.9637,17.85099,-38.64673,-0.3518066,-0.1765137,-0.260498,0.2144198,0.319374,-0.1837251,-21.56072,47.38019,-124.3976,-21.96063,48.1894,-123.4976,S_LF
-0.3330078,-0.5952148,0.8635254,0.3419085,0.09489316,0.03032825,-32.52733,18.0113,-38.40541,-32.74589,17.61551,-38.3027,-0.3496094,-0.1765137,-0.2512207,-0.2283282,0.1667023,0.442229,-21.57852,47.40907,-124.3571,-22.29416,48.70989,-122.6783,S_LF
-0.340332,-0.5981445,0.8652344,0.4487787,-0.04251146,0.07612977,-32.52571,18.00907,-38.40622,-32.75444,17.92914,-38.49795,-0.3422852,-0.1748047,-0.2731934,-0.6100078,-0.01650381,0.259023,-21.5911,47.3915,-124.3743,-21.7594,46.5427,-125.4058,S_LF
-0.3378906,-0.5871582,0.8745117,0.05183208,0.4002366,-0.1834122,-32.51561,18.01048,-38.39606,-32.05849,17.78521,-37.76313,-0.3461914,-0.1767578,-0.2661133,-0.197794,0.3804427,0.03001523,-21.60276,47.39487,-124.3743,-22.03823,47.29897,-124.3961,S_LF
-0.3371582,-0.5788574,0.8632813,-0.2535114,0.2933664,0.3204046,-32.50854,18.01374,-38.37996,-31.98835,17.97208,-37.81076,-0.3283691,-0.1772461,-0.2653809,0.1075497,0.9453281,-0.2753282,-21.62459,47.37722,-124.3993,-22.77339,45.8176,-125.4199,S_LF
-0.3405762,-0.5964355,0.8745117,-0.4977863,0.5376411,0.06086259,-32.51442,18.01807,-38.37437,-32.43706,17.83514,-38.14539,-0.3513184,-0.1787109,-0.2700195,0.06174803,1.052198,-0.5348701,-21.6305,47.39182,-124.4074,-21.96531,47.3339,-124.4131,S_LF
-0.3398438,-0.592041,0.8598633,-0.4061831,0.5376411,0.442542,-32.52276,18.02624,-38.3693,-32.6327,18.0316,-38.44611,-0.3393555,-0.168457,-0.2653809,-0.1672597,1.235405,-0.4890685,-21.62732,47.40478,-124.4262,-21.35711,47.19221,-125.0097,S_LF
-0.3430176,-0.5900879,0.8674316,-0.4214504,0.6292443,0.3967404,-32.52444,18.03646,-38.36042,-32.31764,18.10563,-38.19761,-0.3479004,-0.1750488,-0.2636719,-0.3046641,1.571282,-0.3821983,-21.63627,47.43392,-124.4253,-21.85087,47.7069,-124.099,S_LF
-0.3395996,-0.5888672,0.8574219,-0.5435878,0.7666489,0.3051374,-32.53313,18.04863,-38.35688,-32.55938,18.0812,-38.40778,-0.3425293,-0.1699219,-0.2675781,-0.4115343,1.342275,-0.4890685,-21.63624,47.44804,-124.4432,-21.3523,47.2192,-124.9845,S_LF
-0.3417969,-0.5932617,0.8654785,-0.3145801,0.5529084,0.5799466,-32.53718,18.05609,-38.34874,-32.51977,18.04254,-38.34745,-0.3432617,-0.1765137,-0.2702637,-0.1061909,1.174336,-0.5043359,-21.64497,47.45038,-124.4612,-21.99994,46.75964,-124.9993,S_LF
-0.3410645,-0.5917969,0.8620605,-0.3603816,-0.1646488,0.5494123,-32.54242,18.05401,-38.34205,-32.55198,18.0651,-38.39113,-0.357666,-0.1723633,-0.2634277,-0.4573359,0.5941832,-0.4890685,-21.64653,47.48771,-124.4543,-21.20752,48.64674,-123.564,S_LF
-0.3383789,-0.59375,0.8654785,-0.4214504,-0.2104504,0.5799466,-32.55259,18.04557,-38.32804,-32.57607,17.86924,-38.29548,-0.3415527,-0.1865234,-0.2600098,-0.9306183,0.487313,-0.3363969,-21.697,47.48244,-124.4451,-23.48611,46.86652,-123.7478,S_LF
-0.3425293,-0.5935059,0.8540039,-0.7573281,0.07962596,0.4578092,-32.56913,18.05043,-38.32963,-32.82283,18.22978,-38.74368,-0.3442383,-0.1679688,-0.267334,-0.7474122,0.4567786,-0.4890685,-21.69483,47.48854,-124.4612,-21.07565,47.47408,-124.9128,S_LF
-0.3393555,-0.6008301,0.8540039,-0.6657251,0.2322977,0.3356718,-32.59043,18.05268,-38.3372,-33.17731,18.00395,-38.93851,-0.34375,-0.170166,-0.2670898,-0.4878702,0.7773893,0.0147481,-21.69464,47.49636,-124.4687,-21.35059,47.34612,-124.851,S_LF
-0.3381348,-0.5947266,0.8613281,-0.3145801,0.03382444,0.2593359,-32.59753,18.05015,-38.33608,-32.72981,17.90293,-38.45921,-0.342041,-0.171875,-0.269043,-0.1367252,0.7010534,-0.04632068,-21.69379,47.4962,-124.4821,-21.5519,46.97324,-125.1009,S_LF
-0.3388672,-0.5966797,0.8679199,0.06709921,-0.4699924,0.5494123,-32.59731,18.03894,-38.3279,-32.63556,17.83497,-38.33043,-0.3410645,-0.1721191,-0.2714844,-0.3199313,0.1209008,-0.2142596,-21.69554,47.48198,-124.5035,-21.54602,46.696,-125.3987,S_LF
-0.3376465,-0.5944824,0.8649902,0.05183208,-0.439458,0.5188779,-32.59717,18.02836,-38.32016,-32.62833,17.83282,-38.32239,-0.3449707,-0.1745605,-0.2631836,-0.3657329,-0.001236677,0.1063511,-21.70495,47.48285,-124.4969,-21.91515,47.52671,-124.2442,S_LF
-0.3442383,-0.5917969,0.8671875,0.2045038,-0.2257175,0.4120076,-32.59015,18.02776,-38.31392,-32.38636,18.15354,-38.29065,-0.3422852,-0.1728516,-0.2680664,-0.5031376,-0.09283972,0.1979542,-21.71188,47.47223,-124.5032,-21.68162,47.02,-124.9568,S_LF
-0.3383789,-0.5991211,0.8601074,0.1739695,-0.07304579,0.3662061,-32.59481,18.02396,-38.31544,-32.95156,17.89101,-38.65934,-0.3447266,-0.1767578,-0.2590332,-0.5336719,-0.031771,-0.1837251,-21.73128,47.47647,-124.4912,-22.28968,47.7075,-123.7684,S_LF
-0.3432617,-0.5947266,0.869873,-0.1161069,-0.1035802,0.3967404,-32.59373,18.02282,-38.30905,-32.45507,18.04323,-38.28762,-0.3447266,-0.170166,-0.2631836,-0.5031376,0.1361679,0.0,-21.73201,47.48331,-124.4893,-21.42267,47.72483,-124.3952,S_LF
-0.3393555,-0.5922852,0.8640137,-0.03977096,-0.1035802,0.5036107,-32.5932,18.01994,-38.30217,-32.54007,17.95012,-38.31056,-0.3439941,-0.1699219,-0.2619629,-0.6710763,0.2583054,-0.1379237,-21.73566,47.49258,-124.4879,-21.45422,47.76968,-124.3243,S_LF
-0.3422852,-0.5922852,0.8598633,-0.3145801,0.1406947,0.5188779,-32.59802,18.02448,-38.2991,-32.61811,18.15042,-38.50451,-0.3508301,-0.1711426,-0.2570801,-0.6710763,0.1819695,-0.1226563,-21.7404,47.51825,-124.4673,-21.47896,48.64247,-123.3686,S_LF
-0.3461914,-0.5913086,0.8637695,-0.05503809,-0.1646488,0.5646794,-32.59553,18.02758,-38.29329,-32.43316,18.30014,-38.42367,-0.3447266,-0.1728516,-0.2712402,-0.4573359,0.2735725,-0.1989923,-21.74246,47.5116,-124.4833,-21.50741,46.98471,-125.121,S_LF
-0.342041,-0.5891113,0.8574219,-0.222977,-0.2257175,0.4730763,-32.59779,18.02772,-38.2898,-32.54475,18.20038,-38.46658,-0.3496094,-0.171875,-0.2587891,-0.3351984,0.5178473,0.0,-21.74343,47.53599,-124.4655,-21.56109,48.3755,-123.5956,S_LF
-0.3393555,-0.595459,0.8666992,-0.3145801,-0.1035802,0.0,-32.60233,18.02346,-38.29073,-32.60908,17.88603,-38.33635,-0.3435059,-0.1740723,-0.2680664,-0.2130611,0.6094504,-0.04632068,-21.74723,47.53547,-124.4737,-21.77674,47.06237,-124.842,S_LF
-0.3432617,-0.5932617,0.8725586,-0.3298473,-0.2257175,0.1066641,-32.60157,18.02009,-38.28636,-32.322,18.02094,-38.15029,-0.3581543,-0.1760254,-0.2785645,-0.1214581,0.6399847,-0.01578617,-21.73803,47.54123,-124.4828,-21.20378,47.38443,-124.9161,S_LF
-0.3337402,-0.6008301,0.8596191,-0.5130534,0.03382444,-0.0002061129,-32.61832,18.0132,-38.29351,-33.08691,17.65197,-38.64368,-0.348877,-0.1730957,-0.2641602,-0.1672597,0.3957099,-0.2142596,-21.73735,47.55317,-124.4793,-21.58152,47.84705,-124.1481,S_LF
-0.3483887,-0.5939941,0.8537598,-0.2077099,0.003290057,0.07612977,-32.62478,18.02337,-38.3043,-32.78846,18.51921,-38.88891,-0.342041,-0.1723633,-0.2712402,-0.3199313,0.2888396,-0.1073892,-21.73792,47.54175,-124.4972,-21.54627,46.78445,-125.305,S_LF
-0.3383789,-0.5905762,0.8684082,0.128168,-0.1341145,0.3051374,-32.61774,18.01824,-38.2958,-32.36089,17.85921,-38.08889,-0.3586426,-0.1699219,-0.2651367,-0.4268017,0.3346412,-0.1226563,-21.72656,47.57013,-124.484,-20.85609,48.71452,-123.7463,S_LF
-0.3371582,-0.5952148,0.8640137,0.05183208,0.06435877,0.2440687,-32.61845,18.01512,-38.2937,-32.69088,17.81486,-38.37003,-0.3496094,-0.173584,-0.2695313,-0.3657329,0.3346412,-0.0310533,-21.72672,47.57323,-124.4873,-21.46562,47.47926,-124.6259,S_LF
-0.3425293,-0.59375,0.8674316,0.05183208,-0.02724427,0.2593359,-32.61497,18.01538,-38.29034,-32.483,18.04833,-38.31672,-0.3464355,-0.1708984,-0.2692871,-0.2588627,0.4262443,-0.09212208,-21.72133,47.57494,-124.4964,-21.27993,47.36643,-124.8804,S_LF
-0.3383789,-0.605957,0.8588867,-0.02450383,0.339168,0.0,-32.62864,18.01662,-38.30335,-33.28125,17.84439,-38.9404,-0.34375,-0.1696777,-0.2602539,-0.1672597,0.4109771,-0.09212208,-21.719,47.58733,-124.4913,-21.48166,47.89276,-124.1726,S_LF
-0.3417969,-0.5913086,0.8447266,0.03656495,0.2170305,0.0,-32.63511,18.02626,-38.31641,-32.97929,18.33938,-38.95658,-0.3461914,-0.1730957,-0.269043,0.01594663,0.3957099,-0.2905953,-21.71526,47.58658,-124.5018,-21.54391,47.25893,-124.8033,S_LF
-0.3388672,-0.592041,0.859375,0.03656495,0.4765725,0.1524656,-32.63498,18.03254,-38.31668,-32.65559,17.98961,-38.4421,-0.3464355,-0.173584,-0.2697754,0.3365571,0.6857863,0.0,-21.70742,47.58895,-124.5087,-21.57039,47.2006,-124.8461,S_LF
-0.3415527,-0.5925293,0.8554688,-0.1008396,0.3086336,-0.1834122,-32.6388,18.03983,-38.32587,-32.75163,18.17067,-38.6413,-0.3410645,-0.1748047,-0.251709,0.5960991,0.0,0.03001523,-21.7133,47.59836,-124.484,-22.4104,48.05959,-123.2958,S_LF
-0.3464355,-0.5932617,0.859375,0.05183208,-0.1035802,0.01506107,-32.63792,18.04468,-38.33194,-32.63034,18.35333,-38.63971,-0.3376465,-0.1711426,-0.2685547,0.1991527,0.8231909,-0.04632068,-21.70886,47.59201,-124.5021,-21.63784,46.67577,-125.3535,S_LF
-0.3374023,-0.5900879,0.8571777,0.2961069,-0.2104504,0.183,-32.63366,18.03997,-38.33089,-32.64241,17.96383,-38.41426,-0.3391113,-0.1708984,-0.2668457,-0.197794,0.4415114,0.06054974,-21.70951,47.58504,-124.5131,-21.6058,46.94099,-125.0959,S_LF
-0.342041,-0.5925293,0.861084,0.5098474,-0.7600687,0.4883435,-32.62598,18.03114,-38.32695,-32.5995,18.11977,-38.46856,-0.3435059,-0.1777344,-0.2521973,-0.1519923,-0.1386412,-0.1073892,-21.73035,47.59271,-124.4866,-22.63978,48.07013,-123.1072,S_LF
-0.3413086,-0.5981445,0.8491211,0.38771,-1.492893,0.4883435,-32.63113,18.01239,-38.3341,-33.16876,18.19101,-39.04345,-0.3430176,-0.1765137,-0.2624512,-0.4115343,-0.1844428,-0.428,-21.74638,47.58458,-124.4877,-22.22918,47.32167,-124.2287,S_LF
-0.345459,-0.5993652,0.8706055,0.3419085,-1.355489,0.3814733,-32.62579,17.9942,-38.33123,-32.61556,18.09936,-38.47114,-0.3459473,-0.1706543,-0.2670898,-0.5642061,-0.5050534,-0.1226563,-21.74577,47.57604,-124.4936,-21.32889,47.50434,-124.6984,S_LF
-0.3452148,-0.590332,0.8701172,0.05183208,-1.340221,0.0,-32.61731,17.97945,-38.32791,-32.23682,18.1758,-38.16525,-0.3500977,-0.1743164,-0.276123,-0.6558094,-0.382916,-0.1379237,-21.74755,47.55877,-124.5102,-21.35281,46.99376,-125.2231,S_LF
-0.3391113,-0.5869141,0.8681641,0.4335115,-0.9738091,0.03032825,-32.60256,17.96417,-38.32054,-32.19889,17.93149,-37.98172,-0.3464355,-0.1784668,-0.269043,-0.7321453,-0.8561985,-0.3058627,-21.76616,47.53536,-124.5169,-22.13981,47.01793,-124.6204,S_LF
-0.3408203,-0.6040039,0.8591309,0.1739695,-1.431824,0.2898702,-32.61124,17.94344,-38.32811,-33.1645,17.9797,-38.91193,-0.347168,-0.1791992,-0.2624512,-0.5642061,-0.550855,-0.2753282,-21.78617,47.52768,-124.5082,-22.37967,47.52934,-123.8918,S_LF
-0.3381348,-0.5854492,0.862793,-0.02450383,-1.126481,0.4272748,-32.60502,17.92847,-38.31733,-32.28333,17.96771,-38.08212,-0.3459473,-0.1779785,-0.2705078,-0.5794735,-0.3065802,-0.5806718,-21.8002,47.51048,-124.5228,-22.06164,46.89338,-124.8114,S_LF
-0.3347168,-0.5891113,0.8723145,-0.390916,-1.019611,0.793687,-32.60331,17.90771,-38.29607,-32.23222,17.64004,-37.83785,-0.3474121,-0.1748047,-0.2788086,-0.5336719,-0.09283972,-0.7486105,-21.80003,47.49005,-124.5554,-21.42599,46.55262,-125.6366,S_LF
-0.3398438,-0.592041,0.8720703,-0.4672519,-0.2409847,0.6868168,-32.60397,17.90366,-38.28179,-32.31568,17.87023,-38.05343,-0.3444824,-0.1669922,-0.267334,-0.4573359,0.3651755,-0.9928856,-21.78986,47.49644,-124.5774,-20.95533,47.54121,-124.9274,S_LF
-0.342041,-0.5927734,0.8725586,-0.6199236,-0.1035802,0.793687,-32.60727,17.90337,-38.26665,-32.31301,17.96535,-38.1083,-0.3449707,-0.1577148,-0.2661133,-0.5336719,0.6094504,0.0,-21.75938,47.51722,-124.5869,-19.89991,48.11713,-125.0522,S_LF
-0.3354492,-0.5878906,0.8708496,-0.7878625,0.1406947,0.793687,-32.61011,17.90135,-38.24755,-32.20917,17.70616,-37.85588,-0.3486328,-0.1672363,-0.2670898,-0.5336719,0.3957099,0.0,-21.74897,47.53049,-124.5879,-20.84631,47.88977,-124.6346,S_LF
-0.3322754,-0.5891113,0.861084,-0.7725954,-0.08831299,0.7173512,-32.62025,17.89534,-38.23502,-32.54921,17.66557,-38.14864,-0.3479004,-0.170166,-0.267334,-0.5642061,0.1056336,-0.8096795,-21.7457,47.53473,-124.5995,-21.19839,47.67007,-124.6163,S_LF
-0.3393555,-0.5893555,0.859375,-0.4825191,-0.2715191,0.5799466,-32.62511,17.89448,-38.2295,-32.53232,18.03845,-38.35668,-0.3459473,-0.166748,-0.2729492,-0.7321453,-0.1081069,-0.7180762,-21.73537,47.52744,-124.6255,-20.72693,47.24437,-125.4028,S_LF
-0.3278809,-0.5942383,0.8620605,-0.3603816,-0.2257175,0.3814733,-32.63342,17.88125,-38.22394,-32.79344,17.38815,-38.21309,-0.3432617,-0.1743164,-0.2653809,-0.7321453,0.1819695,-0.3058627,-21.74919,47.5242,-124.629,-21.88818,47.23172,-124.5795,S_LF
-0.3395996,-0.5852051,0.8657227,-0.3603816,0.01855725,0.3509389,-32.62968,17.88397,-38.21449,-32.18171,18.00355,-38.00934,-0.3435059,-0.1860352,-0.2714844,-0.5031376,0.2430381,-0.3211298,-21.78152,47.50157,-124.6368,-23.02051,46.22617,-124.7978,S_LF
-0.3398438,-0.5910645,0.8625488,-0.4825191,0.1101603,0.09139694,-32.6341,17.8879,-38.21544,-32.51964,18.00481,-38.32452,-0.3408203,-0.1694336,-0.2792969,-0.1367252,0.2735725,0.04528236,-21.76855,47.47985,-124.6688,-21.03252,46.21429,-126.2715,S_LF
-0.3417969,-0.5976563,0.8647461,-0.3603816,-0.1493817,-0.0002061129,-32.64133,17.88819,-38.22165,-32.73082,18.01222,-38.52595,-0.3444824,-0.1706543,-0.2685547,0.2907557,0.3041069,-0.2142596,-21.75599,47.47987,-124.6771,-21.34042,47.27215,-124.9369,S_LF
-0.3393555,-0.5944824,0.8723145,-0.2077099,-0.1493817,-0.06127481,-32.63977,17.8848,-38.2205,-32.42091,17.82124,-38.12199,-0.3469238,-0.1687012,-0.2692871,0.32129,0.2735725,0.0147481,-21.73642,47.48453,-124.6817,-21.01353,47.51171,-124.9172,S_LF
-0.3405762,-0.592041,0.8635254,0.2350382,0.4002366,-0.01547329,-32.63411,17.89338,-38.22316,-32.52956,18.01922,-38.34248,-0.3405762,-0.1755371,-0.263916,0.0006792545,-0.06230533,0.2895572,-21.74501,47.47512,-124.6753,-22.16634,47.05678,-124.5592,S_LF
-0.3439941,-0.5927734,0.8583984,0.3113741,0.1406947,-0.01547329,-32.63036,17.90244,-38.231,-32.65999,18.25022,-38.60428,-0.3410645,-0.1748047,-0.2709961,0.0006792545,-0.2455115,0.2742901,-21.74739,47.45409,-124.683,-21.86455,46.60401,-125.264,S_LF
-0.3293457,-0.5932617,0.864502,-0.05503809,0.06435877,0.1219313,-32.63199,17.89411,-38.22715,-32.6715,17.43831,-38.12841,-0.3452148,-0.1728516,-0.2675781,0.04648089,-0.4134504,0.2895572,-21.74358,47.44493,-124.6796,-21.59099,47.30023,-124.725,S_LF
-0.3383789,-0.5859375,0.8605957,0.02129769,0.04909158,0.2746031,-32.62623,17.89704,-38.22208,-32.35961,18.00477,-38.17549,-0.3461914,-0.1777344,-0.2666016,0.01594663,-0.1844428,0.0147481,-21.75117,47.43761,-124.6741,-22.13461,47.21439,-124.4145,S_LF
-0.3356934,-0.5849609,0.8701172,-0.2535114,0.07962596,0.1219313,-32.61937,17.89535,-38.21144,-32.09669,17.75379,-37.77976,-0.342041,-0.1708984,-0.2683105,-0.04512215,-0.2607787,-0.2142596,-21.74603,47.42654,-124.6849,-21.46087,47.0757,-125.0583,S_LF
-0.340332,-0.5915527,0.859375,-0.1924427,0.01855725,0.0,-32.62219,17.89905,-38.21631,-32.61896,18.06682,-38.45459,-0.3481445,-0.1721191,-0.2636719,0.1075497,-0.07757253,-0.1073892,-21.73973,47.43432,-124.6763,-21.51012,47.87239,-124.1735,S_LF
-0.3413086,-0.5915527,0.8659668,-0.4672519,0.2780993,-0.168145,-32.62535,17.9057,-38.21968,-32.43722,18.02746,-38.26146,-0.3444824,-0.1721191,-0.2678223,0.2602212,-0.1081069,0.1674199,-21.7319,47.42928,-124.6768,-21.52708,47.25675,-124.8179,S_LF
-0.3432617,-0.5930176,0.8740234,-0.4367175,0.4765725,-0.168145,-32.62432,17.9142,-38.21949,-32.27376,18.00379,-38.09503,-0.342041,-0.1713867,-0.2702637,0.3976259,0.1667023,-0.07685494,-21.72106,47.42108,-124.6891,-21.46239,46.90461,-125.2385,S_LF
-0.3383789,-0.5935059,0.8632813,-0.3298473,0.04909158,-0.2292137,-32.62881,17.9146,-38.2254,-32.6227,17.90037,-38.35768,-0.3400879,-0.1706543,-0.2692871,0.3976259,0.04456491,0.06054974,-21.70717,47.41066,-124.6997,-21.47474,46.84981,-125.2875,S_LF
-0.3388672,-0.5939941,0.859375,-0.2382443,0.2170305,-0.3971527,-32.63643,17.92064,-38.24007,-32.74138,17.97174,-38.51139,-0.3466797,-0.1765137,-0.2641602,0.32129,-0.001236677,-0.3821983,-21.70925,47.41237,-124.6949,-22.0472,47.49699,-124.1774,S_LF
-0.3413086,-0.5925293,0.8635254,-0.4367175,0.07962596,-0.2750153,-32.64099,17.92441,-38.24681,-32.54345,18.05101,-38.37466,-0.3439941,-0.1791992,-0.2663574,0.1838853,-0.09283972,-0.3058627,-21.72009,47.40231,-124.695,-22.38648,46.97794,-124.478,S_LF
-0.3591309,-0.595459,0.862793,-0.1008396,0.2475649,-0.4124198,-32.63972,17.94777,-38.26528,-32.50366,18.91024,-38.86736,-0.348877,-0.1755371,-0.2709961,0.1075497,-0.06230533,-0.1073892,-21.71762,47.39773,-124.6977,-21.67071,47.21614,-124.7562,S_LF
-0.3395996,-0.5932617,0.8654785,-0.1619084,0.2780993,-0.04600763,-32.64,17.95131,-38.26667,-32.54225,17.934,-38.30288,-0.342041,-0.1706543,-0.2602539,0.1533511,0.1361679,0.091084,-21.71414,47.40581,-124.6874,-21.65601,47.70165,-124.2489,S_LF
-0.3439941,-0.6008301,0.8608398,-0.1619084,0.4002366,-0.1986794,-32.64854,17.96102,-38.28042,-32.94834,18.14301,-38.80819,-0.3464355,-0.1743164,-0.2663574,0.0006792545,0.09036642,0.1368854,-21.71479,47.40744,-124.6813,-21.74699,47.42117,-124.4816,S_LF
-0.3413086,-0.5976563,0.8601074,-0.5283206,0.4002366,-0.1834122,-32.66048,17.96867,-38.29083,-32.85717,18.04939,-38.66637,-0.3398438,-0.1755371,-0.2705078,0.01594663,-0.07757253,0.1216183,-21.72037,47.38828,-124.6914,-22.00504,46.50251,-125.2683,S_LF
-0.3369141,-0.5917969,0.8596191,-0.3451145,0.1864962,-0.03074045,-32.66518,17.96969,-38.29316,-32.65859,17.89155,-38.38586,-0.3476563,-0.168457,-0.2700195,0.1686182,0.09036642,0.259023,-21.70231,47.3924,-124.6928,-20.94103,47.52778,-124.9518,S_LF
-0.3398438,-0.5952148,0.8630371,-0.1466411,0.2780993,-0.1070763,-32.66781,17.9736,-38.29798,-32.68889,17.96056,-38.45566,-0.338623,-0.1687012,-0.2724609,0.6266336,0.04456491,-0.04632068,-21.68394,47.37673,-124.7148,-21.21381,46.5785,-125.761,S_LF
-0.3374023,-0.5976563,0.8562012,-0.2840458,0.430771,-0.2139466,-32.67837,17.97818,-38.30926,-33.00077,17.90732,-38.71517,-0.3415527,-0.1657715,-0.2727051,0.7640381,0.3499084,0.1216183,-21.65445,47.3732,-124.7325,-20.77088,46.9432,-125.6895,S_LF
-0.3491211,-0.5944824,0.864502,-0.1771755,0.1254275,-0.2139466,-32.67786,17.98857,-38.31765,-32.52269,18.40522,-38.57139,-0.34375,-0.173584,-0.2697754,0.5044961,-0.001236677,0.3048244,-21.64774,47.36528,-124.7339,-21.66518,46.97824,-125.0131,S_LF
-0.3459473,-0.5891113,0.8527832,0.0976336,-0.1035802,-0.168145,-32.67546,17.99653,-38.32758,-32.62503,18.45752,-38.69875,-0.3366699,-0.1721191,-0.2644043,0.3518243,-0.3218473,0.091084,-21.64768,47.35044,-124.7372,-21.90349,46.86002,-124.9639,S_LF
-0.3361816,-0.5981445,0.861084,0.2808397,-0.05777865,-0.0002061129,-32.67594,17.99131,-38.33201,-32.90587,17.7783,-38.54919,-0.340332,-0.1765137,-0.2687988,0.1686182,-0.550855,0.1674199,-21.65519,47.3278,-124.7407,-22.14697,46.62328,-125.0352,S_LF
-0.3327637,-0.5964355,0.8674316,0.06709921,-0.6379313,0.2135344,-32.67542,17.97295,-38.32655,-32.69929,17.54203,-38.2156,-0.3435059,-0.1706543,-0.2678223,0.01594663,-0.9783359,0.4727633,-21.64975,47.31179,-124.7374,-21.39482,47.24659,-124.9247,S_LF
-0.3378906,-0.6030273,0.8596191,0.219771,-0.8364046,0.06086259,-32.68147,17.95795,-38.33519,-33.13971,17.83755,-38.80356,-0.3422852,-0.1755371,-0.2697754,-0.2435954,0.0,0.2437558,-21.65886,47.30079,-124.7402,-21.93837,46.76177,-125.0425,S_LF
-0.3430176,-0.6079102,0.871582,0.5709161,-0.699,-0.01547329,-32.6797,17.94699,-38.34249,-32.98457,17.8899,-38.68957,-0.3427734,-0.1740723,-0.2695313,-0.2435954,0.0,0.6254351,-21.66451,47.29261,-124.7369,-21.76195,46.89165,-125.0343,S_LF
-0.3469238,-0.59375,0.8691406,0.7235878,-0.3936565,-0.1376107,-32.66335,17.9471,-38.34469,-32.39388,18.24174,-38.35144,-0.3479004,-0.1713867,-0.2712402,-0.2741299,-0.9478015,0.6712368,-21.65961,47.28008,-124.7323,-21.23151,47.31631,-124.9685,S_LF
-0.3447266,-0.5876465,0.8674316,0.7235878,-0.1341145,0.07612977,-32.64401,17.95056,-38.33969,-32.19297,18.21214,-38.14673,-0.3413086,-0.1723633,-0.2668457,0.01594663,-0.8561985,0.259023,-21.66008,47.26298,-124.732,-21.69493,47.05419,-124.9107,S_LF
-0.338623,-0.5915527,0.8662109,0.3266413,-0.2715191,0.1371985,-32.6355,17.94539,-38.33486,-32.45824,17.89147,-38.19898,-0.345459,-0.1757813,-0.2727051,0.3518243,-0.2149771,0.2437558,-21.65713,47.25048,-124.7364,-21.77124,46.79636,-125.1286,S_LF
-0.329834,-0.592041,0.8688965,0.2655725,-0.347855,0.01506107,-32.62884,17.92971,-38.32701,-32.49791,17.41674,-37.9534,-0.3444824,-0.1733398,-0.2634277,0.5044961,0.05983204,0.091084,-21.65281,47.25687,-124.7272,-21.7872,47.52872,-124.337,S_LF
-0.3395996,-0.5932617,0.8725586,0.05183208,-0.2409847,-0.07654199,-32.62273,17.92463,-38.32304,-32.35889,17.84093,-38.07604,-0.3474121,-0.1723633,-0.2714844,0.3518243,0.1056336,-0.1837251,-21.64162,47.25751,-124.7352,-21.35196,47.2114,-124.9931,S_LF
-0.3349609,-0.5935059,0.8637695,-0.1161069,0.2933664,-0.1376107,-32.62489,17.92494,-38.32407,-32.64479,17.72455,-38.27303,-0.3569336,-0.168457,-0.2653809,0.32129,0.1056336,-0.3821983,-21.61926,47.28644,-124.724,-20.74383,48.63136,-123.9161,S_LF
-0.3371582,-0.6062012,0.8598633,-0.2840458,0.3544351,-0.1528779,-32.64186,17.92669,-38.33754,-33.27868,17.76921,-38.8932,-0.3464355,-0.1677246,-0.2634277,0.1838853,0.1209008,-0.1837251,-21.60569,47.30183,-124.72,-21.07585,47.96721,-124.3878,S_LF
-0.3342285,-0.5866699,0.8659668,-0.1771755,0.003290057,0.01506107,-32.63751,17.92261,-38.32944,-32.2942,17.72052,-37.94363,-0.3291016,-0.1755371,-0.2692871,0.2144198,-0.1539084,-0.2295268,-21.61904,47.26701,-124.7455,-22.43093,45.67404,-125.8281,S_LF
-0.338623,-0.5861816,0.8601074,0.02129769,-0.2867863,0.04559542,-32.63206,17.92037,-38.32629,-32.38063,18.02123,-38.20502,-0.3422852,-0.1730957,-0.2697754,0.2144198,-0.2302443,0.1216183,-21.61695,47.25611,-124.7514,-21.66167,46.87971,-125.1202,S_LF
-0.3432617,-0.5915527,0.8608398,0.08236647,-0.4699924,-0.09180916,-32.62929,17.91936,-38.33036,-32.55032,18.19246,-38.46693,-0.342041,-0.1728516,-0.2697754,-0.1519923,-0.4439847,-0.0005190372,-21.6197,47.24188,-124.7592,-21.64259,46.87107,-125.1433,S_LF
-0.3417969,-0.5949707,0.8557129,-0.009236574,0.2780993,-0.03074045,-32.63384,17.9282,-38.33869,-32.84991,18.15685,-38.72464,-0.3444824,-0.1665039,-0.2612305,-0.381,-0.7187939,0.1216183,-21.61417,47.2472,-124.7487,-21.06325,48.03596,-124.3236,S_LF
-0.3366699,-0.5891113,0.8535156,0.128168,0.07962596,0.04559542,-32.63335,17.93051,-38.34093,-32.70338,17.98507,-38.48396,-0.3459473,-0.1738281,-0.2727051,-0.09092379,-0.7951298,0.2132213,-21.61391,47.22916,-124.7538,-21.53459,46.92975,-125.1596,S_LF
-0.3405762,-0.5883789,0.8637695,0.2045038,-0.1188473,0.03032825,-32.62492,17.93113,-38.33777,-32.36226,18.04929,-38.20491,-0.3317871,-0.1723633,-0.2758789,0.32129,-0.6729923,0.5796337,-21.61271,47.18666,-124.7792,-21.77433,45.56588,-126.4224,S_LF
-0.3308105,-0.6064453,0.8745117,0.38771,-0.5005267,-0.1070763,-32.62646,17.911,-38.33861,-32.96791,17.26787,-38.30634,-0.3491211,-0.1713867,-0.2714844,0.5502977,-0.7951298,0.3811603,-21.59603,47.1792,-124.7764,-21.18281,47.39795,-124.9168,S_LF
-0.3366699,-0.5932617,0.8674316,0.6319848,-0.5615954,-0.2597481,-32.61506,17.8998,-38.33927,-32.52118,17.76351,-38.18091,-0.3413086,-0.1743164,-0.2797852,0.1838853,-0.5203207,0.3964274,-21.59264,47.14839,-124.798,-21.55306,45.99589,-126.1309,S_LF
-0.3371582,-0.5900879,0.873291,0.7235878,-0.1493817,-0.07654199,-32.59734,17.89454,-38.33136,-32.2256,17.73923,-37.89095,-0.3486328,-0.1745605,-0.2644043,-0.09092379,-0.642458,0.3200917,-21.59711,47.1507,-124.7802,-21.7493,47.73615,-124.143,S_LF
-0.3337402,-0.5849609,0.8654785,0.5251145,0.03382444,0.04559542,-32.58241,17.8915,-38.32182,-32.23634,17.71788,-37.88818,-0.3439941,-0.1716309,-0.2646484,-0.04512215,-0.6577252,0.1979542,-21.59736,47.14763,-124.7726,-21.57619,47.48034,-124.544,S_LF
-0.3398438,-0.5883789,0.864502,0.2655725,0.1254275,0.2135344,-32.57387,17.89557,-38.31557,-32.35073,18.00323,-38.1663,-0.3447266,-0.1748047,-0.2668457,0.01594663,-0.6119237,0.1979542,-21.60219,47.14067,-124.7668,-21.85,47.21939,-124.6208,S_LF
-0.3337402,-0.595459,0.8706055,0.06709921,0.2017633,0.183,-32.57275,17.89159,-38.30872,-32.56404,17.55802,-38.09863,-0.3425293,-0.1601563,-0.2600098,0.3060229,-0.5203207,0.4116948,-21.57418,47.15584,-124.7557,-20.42657,48.28187,-124.5137,S_LF
-0.3374023,-0.5925293,0.8647461,0.2350382,0.1101603,0.04559542,-32.56887,17.89221,-38.307,-32.55162,17.84155,-38.25604,-0.3474121,-0.1723633,-0.2619629,0.1075497,-0.3065802,-0.0005190372,-21.57343,47.16711,-124.7414,-21.61041,47.92988,-124.0381,S_LF
-0.3259277,-0.5898438,0.8693848,0.2655725,0.04909158,-0.1376107,-32.5624,17.87975,-38.29837,-32.42718,17.23557,-37.78101,-0.3483887,-0.1682129,-0.2600098,0.2449541,-0.06230533,0.0147481,-21.56144,47.19019,-124.7244,-21.1538,48.3665,-123.9043,S_LF
-0.3383789,-0.590332,0.8740234,0.1129008,0.2322977,-0.3208168,-32.5536,17.88132,-38.29514,-32.2053,17.78765,-37.90108,-0.3513184,-0.1740723,-0.2736816,0.4434273,-0.07757253,-0.09212208,-21.55068,47.19096,-124.7296,-21.34936,47.28569,-124.9161,S_LF
-0.333252,-0.5905762,0.8701172,-0.1771755,0.171229,-0.3055496,-32.55249,17.87788,-38.29234,-32.36793,17.58324,-37.93053,-0.3461914,-0.1772461,-0.2590332,0.672435,0.1209008,-0.1226563,-21.55625,47.20487,-124.71,-22.29057,47.80338,-123.6644,S_LF
-0.3342285,-0.5952148,0.8630371,-0.4825191,0.2780993,-0.504023,-32.56299,17.87779,-38.30026,-32.74633,17.68243,-38.34284,-0.3447266,-0.1728516,-0.2753906,0.5044961,0.1819695,0.2284887,-21.54557,47.19694,-124.7231,-21.39311,46.6746,-125.5315,S_LF
-0.3427734,-0.5949707,0.8642578,-0.2687786,0.1406947,-0.5192901,-32.568,17.88412,-38.31123,-32.61621,18.09135,-38.46689,-0.3432617,-0.1728516,-0.2727051,0.4128931,0.2888396,-0.0005190372,-21.53936,47.19203,-124.7358,-21.51813,46.75331,-125.3583,S_LF
-0.333252,-0.6003418,0.8640137,-0.4061831,0.4613054,-0.2902825,-32.58131,17.88428,-38.31847,-32.95451,17.57545,-38.47429,-0.3422852,-0.175293,-0.267334,0.2754886,0.07509923,0.3811603,-21.54411,47.18841,-124.7316,-21.97955,46.95584,-124.8058,S_LF
-0.3405762,-0.5979004,0.8557129,-0.222977,0.3849695,-0.3818855,-32.59278,17.89364,-38.33379,-32.99114,18.06909,-38.80349,-0.3430176,-0.173584,-0.2727051,0.1075497,-0.07757253,0.2284887,-21.54394,47.17754,-124.7408,-21.60948,46.6982,-125.3504,S_LF
-0.3359375,-0.5949707,0.8640137,0.1739695,0.2933664,-0.1376107,-32.59239,17.89492,-38.33574,-32.69264,17.75661,-38.33686,-0.3444824,-0.1708984,-0.2702637,0.1228168,-0.2302443,0.3658931,-21.53769,47.17323,-124.7426,-21.32144,47.13119,-125.1001,S_LF
-0.3422852,-0.5891113,0.8730469,0.2655725,0.09489316,-0.07654199,-32.5794,17.89849,-38.32952,-32.13785,18.00368,-37.96867,-0.3466797,-0.1699219,-0.2729492,0.03121376,-0.2607787,0.2284887,-21.52771,47.16906,-124.7496,-21.06196,47.15639,-125.2592,S_LF
-0.3395996,-0.5913086,0.871582,0.2808397,0.07962596,-0.09180916,-32.56966,17.89911,-38.32504,-32.29868,17.87115,-38.03816,-0.3474121,-0.1733398,-0.2705078,0.07701516,-0.1691756,0.2437558,-21.5258,47.16795,-124.7483,-21.48857,47.2379,-124.866,S_LF
-0.340332,-0.5974121,0.8659668,0.2350382,0.06435877,-0.03074045,-32.56888,17.9006,-38.32796,-32.70341,17.92616,-38.44851,-0.3586426,-0.1779785,-0.2714844,0.0922823,-0.2302443,0.182687,-21.52577,47.17844,-124.7337,-21.5875,47.85038,-124.1402,S_LF
-0.3359375,-0.5830078,0.8666992,0.128168,0.003290057,-0.09180916,-32.55767,17.8992,-38.31915,-32.09629,17.82845,-37.82425,-0.3457031,-0.1674805,-0.2683105,0.2144198,-0.382916,0.2437558,-21.51095,47.18012,-124.7341,-20.94273,47.54391,-124.9335,S_LF
-0.3347168,-0.5915527,0.8659668,0.3266413,-0.2257175,-0.07654199,-32.5518,17.89192,-38.31645,-32.50414,17.70122,-38.12781,-0.342041,-0.177002,-0.2663574,0.2907557,-0.3981832,0.1368854,-21.52065,47.16914,-124.7308,-22.20978,46.92414,-124.6682,S_LF
-0.3312988,-0.5947266,0.8730469,0.4029771,-0.2562519,-0.1986794,-32.54469,17.87857,-38.31196,-32.49278,17.41252,-37.94613,-0.3483887,-0.175293,-0.2592773,0.6419008,-0.06230533,0.2742901,-21.52105,47.18621,-124.7047,-21.98098,48.0652,-123.6163,S_LF
-0.3364258,-0.5939941,0.8659668,0.3571756,-0.02724427,-0.07654199,-32.54078,17.8759,-38.31176,-32.59388,17.76403,-38.24906,-0.3449707,-0.1760254,-0.2666016,0.672435,0.1361679,0.701771,-21.52047,47.18844,-124.6911,-21.98608,47.19785,-124.543,S_LF
-0.3391113,-0.5935059,0.8583984,0.5861833,-0.2104504,-0.3208168,-32.53621,17.87532,-38.32085,-32.74305,18.00128,-38.53076,-0.3359375,-0.1740723,-0.2692871,0.4281602,-0.3981832,0.7628398,-21.52404,47.16549,-124.6949,-22.01378,46.33375,-125.4404,S_LF
-0.3395996,-0.5908203,0.8671875,0.0,0.2475649,-0.0002061129,-32.5333,17.88012,-38.31767,-32.39087,17.93346,-38.16151,-0.3457031,-0.1760254,-0.2624512,0.2907557,-0.6729923,0.8086412,-21.53079,47.16367,-124.6707,-22.07504,47.56885,-124.0795,S_LF
-0.3347168,-0.5932617,0.8647461,0.9678626,-0.2715191,0.3204046,-32.52062,17.87256,-38.31116,-32.61099,17.70188,-38.22796,-0.3459473,-0.1762695,-0.2619629,0.1838853,0.0,0.701771,-21.53979,47.17266,-124.6478,-22.10733,47.61331,-124.0075,S_LF
-0.3427734,-0.5910645,0.8574219,0.8915268,0.0,0.2746031,-32.51044,17.87948,-38.31219,-32.62316,18.21867,-38.55074,-0.3515625,-0.1706543,-0.267334,0.1075497,-0.810397,0.701771,-21.5292,47.17064,-124.6272,-21.12617,47.94501,-124.3753,S_LF
-0.3342285,-0.5881348,0.8657227,0.0,-0.6379313,0.06086259,-32.50753,17.86235,-38.30471,-32.36512,17.71067,-38.00382,-0.3457031,-0.1745605,-0.2749023,-0.1672597,-0.4439847,0.9155113,-21.53238,47.15493,-124.6286,-21.56486,46.71161,-125.3686,S_LF
-0.3400879,-0.5810547,0.8657227,0.9220611,-0.2562519,0.03032825,-32.48369,17.86265,-38.29561,-31.99323,18.06525,-37.87185,-0.348877,-0.1723633,-0.265625,-0.2283282,-0.8714657,0.701771,-21.53404,47.15533,-124.6128,-21.45907,47.77249,-124.3177,S_LF
-0.3398438,-0.5881348,0.8674316,0.4945802,0.09489316,-0.168145,-32.47252,17.86603,-38.29327,-32.26412,17.96648,-38.06351,-0.3498535,-0.1757813,-0.2648926,0.1686182,-0.3523817,0.3200917,-21.53748,47.16181,-124.5974,-21.82978,47.7387,-124.0806,S_LF
-0.3349609,-0.5881348,0.8696289,0.00603056,0.07962596,0.01506107,-32.4681,17.86379,-38.28506,-32.25635,17.6958,-37.89361,-0.3479004,-0.1726074,-0.2573242,0.5197632,0.05983204,-0.0005190372,-21.53401,47.18567,-124.576,-21.74633,48.31052,-123.5277,S_LF
-0.3359375,-0.5932617,0.8676758,0.05183208,0.1559618,0.03032825,-32.46842,17.86329,-38.28208,-32.52221,17.7241,-38.15833,-0.3464355,-0.1708984,-0.2626953,0.3976259,0.4567786,-0.2295268,-21.52666,47.20601,-124.5722,-21.45861,47.86684,-124.2172,S_LF
-0.3415527,-0.5895996,0.8681641,-0.3603816,0.1864962,0.0,-32.4702,17.86933,-38.27897,-32.29222,18.028,-38.12687,-0.347168,-0.1672363,-0.2609863,0.1991527,0.3957099,-0.3058627,-21.51458,47.23211,-124.5671,-21.05908,48.23976,-124.1087,S_LF
-0.3349609,-0.5915527,0.8671875,-0.2687786,0.5071069,0.0,-32.47387,17.87285,-38.27526,-32.46986,17.69737,-38.09354,-0.3432617,-0.171875,-0.269043,0.1228168,0.319374,-0.2447939,-21.51266,47.23367,-124.5799,-21.50879,47.07505,-125.0242,S_LF
-0.3393555,-0.5822754,0.8623047,-0.4367175,0.6292443,0.0,-32.47367,17.88592,-38.26996,-32.14309,18.06376,-38.01,-0.3481445,-0.1699219,-0.2678223,0.1228168,-0.06230533,-0.1989923,-21.5037,47.24143,-124.5842,-21.1491,47.66478,-124.6574,S_LF
-0.3308105,-0.5910645,0.8657227,-0.131374,0.2933664,0.07612977,-32.47657,17.88252,-38.26431,-32.52831,17.51481,-38.03967,-0.3413086,-0.1728516,-0.2646484,0.04648089,-0.3371145,0.04528236,-21.50919,47.23558,-124.5853,-21.81227,47.19635,-124.6733,S_LF
-0.338623,-0.5839844,0.878418,-0.03977096,0.09489316,-0.03074045,-32.46386,17.88222,-38.25032,-31.8121,17.79782,-37.54202,-0.3486328,-0.1706543,-0.2595215,-0.1519923,-0.001236677,-0.1989923,-21.50999,47.25688,-124.5718,-21.43745,48.30159,-123.7665,S_LF
-0.3320313,-0.5925293,0.8681641,-0.3298473,-0.1035802,0.1371985,-32.46976,17.87367,-38.24406,-32.51658,17.53086,-38.03821,-0.3391113,-0.1689453,-0.270752,-0.2435954,-0.1997099,-0.1837251,-21.50882,47.24356,-124.5941,-21.27243,46.73798,-125.5511,S_LF
-0.3400879,-0.5874023,0.8615723,-0.2077099,0.06435877,0.07612977,-32.47105,17.87841,-38.24269,-32.38134,18.06333,-38.23117,-0.3383789,-0.1733398,-0.262207,-0.2130611,-0.001236677,-0.2447939,-21.52245,47.24089,-124.5974,-22.04419,47.11069,-124.5928,S_LF
-0.3376465,-0.5939941,0.861084,-0.222977,-0.02724427,-0.1070763,-32.47887,17.87823,-38.24793,-32.70913,17.8886,-38.43129,-0.3391113,-0.1726074,-0.2675781,0.1380839,-0.001236677,0.091084,-21.52559,47.2321,-124.6064,-21.78094,46.80239,-125.115,S_LF
-0.3344727,-0.595459,0.8620605,-0.07030535,0.01855725,-0.2139466,-32.48593,17.87504,-38.25387,-32.7802,17.70507,-38.38799,-0.3430176,-0.1733398,-0.2602539,0.6266336,0.07509923,0.2437558,-21.52444,47.24151,-124.5928,-21.9287,47.64759,-124.1046,S_LF
-0.3381348,-0.5959473,0.8613281,0.2655725,-0.2715191,-0.3818855,-32.48797,17.87139,-38.26446,-32.78328,17.89182,-38.50248,-0.3481445,-0.1791992,-0.2614746,0.8251068,-0.1386412,0.4727633,-21.52924,47.24828,-124.5687,-22.37076,47.68193,-123.7343,S_LF
-0.3339844,-0.5959473,0.8620605,0.9678626,-0.3936565,-0.1376107,-32.48011,17.8617,-38.2691,-32.80656,17.67644,-38.39562,-0.3491211,-0.177002,-0.2607422,0.5350306,-0.382916,0.350626,-21.53346,47.25662,-124.5459,-22.10734,47.92805,-123.6688,S_LF
-0.3371582,-0.581543,0.869873,0.8457253,-0.3936565,-0.01547329,-32.45766,17.85627,-38.25785,-31.93745,17.85997,-37.69574,-0.3474121,-0.1726074,-0.2634277,0.2907557,-0.9783359,0.4269619,-21.53048,47.25324,-124.5323,-21.59839,47.80666,-124.1789,S_LF
-0.3359375,-0.5854492,0.8669434,0.6777863,0.2780993,-0.03074045,-32.4425,17.8593,-38.25122,-32.19784,17.80343,-37.90362,-0.3459473,-0.1730957,-0.2648926,0.06174803,0.0,0.3200917,-21.53229,47.2592,-124.525,-21.66635,47.55124,-124.4021,S_LF
-0.3376465,-0.578125,0.8659668,0.4640458,0.2322977,0.09139694,-32.42445,17.86486,-38.23902,-31.88154,17.96692,-37.70858,-0.3427734,-0.1599121,-0.2675781,0.229687,-0.7951298,0.610168,-21.50208,47.25665,-124.531,-20.19068,47.71636,-125.2767,S_LF
-0.3366699,-0.5915527,0.8620605,0.1739695,0.3697023,0.0,-32.42514,17.86999,-38.2401,-32.58637,17.8494,-38.29317,-0.3449707,-0.1765137,-0.2651367,0.0922823,-0.8714657,0.2895572,-21.51242,47.24522,-124.5241,-22.08218,47.283,-124.3804,S_LF
-0.3305664,-0.5854492,0.8874512,0.1129008,0.1864962,-0.07654199,-32.40958,17.86058,-38.2193,-31.72447,17.27186,-37.14736,-0.3461914,-0.1721191,-0.2636719,-0.02985501,-0.5050534,0.2284887,-21.51421,47.24713,-124.5161,-21.57995,47.71199,-124.2938,S_LF
-0.3354492,-0.5849609,0.8637695,0.08236647,0.6292443,0.09139694,-32.40545,17.86913,-38.21313,-32.2636,17.82552,-37.97807,-0.3447266,-0.184082,-0.2595215,0.1075497,-0.3676488,-0.07685494,-21.54442,47.24265,-124.4987,-23.1038,47.29335,-123.5874,S_LF
-0.3383789,-0.5844727,0.8710938,-0.1619084,0.4002366,-0.09180916,-32.40018,17.8752,-38.20594,-32.02325,17.8782,-37.78638,-0.3457031,-0.1721191,-0.2575684,0.3365571,0.1056336,0.1521528,-21.5442,47.26198,-124.4806,-21.76438,48.13649,-123.7018,S_LF
-0.3383789,-0.5888672,0.8647461,-0.3451145,0.2933664,-0.1986794,-32.40453,17.88018,-38.20747,-32.38081,17.92296,-38.14581,-0.3491211,-0.1740723,-0.2661133,0.4434273,0.1209008,-0.2142596,-21.5394,47.27195,-124.4802,-21.63029,47.67183,-124.2998,S_LF
-0.3354492,-0.5944824,0.8620605,-0.3298473,0.5376411,-0.2597481,-32.41584,17.88572,-38.21459,-32.72744,17.76233,-38.3728,-0.3479004,-0.1711426,-0.2692871,0.5197632,0.3651755,0.03001523,-21.52662,47.28102,-124.4858,-21.25655,47.47516,-124.7817,S_LF
-0.3378906,-0.5935059,0.864502,-0.3603816,0.4765725,-0.3513512,-32.42438,17.89175,-38.22129,-32.59582,17.86012,-38.30842,-0.3413086,-0.1765137,-0.2614746,0.5350306,0.05983204,0.1063511,-21.53462,47.28133,-124.4792,-22.32015,47.25225,-124.2345,S_LF
-0.3342285,-0.5913086,0.8745117,0.00603056,0.4613054,-0.2902825,-32.42134,17.89206,-38.21785,-32.27658,17.56812,-37.83639,-0.3449707,-0.1765137,-0.260498,0.32129,0.04456491,0.5338321,-21.54376,47.28892,-124.4605,-22.21186,47.63017,-123.9106,S_LF
-0.340332,-0.5917969,0.8608398,0.3571756,0.4918396,-0.2139466,-32.41984,17.90187,-38.22475,-32.59139,18.04506,-38.41573,-0.329834,-0.175293,-0.2651367,0.3518243,-0.3065802,0.442229,-21.55772,47.25984,-124.4722,-22.50033,46.06051,-125.3683,S_LF
-0.3374023,-0.590332,0.8652344,0.00603056,0.5529084,-0.1223435,-32.4202,17.90905,-38.2253,-32.44244,17.8549,-38.16227,-0.3447266,-0.171875,-0.2678223,0.2449541,-0.01650381,0.4727633,-21.55301,47.26019,-124.4724,-21.49071,47.28881,-124.8103,S_LF
-0.3349609,-0.5878906,0.871582,0.1587023,0.59871,-0.2597481,-32.41352,17.91254,-38.2208,-32.19511,17.67241,-37.82262,-0.3435059,-0.1726074,-0.2641602,0.4739618,-0.031771,0.2437558,-21.54936,47.26309,-124.4693,-21.71867,47.42862,-124.4945,S_LF
-0.3432617,-0.5893555,0.8662109,0.3266413,0.4613054,-0.336084,-32.40674,17.92388,-38.22565,-32.31451,18.14064,-38.216,-0.3430176,-0.1867676,-0.270752,0.2602212,-0.001236677,0.3048244,-21.57763,47.24185,-124.4703,-23.14124,46.20187,-124.7307,S_LF
-0.3383789,-0.5869141,0.8706055,0.2961069,0.3086336,-0.07654199,-32.39741,17.92689,-38.21996,-32.14329,17.86294,-37.88869,-0.340332,-0.1699219,-0.2692871,0.1991527,0.02929771,0.2437558,-21.5708,47.23555,-124.4833,-21.38234,46.90545,-125.2953,S_LF
-0.3388672,-0.5805664,0.8647461,0.3419085,0.1101603,-0.1070763,-32.38462,17.93042,-38.21434,-32.00911,18.02211,-37.86037,-0.3444824,-0.1738281,-0.2641602,-0.02985501,-0.1691756,0.259023,-21.57627,47.23734,-124.4777,-21.8225,47.44917,-124.3959,S_LF
-0.3408203,-0.5856934,0.8662109,0.2808397,-0.1035802,-0.1070763,-32.37636,17.93134,-38.21236,-32.17824,18.05312,-38.03618,-0.3464355,-0.1706543,-0.2587891,0.04648089,-0.001236677,0.1216183,-21.57484,47.25613,-124.463,-21.53652,48.17774,-123.8266,S_LF
-0.3381348,-0.5883789,0.8703613,0.02129769,-0.2715191,0.09139694,-32.37287,17.92581,-38.20573,-32.21642,17.84105,-37.9435,-0.3457031,-0.1708984,-0.2641602,0.4281602,0.1361679,0.091084,-21.56594,47.2669,-124.4606,-21.44496,47.69491,-124.4109,S_LF
-0.3364258,-0.5930176,0.8603516,-0.1771755,0.2933664,-0.168145,-32.38198,17.92854,-38.212,-32.69804,17.84652,-38.39568,-0.34375,-0.1726074,-0.2585449,0.7182367,0.3346412,-0.09212208,-21.56137,47.284,-124.4509,-21.86528,47.87561,-123.9071,S_LF
-0.3552246,-0.5952148,0.8647461,0.06709921,0.06435877,-0.1528779,-32.38304,17.94481,-38.2243,-32.48434,18.69457,-38.71468,-0.3395996,-0.1760254,-0.2619629,0.32129,-0.2149771,0.4116948,-21.57202,47.27731,-124.4444,-22.31395,47.09689,-124.4055,S_LF
-0.3356934,-0.5927734,0.8771973,0.1587023,0.09489316,0.01506107,-32.37835,17.93907,-38.21626,-32.25695,17.59275,-37.83274,-0.3452148,-0.1704102,-0.2631836,0.04648089,-0.382916,0.2437558,-21.56856,47.28119,-124.439,-21.43317,47.75313,-124.3574,S_LF
-0.3352051,-0.5900879,0.8752441,0.03656495,-0.1188473,0.1066641,-32.37413,17.93089,-38.20615,-32.19464,17.61747,-37.78942,-0.3461914,-0.1726074,-0.2580566,0.0922823,-0.7951298,0.182687,-21.57161,47.28617,-124.4217,-21.78903,48.11448,-123.7071,S_LF
-0.3312988,-0.5900879,0.8874512,0.02129769,-0.3783893,0.1371985,-32.36474,17.91208,-38.18657,-31.92012,17.26873,-37.32747,-0.3439941,-0.1728516,-0.2609863,0.1075497,-0.4439847,0.0147481,-21.57493,47.28787,-124.4157,-21.81674,47.69768,-124.1342,S_LF
-0.3320313,-0.5961914,0.8659668,-0.02450383,-0.2867863,-0.2444809,-32.37249,17.90016,-38.19122,-32.73438,17.52681,-38.23943,-0.3444824,-0.1679688,-0.267334,0.1075497,-0.2607787,0.1368854,-21.56319,47.28817,-124.4234,-21.06715,47.49431,-124.8974,S_LF
-0.3408203,-0.5932617,0.8654785,0.2045038,0.01855725,-0.336084,-32.37263,17.90232,-38.19889,-32.52977,17.99431,-38.32762,-0.3430176,-0.1762695,-0.269043,0.0922823,-0.4287176,0.182687,-21.57098,47.27336,-124.4304,-22.01555,46.8418,-124.9004,S_LF
-0.340332,-0.5952148,0.8720703,0.2961069,0.1406947,-0.09180916,-32.3701,17.90352,-38.19967,-32.44932,17.86592,-38.1753,-0.3449707,-0.1716309,-0.2670898,0.0006792545,-0.4745191,0.3658931,-21.56903,47.26844,-124.431,-21.47441,47.37624,-124.7292,S_LF
-0.3371582,-0.5859375,0.8632813,0.06709921,0.1406947,0.01506107,-32.36775,17.90568,-38.19673,-32.30214,17.90824,-38.06371,-0.3330078,-0.177002,-0.2714844,0.4281602,-0.07757253,0.07581687,-21.57916,47.23749,-124.4563,-22.39014,45.77766,-125.7493,S_LF
-0.3359375,-0.5888672,0.8737793,-0.03977096,0.1254275,-0.1376107,-32.36441,17.90308,-38.19096,-32.17164,17.68338,-37.80733,-0.3466797,-0.168457,-0.2661133,0.6877022,0.05983204,-0.3058627,-21.55905,47.24853,-124.4641,-21.0792,47.74554,-124.6217,S_LF
-0.3374023,-0.5881348,0.8735352,-0.3451145,0.09489316,-0.03074045,-32.36483,17.90172,-38.18397,-32.13127,17.76532,-37.81883,-0.3503418,-0.1779785,-0.2712402,0.3976259,0.319374,-0.168458,-21.55973,47.25226,-124.4696,-21.88504,47.2001,-124.6155,S_LF
-0.3366699,-0.5913086,0.8659668,-0.3451145,0.430771,-0.1070763,-32.37207,17.90602,-38.18504,-32.47369,17.8002,-38.15858,-0.3439941,-0.1755371,-0.2727051,0.2907557,0.4567786,-0.4738016,-21.56045,47.24721,-124.4912,-21.79541,46.6865,-125.2273,S_LF
-0.3369141,-0.5852051,0.864502,-0.5435878,0.6750459,-0.1223435,-32.3769,17.91489,-38.18288,-32.24054,17.88647,-37.99329,-0.3432617,-0.1708984,-0.2644043,0.1686182,0.9147939,-0.3669312,-21.55744,47.2643,-124.4982,-21.52539,47.47411,-124.5877,S_LF
-0.3364258,-0.5837402,0.8664551,-0.6046565,0.9345879,0.183,-32.38026,17.9264,-38.17408,-32.1301,17.84941,-37.86828,-0.3571777,-0.1774902,-0.2578125,0.2144198,0.2888396,-0.4890685,-21.56205,47.29868,-124.473,-21.94578,48.77129,-122.8784,S_LF
-0.3334961,-0.5917969,0.8666992,-0.6046565,0.4155039,-0.06127481,-32.39171,17.92657,-38.17327,-32.50802,17.62896,-38.08841,-0.3479004,-0.1733398,-0.2602539,-0.197794,0.2583054,-0.4738016,-21.56853,47.31726,-124.4661,-21.75031,48.05051,-123.8048,S_LF
-0.3432617,-0.5891113,0.8666992,-0.9405342,0.2780993,-0.04600763,-32.4026,17.93458,-38.17427,-32.29118,18.13633,-38.1917,-0.3491211,-0.1762695,-0.2626953,-0.3199313,0.4567786,-0.5043359,-21.58129,47.33401,-124.462,-21.9712,47.8189,-123.8888,S_LF
-0.3393555,-0.5959473,0.8679199,-0.9405342,0.3239008,0.06086259,-32.42035,17.93796,-38.17617,-32.59865,17.86563,-38.31437,-0.3376465,-0.1696777,-0.2700195,-0.2588627,0.6857863,-0.5959387,-21.58178,47.32944,-124.4919,-21.42831,46.63499,-125.548,S_LF
-0.3344727,-0.5908203,0.859375,-0.8641985,0.262832,-0.01547329,-32.43674,17.93845,-38.17905,-32.64707,17.78213,-38.30955,-0.34375,-0.1743164,-0.2624512,-0.1214581,0.7315878,-0.3821983,-21.59097,47.34347,-124.4927,-21.9522,47.49297,-124.2527,S_LF
-0.3408203,-0.5979004,0.8632813,-0.5893893,0.339168,-0.2444809,-32.45247,17.94429,-38.19031,-32.78978,17.98113,-38.56224,-0.3449707,-0.1765137,-0.2810059,0.2144198,0.8537251,-0.428,-21.58731,47.33723,-124.5311,-21.63902,46.11098,-125.9482,S_LF
-0.3330078,-0.59375,0.8613281,-0.4825191,0.339168,-0.09180916,-32.46861,17.94586,-38.19491,-32.73946,17.65722,-38.32143,-0.3457031,-0.1757813,-0.2648926,0.1991527,0.6705191,-0.1379237,-21.59242,47.34765,-124.529,-21.97956,47.39818,-124.3338,S_LF
-0.3320313,-0.6074219,0.8601074,-0.4672519,0.1559618,-0.1223435,-32.49321,17.93911,-38.20926,-33.37809,17.50154,-38.82843,-0.345459,-0.1704102,-0.2658691,0.07701516,0.6399847,0.091084,-21.58647,47.36148,-124.5294,-21.35145,47.56865,-124.6136,S_LF
-0.3334961,-0.5966797,0.8554688,-0.1924427,0.4155039,-0.09180916,-32.50654,17.94107,-38.21895,-33.01797,17.73149,-38.62627,-0.3452148,-0.1699219,-0.2739258,-0.3351984,-0.1691756,-0.2447939,-21.58105,47.35116,-124.5511,-21.08566,46.96178,-125.448,S_LF
-0.3361816,-0.5893555,0.8664551,0.06709921,0.430771,0.1219313,-32.50309,17.9439,-38.21417,-32.38012,17.78708,-38.06351,-0.3508301,-0.1728516,-0.2668457,-0.4115343,0.1972366,-0.4127328,-21.58373,47.36335,-124.5523,-21.41253,47.81575,-124.3055,S_LF
-0.3381348,-0.5834961,0.8625488,-0.3603816,0.5681756,0.5036107,-32.50239,17.95314,-38.20289,-32.20328,17.98866,-38.02036,-0.3432617,-0.1706543,-0.2675781,-0.2435954,0.3346412,-0.04632068,-21.5836,47.36557,-124.5602,-21.41014,47.2448,-124.9156,S_LF
-0.3381348,-0.5900879,0.8591309,-0.5283206,0.5681756,0.2288015,-32.51126,17.96136,-38.20301,-32.58359,17.97431,-38.36572,-0.3474121,-0.1767578,-0.2626953,-0.2130611,0.3041069,-0.09212208,-21.59683,47.37582,-124.5499,-22.08862,47.65443,-123.9774,S_LF
-0.3352051,-0.5961914,0.8596191,-0.8183969,0.4918396,0.1219313,-32.53045,17.9647,-38.20731,-32.86907,17.76669,-38.50783,-0.3400879,-0.1716309,-0.2770996,-0.3504658,0.4720459,-0.428,-21.59705,47.3591,-124.5854,-21.36742,46.2163,-126.0324,S_LF
-0.3366699,-0.5917969,0.8605957,-0.574122,0.59871,0.09139694,-32.54043,17.97095,-38.2089,-32.63548,17.86651,-38.34926,-0.3461914,-0.1745605,-0.2641602,-0.2130611,0.8231909,-0.3974657,-21.60512,47.3751,-124.5849,-21.84392,47.55403,-124.2679,S_LF
-0.3369141,-0.5942383,0.8649902,-0.6351909,0.7666489,0.01506107,-32.55146,17.97878,-38.21048,-32.6251,17.79878,-38.29899,-0.3469238,-0.1694336,-0.2714844,-0.2283282,0.6094504,-0.1837251,-21.59691,47.38217,-124.598,-21.03773,47.31018,-125.1136,S_LF
-0.3303223,-0.5930176,0.871582,-0.6962595,0.5223741,-0.07654199,-32.5593,17.97433,-38.20557,-32.46583,17.39792,-37.91234,-0.3439941,-0.1733398,-0.2641602,-0.07565641,0.5636489,-0.1226563,-21.60177,47.39147,-124.5966,-21.78456,47.43289,-124.4413,S_LF
-0.3408203,-0.5947266,0.859375,-0.3451145,0.4765725,-0.04600763,-32.56825,17.98308,-38.21368,-32.75323,18.06187,-38.57686,-0.345459,-0.1782227,-0.267334,0.04648089,0.7773893,-0.2447939,-21.61301,47.39581,-124.5984,-22.19559,47.07552,-124.5172,S_LF
-0.3327637,-0.5966797,0.861084,-0.3756489,0.2780993,0.07612977,-32.57958,17.97967,-38.21694,-32.87681,17.62193,-38.42902,-0.3432617,-0.1716309,-0.2727051,-0.1061909,0.7773893,-0.168458,-21.60991,47.39555,-124.6168,-21.37992,46.81109,-125.3968,S_LF
-0.3325195,-0.5786133,0.8625488,-0.4977863,0.5376411,0.09139694,-32.57616,17.98303,-38.20584,-32.04317,17.75233,-37.72916,-0.3349609,-0.1772461,-0.2692871,-0.3199313,0.838458,-0.0005190372,-21.63065,47.38189,-124.6324,-22.41161,46.09606,-125.397,S_LF
-0.3364258,-0.6003418,0.8676758,-0.3145801,0.6597786,0.1219313,-32.58579,17.98677,-38.20832,-32.82616,17.68497,-38.41903,-0.3388672,-0.1750488,-0.2641602,-0.2588627,0.6705191,-0.1837251,-21.64491,47.38183,-124.6364,-22.16639,46.91902,-124.7061,S_LF
-0.3486328,-0.6022949,0.8684082,-0.3451145,0.7971831,0.3204046,-32.59414,18.00311,-38.21391,-32.7666,18.25695,-38.70777,-0.3417969,-0.1757813,-0.262207,-0.381,0.6247175,-0.1379237,-21.66157,47.38887,-124.6318,-22.19775,47.27508,-124.3022,S_LF
-0.3381348,-0.5871582,0.8662109,-0.1924427,0.5681756,0.3356718,-32.59049,18.00954,-38.20536,-32.27003,17.90683,-38.03299,-0.3444824,-0.1704102,-0.2792969,-0.3657329,0.5178473,-0.0310533,-21.65375,47.37772,-124.6597,-21.01959,46.4757,-126.0065,S_LF
-0.3317871,-0.5952148,0.8676758,-0.3756489,0.4918396,0.3662061,-32.59682,18.00612,-38.19912,-32.64935,17.50134,-38.14485,-0.3452148,-0.1738281,-0.2668457,-0.5336719,0.7621221,-0.4127328,-21.66295,47.38752,-124.665,-21.72189,47.30767,-124.6212,S_LF
-0.3364258,-0.5935059,0.8708496,-0.4061831,0.09489316,0.3662061,-32.59977,18.00149,-38.19127,-32.44554,17.70469,-38.07522,-0.3442383,-0.1743164,-0.2658691,-0.5642061,0.9911298,-0.6112061,-21.67422,47.39889,-124.6714,-21.83935,47.27617,-124.5682,S_LF
-0.3354492,-0.5837402,0.859375,-0.6657251,0.3544351,0.3967404,-32.60339,18.00422,-38.18352,-32.32415,17.89496,-38.0762,-0.3354492,-0.1811523,-0.2709961,-0.4115343,0.9758626,-0.168458,-21.70251,47.38168,-124.6886,-22.78613,45.82127,-125.4064,S_LF
-0.3337402,-0.5881348,0.8630371,-0.4519846,0.3544351,0.09139694,-32.60677,18.00378,-38.18011,-32.44012,17.72166,-38.0803,-0.340332,-0.171875,-0.2644043,-0.2283282,0.6705191,-0.0310533,-21.70644,47.38687,-124.6901,-21.74257,47.18124,-124.7406,S_LF
-0.3400879,-0.5961914,0.8605957,-0.2840458,0.59871,0.2440687,-32.61439,18.01184,-38.18465,-32.79299,17.99598,-38.57419,-0.3449707,-0.1743164,-0.2668457,0.03121376,0.9300611,-0.2753282,-21.70758,47.39808,-124.6927,-21.78594,47.26355,-124.621,S_LF
-0.3427734,-0.5991211,0.8601074,-0.299313,0.4918396,0.0,-32.62462,18.021,-38.1959,-32.90583,18.10828,-38.74744,-0.3415527,-0.1616211,-0.2685547,0.03121376,0.0,0.1216183,-21.68108,47.39927,-124.7053,-20.40422,47.4579,-125.4022,S_LF
-0.3398438,-0.5942383,0.864502,-0.3298473,0.2170305,0.0,-32.62881,18.02255,-38.19946,-32.60793,17.95011,-38.37383,-0.3398438,-0.1716309,-0.2685547,-0.1367252,0.6857863,-0.168458,-21.68178,47.39812,-124.7176,-21.61558,46.83767,-125.1983,S_LF
-0.3444824,-0.5864258,0.8530273,-0.07030535,0.04909158,0.2593359,-32.62757,18.03095,-38.20297,-32.51539,18.40655,-38.56541,-0.3435059,-0.1696777,-0.2692871,-0.4878702,0.227771,-0.2295268,-21.67971,47.39693,-124.7284,-21.2433,47.18238,-125.102,S_LF
-0.3413086,-0.5910645,0.8588867,-0.05503809,-0.1951832,0.3356718,-32.62778,18.03018,-38.20377,-32.60012,18.1263,-38.47309,-0.3474121,-0.1704102,-0.2661133,-0.640542,0.1056336,0.04528236,-21.68105,47.40476,-124.7235,-21.27603,47.7109,-124.5167,S_LF
-0.3369141,-0.5947266,0.8625488,-0.222977,-0.5921298,0.4120076,-32.63271,18.0174,-38.20154,-32.71035,17.82637,-38.39512,-0.3464355,-0.1708984,-0.2687988,-0.8084807,0.1819695,0.06054974,-21.68438,47.40723,-124.7249,-21.29316,47.40335,-124.8317,S_LF
-0.345459,-0.5957031,0.8664551,-0.1466411,-0.2562519,0.3051374,-32.63334,18.01729,-38.20285,-32.56348,18.18773,-38.47631,-0.3466797,-0.1772461,-0.277832,-0.6558094,0.1361679,-0.07685494,-21.69533,47.3901,-124.7417,-21.74996,46.45058,-125.51,S_LF
-0.3442383,-0.5871582,0.8752441,0.05183208,-0.1341145,0.1677328,-32.61943,18.01674,-38.19373,-31.97653,18.08796,-37.8702,-0.329834,-0.1721191,-0.2719727,-0.5031376,-0.06230533,0.2437558,-21.70743,47.3554,-124.7666,-21.93041,45.70098,-126.1678,S_LF
-0.3378906,-0.583252,0.8652344,0.1434351,-0.1493817,-0.01547329,-32.60744,18.01306,-38.18849,-32.12533,17.94283,-37.92022,-0.3461914,-0.1738281,-0.2634277,-0.5031376,0.1361679,0.182687,-21.71581,47.36308,-124.7531,-21.78097,47.64561,-124.2165,S_LF
-0.3352051,-0.5900879,0.864502,-0.03977096,-0.07304579,0.0,-32.6053,18.00695,-38.18737,-32.47306,17.75774,-38.13258,-0.3493652,-0.1599121,-0.2658691,-0.2130611,0.3651755,-0.09212208,-21.6849,47.38905,-124.7531,-20.01386,48.39319,-124.6818,S_LF
-0.3352051,-0.5876465,0.8615723,-0.1619084,0.09489316,0.2593359,-32.60442,18.00457,-38.18261,-32.44202,17.81829,-38.1399,-0.3449707,-0.1733398,-0.2634277,-0.2588627,0.6552519,-0.2905953,-21.6904,47.40229,-124.7484,-21.76954,47.56913,-124.3068,S_LF
-0.3295898,-0.5871582,0.8684082,-0.4825191,0.430771,0.2746031,-32.60539,17.99989,-38.1707,-32.29839,17.4537,-37.78894,-0.3408203,-0.1762695,-0.2668457,-0.07565641,0.838458,-0.6417403,-21.70077,47.40218,-124.7586,-22.15731,46.82171,-124.8165,S_LF
-0.3447266,-0.5908203,0.8659668,-0.5283206,0.7208474,0.3814733,-32.60793,18.01384,-38.16816,-32.37008,18.20284,-38.30556,-0.340332,-0.1706543,-0.2741699,-0.3504658,0.0,-0.3821983,-21.69851,47.38417,-124.7842,-21.32998,46.5018,-125.7589,S_LF
-0.3408203,-0.5935059,0.8632813,-0.5283206,0.9193206,0.4272748,-32.61549,18.0275,-38.16666,-32.59764,18.0212,-38.40712,-0.3439941,-0.1723633,-0.2609863,-0.4878702,0.0,-0.6264734,-21.70645,47.39093,-124.7801,-21.76088,47.72224,-124.1493,S_LF
-0.3425293,-0.5883789,0.8659668,-0.6046565,0.858252,0.183,-32.61718,18.04106,-38.1643,-32.28539,18.1166,-38.1743,-0.3439941,-0.1757813,-0.2609863,-0.3199313,0.746855,-0.7028093,-21.71973,47.40435,-124.775,-22.15101,47.54978,-124.0429,S_LF
-0.3383789,-0.5910645,0.8664551,-0.574122,0.5681756,0.2898702,-32.62137,18.04564,-38.16042,-32.43296,17.88057,-38.16886,-0.345459,-0.1743164,-0.2602539,-0.4726033,0.5941832,-0.5501375,-21.7313,47.42101,-124.7661,-21.95065,47.80042,-123.9241,S_LF
-0.3354492,-0.5932617,0.8701172,-0.4519846,0.339168,0.3051374,-32.62486,18.04308,-38.15413,-32.46365,17.66817,-38.07034,-0.3435059,-0.1757813,-0.2651367,-0.7932138,0.2430381,-0.3058627,-21.7486,47.41988,-124.7648,-22.05252,47.19784,-124.4935,S_LF
-0.3439941,-0.5932617,0.8540039,-0.6962595,0.2017633,0.07612977,-32.63785,18.05108,-38.16531,-32.79661,18.30484,-38.76498,-0.3413086,-0.1723633,-0.2600098,-0.8237481,0.2125039,-0.3516641,-21.76266,47.42586,-124.7587,-21.88624,47.57304,-124.2161,S_LF
-0.342041,-0.5925293,0.8623047,-0.5893893,0.5071069,0.2746031,-32.64453,18.05909,-38.16681,-32.56768,18.10349,-38.42903,-0.3452148,-0.168457,-0.2668457,-0.7168779,0.7163206,-0.168458,-21.76016,47.43925,-124.7617,-21.11063,47.56874,-124.7872,S_LF
-0.338623,-0.5915527,0.8630371,-0.3451145,0.6445115,0.06086259,-32.64753,18.06605,-38.16861,-32.54088,17.9334,-38.30124,-0.3398438,-0.1696777,-0.2692871,-0.289397,0.7773893,-0.06158781,-21.75636,47.43865,-124.774,-21.37154,46.8761,-125.3341,S_LF
-0.3425293,-0.5935059,0.8583984,-0.3603816,0.3697023,0.0,-32.65368,18.07322,-38.17724,-32.70747,18.17085,-38.60022,-0.3417969,-0.1779785,-0.2683105,0.03121376,0.8537251,0.1216183,-21.76624,47.43664,-124.7737,-22.27348,46.71062,-124.848,S_LF
-0.3413086,-0.5974121,0.8642578,0.219771,0.2322977,0.03032825,-32.65213,18.07511,-38.18372,-32.73794,17.99681,-38.52328,-0.3388672,-0.1743164,-0.2653809,0.04648089,0.746855,-0.2295268,-21.77123,47.43543,-124.7785,-22.04771,46.86354,-124.8535,S_LF
-0.3422852,-0.595459,0.8740234,0.219771,-0.05777865,0.1677328,-32.64387,18.07149,-38.18096,-32.38997,17.93405,-38.16103,-0.3452148,-0.1848145,-0.2600098,-0.2283282,0.4720459,-0.0005190372,-21.80223,47.43886,-124.7546,-23.15322,47.26008,-123.5847,S_LF
-0.3381348,-0.5900879,0.8669434,0.08236647,0.1864962,-0.07654199,-32.63738,18.07022,-38.18074,-32.37989,17.87082,-38.11357,-0.342041,-0.1765137,-0.2685547,-0.4878702,0.3041069,0.1216183,-21.8152,47.43025,-124.7558,-22.09213,46.78468,-124.9044,S_LF
-0.3435059,-0.5888672,0.8442383,-0.299313,0.4918396,0.3356718,-32.64635,18.08515,-38.19062,-32.86569,18.45492,-38.92134,-0.3378906,-0.1694336,-0.2724609,-0.2741299,0.227771,-0.1379237,-21.80939,47.41463,-124.7784,-21.32314,46.4821,-125.7845,S_LF
-0.3391113,-0.5869141,0.8654785,-0.4519846,0.6292443,0.4578092,-32.64543,18.09204,-38.18143,-32.26835,17.96717,-38.06786,-0.3430176,-0.1738281,-0.2634277,0.0,0.1972366,-0.168458,-21.81112,47.41671,-124.7734,-21.89598,47.38278,-124.4124,S_LF
-0.3439941,-0.5961914,0.8620605,-0.2687786,0.2170305,0.3051374,-32.65049,18.09657,-38.18573,-32.71414,18.16961,-38.60569,-0.3422852,-0.1691895,-0.2766113,-0.3504658,0.1209008,-0.2142596,-21.80029,47.40103,-124.7993,-21.02921,46.54982,-125.9218,S_LF
-0.3430176,-0.5983887,0.8603516,-0.4367175,0.2322977,0.1677328,-32.66077,18.1003,-38.19409,-32.86494,18.12386,-38.71867,-0.338623,-0.1711426,-0.2717285,0.0,0.2430381,-0.2753282,-21.79456,47.38695,-124.8195,-21.51362,46.51858,-125.6094,S_LF
-0.3347168,-0.592041,0.8623047,-0.299313,0.2170305,0.3204046,-32.66439,18.09638,-38.19076,-32.62135,17.74477,-38.26321,-0.3452148,-0.1584473,-0.265625,-0.2435954,0.227771,-0.3821983,-21.7618,47.40517,-124.8277,-19.98944,48.14145,-124.9653,S_LF
-0.3439941,-0.5932617,0.8535156,-0.4061831,0.2170305,0.01506107,-32.67286,18.10366,-38.20236,-32.80945,18.31143,-38.78099,-0.3400879,-0.1738281,-0.2653809,0.06174803,0.3041069,-0.04632068,-21.76466,47.40104,-124.8276,-21.94748,46.99044,-124.7927,S_LF
-0.3381348,-0.5788574,0.8513184,-0.2840458,-0.04251146,-0.2597481,-32.6691,18.10466,-38.20626,-32.2901,18.18295,-38.2191,-0.3408203,-0.1696777,-0.2668457,0.06174803,0.2430381,-0.3058627,-21.75656,47.39948,-124.8361,-21.40493,47.14392,-125.0264,S_LF
-0.3400879,-0.6091309,0.862793,-0.222977,-0.1493817,-0.1070763,-32.68495,18.09735,-38.22287,-33.29753,17.84894,-38.95838,-0.3457031,-0.1745605,-0.2648926,0.04648089,-0.001236677,-0.2142596,-21.75757,47.40064,-124.8299,-21.84132,47.4587,-124.3718,S_LF
-0.3317871,-0.6018066,0.8659668,-0.390916,-0.2409847,-0.1834122,-32.69663,18.08116,-38.2298,-32.98163,17.46489,-38.43454,-0.34375,-0.1713867,-0.2651367,-0.197794,-0.01650381,0.3200917,-21.7562,47.40109,-124.821,-21.54359,47.43501,-124.6161,S_LF
-0.3405762,-0.5974121,0.8662109,-0.02450383,-0.3936565,-0.03074045,-32.69695,18.07245,-38.23457,-32.69455,17.93499,-38.44556,-0.3391113,-0.1696777,-0.2697754,-0.2283282,-0.3218473,0.1216183,-21.75367,47.38168,-124.8305,-21.38365,46.77732,-125.4298,S_LF
-0.3398438,-0.5974121,0.871582,0.2503054,-0.3783893,0.1371985,-32.68886,18.05942,-38.23209,-32.56254,17.82867,-38.25851,-0.3469238,-0.1730957,-0.2678223,-0.3657329,-0.6271908,0.4116948,-21.755,47.37304,-124.8206,-21.55143,47.41098,-124.636,S_LF
-0.3383789,-0.5900879,0.8620605,0.2808397,-0.3020534,0.2898702,-32.68104,18.05274,-38.22871,-32.50446,17.94752,-38.27581,-0.3427734,-0.1721191,-0.2670898,-0.4268017,-0.4592519,0.4269619,-21.75792,47.36268,-124.8153,-21.60798,47.17001,-124.8512,S_LF
-0.3405762,-0.588623,0.8447266,-0.1161069,-0.179916,0.3356718,-32.68648,18.05529,-38.23624,-32.87341,18.30373,-38.83596,-0.3435059,-0.1708984,-0.2636719,-0.2283282,-0.5661222,0.1216183,-21.75663,47.35867,-124.8073,-21.53681,47.55019,-124.4983,S_LF
-0.3457031,-0.6064453,0.8579102,0.1129008,-0.3325878,0.2135344,-32.69622,18.0539,-38.25127,-33.25111,18.21375,-39.13435,-0.3439941,-0.1745605,-0.2685547,0.07701516,-0.6119237,0.091084,-21.75639,47.34335,-124.8068,-21.80102,47.04264,-124.8452,S_LF
-0.3330078,-0.5878906,0.8554688,-0.07030535,-0.2715191,0.1677328,-32.69604,18.04457,-38.24982,-32.63569,17.78712,-38.30192,-0.3444824,-0.1696777,-0.2612305,0.06174803,-0.5661222,0.04528236,-21.74898,47.34629,-124.7945,-21.42864,47.87843,-124.2267,S_LF
-0.3427734,-0.595459,0.8642578,0.1739695,0.03382444,0.01506107,-32.69249,18.04588,-38.2543,-32.63755,18.08689,-38.48409,-0.3405762,-0.1782227,-0.2773438,0.5044961,-0.291313,0.1216183,-21.74831,47.31372,-124.8131,-22.08601,45.93216,-125.8111,S_LF
-0.3430176,-0.5966797,0.8583984,0.0976336,-0.5157939,0.1219313,-32.69403,18.04069,-38.26186,-32.84144,18.16564,-38.72206,-0.3371582,-0.1733398,-0.2646484,0.32129,-0.3218473,0.2742901,-21.749,47.29917,-124.8112,-22.01912,46.82256,-124.9182,S_LF
-0.3413086,-0.592041,0.8596191,0.1434351,-0.3325878,-0.0002061129,-32.69053,18.03714,-38.26631,-32.62391,18.10752,-38.48388,-0.338623,-0.1723633,-0.267334,-0.02985501,-0.7645955,0.3811603,-21.74998,47.27852,-124.8123,-21.77745,46.79151,-125.1291,S_LF
-0.338623,-0.588623,0.8601074,0.1892367,-0.3325878,0.2593359,-32.68389,18.03181,-38.26326,-32.48843,17.99896,-38.29192,-0.342041,-0.1748047,-0.2614746,0.04648089,-0.993603,0.3048244,-21.75625,47.26634,-124.7964,-22.09797,47.39985,-124.2435,S_LF
-0.34375,-0.6018066,0.8664551,0.2045038,-0.8974732,0.3662061,-32.68414,18.01894,-38.26573,-32.84668,18.04796,-38.6557,-0.3486328,-0.1745605,-0.2739258,0.1228168,-1.39055,0.3658931,-21.74912,47.24108,-124.7969,-21.49005,47.02527,-125.0906,S_LF
-0.3320313,-0.597168,0.864502,0.1587023,0.0,-0.0002061129,-32.68444,18.00931,-38.26685,-32.81554,17.53701,-38.32142,-0.3447266,-0.1782227,-0.2624512,-0.04512215,-1.253145,0.5032978,-21.76196,47.22661,-124.7755,-22.3598,47.37732,-124.0703,S_LF
-0.3361816,-0.5957031,0.8632813,0.7846565,0.0,-0.1986794,-32.67481,18.00455,-38.27206,-32.74139,17.77167,-38.39142,-0.338623,-0.175293,-0.2717285,0.2602212,-1.085206,0.6865039,-21.76261,47.19254,-124.7794,-21.98612,46.32049,-125.4748,S_LF
-0.3369141,-0.5930176,0.8745117,0.738855,-0.5310611,-0.2444809,-32.65694,17.99036,-38.26923,-32.32468,17.68545,-37.95108,-0.3425293,-0.1726074,-0.2709961,-0.1061909,-0.8409313,0.7933741,-21.76009,47.17379,-124.7778,-21.56361,46.8319,-125.2422,S_LF
-0.3395996,-0.5827637,0.8640137,0.7999237,0.1101603,-0.09180916,-32.63519,17.99304,-38.26466,-32.11798,18.04851,-37.97742,-0.34375,-0.1723633,-0.269043,0.1838853,-0.4745191,0.3964274,-21.75313,47.16518,-124.7759,-21.54704,47.09212,-124.9783,S_LF
-0.342041,-0.5910645,0.869873,0.4182443,-0.2257175,-0.168145,-32.62248,17.99018,-38.26451,-32.30742,18.01619,-38.13384,-0.3466797,-0.1733398,-0.2734375,0.3976259,-0.2760458,0.1521528,-21.74129,47.15726,-124.7824,-21.43412,46.95874,-125.2016,S_LF
-0.3400879,-0.5927734,0.875,0.2045038,-0.2715191,-0.03074045,-32.61262,17.9834,-38.25946,-32.26986,17.83731,-37.99099,-0.3466797,-0.1738281,-0.2626953,0.5197632,-0.09283972,-0.1226563,-21.73449,47.16758,-124.7708,-21.78342,47.74109,-124.1124,S_LF
-0.340332,-0.5847168,0.8691406,-0.02450383,0.1406947,-0.01547329,-32.60202,17.98577,-38.25246,-32.06464,17.99862,-37.89763,-0.3432617,-0.168457,-0.265625,0.1838853,0.227771,-0.07685494,-21.72134,47.17758,-124.7722,-21.21221,47.50027,-124.787,S_LF
-0.3400879,-0.5900879,0.8647461,-0.1466411,0.3697023,0.1066641,-32.60048,17.99142,-38.25032,-32.41707,17.99659,-38.22402,-0.3427734,-0.1743164,-0.2600098,0.1075497,-0.001236677,0.1063511,-21.72657,47.18594,-124.7566,-22.05628,47.59631,-124.0641,S_LF
-0.3400879,-0.5927734,0.8696289,-0.558855,0.7208474,-0.1070763,-32.6043,17.99964,-38.25003,-32.40827,17.9078,-38.16225,-0.3410645,-0.1662598,-0.2658691,0.0006792545,-0.09283972,0.182687,-21.71263,47.18895,-124.7592,-21.02984,47.40462,-125.0192,S_LF
-0.3417969,-0.5913086,0.8647461,-0.2382443,0.3849695,0.1677328,-32.60478,18.00671,-38.2486,-32.45317,18.07004,-38.3021,-0.34375,-0.1694336,-0.2619629,0.3365571,-0.3676488,-0.01578617,-21.70189,47.1956,-124.7513,-21.40689,47.77369,-124.3546,S_LF
-0.3388672,-0.598877,0.8664551,0.08236647,-0.01197708,-0.1834122,-32.60695,18.0031,-38.25525,-32.76948,17.83432,-38.45512,-0.3286133,-0.1765137,-0.2661133,0.3060229,-0.3523817,-0.3058627,-21.71651,47.16292,-124.7708,-22.65746,45.82059,-125.5042,S_LF
-0.3369141,-0.5869141,0.8676758,0.2045038,-0.1493817,-0.1070763,-32.59647,17.99742,-38.25076,-32.23364,17.82912,-37.95236,-0.3435059,-0.1733398,-0.2685547,-0.06038928,-0.6729923,0.1521528,-21.71667,47.151,-124.7715,-21.68007,47.06132,-124.914,S_LF
-0.3371582,-0.59375,0.8642578,0.2503054,-0.2257175,-0.1223435,-32.59327,17.99065,-38.25375,-32.62036,17.82487,-38.31018,-0.3305664,-0.1699219,-0.2670898,-0.2130611,-0.4287176,0.4574962,-21.72112,47.1269,-124.7838,-21.79309,46.23989,-125.7009,S_LF
-0.3359375,-0.5900879,0.8671875,0.1434351,0.1864962,0.04559542,-32.58736,17.98857,-38.24928,-32.39573,17.75881,-38.06113,-0.3442383,-0.1662598,-0.2678223,-0.1825268,-0.4897862,0.1674199,-21.70671,47.12753,-124.7859,-20.86668,47.51851,-125.0144,S_LF
-0.3435059,-0.5981445,0.8588867,-0.05503809,0.01855725,-0.1834122,-32.59417,17.99247,-38.26234,-32.88755,18.1697,-38.76759,-0.3432617,-0.1706543,-0.2595215,0.2907557,0.04456491,0.350626,-21.70123,47.14278,-124.7674,-21.63181,47.85938,-124.0979,S_LF
-0.3374023,-0.5893555,0.8583984,0.1587023,-0.1951832,-0.3208168,-32.59167,17.98903,-38.26846,-32.57805,17.95429,-38.34848,-0.3564453,-0.1733398,-0.2583008,0.9625113,0.01403052,0.4269619,-21.68292,47.1779,-124.7276,-21.49347,48.88857,-123.0917,S_LF
-0.340332,-0.6003418,0.8586426,0.5556489,0.003290057,-0.427687,-32.59212,17.98921,-38.28516,-33.02309,17.99571,-38.78915,-0.3388672,-0.1750488,-0.2631836,0.9930458,-0.1997099,0.3048244,-21.67855,47.17126,-124.7207,-22.19436,46.99249,-124.6068,S_LF
-0.3427734,-0.5959473,0.8647461,0.7999237,0.2780993,-0.4124198,-32.58145,17.99503,-38.29523,-32.64618,18.07595,-38.48551,-0.3317871,-0.1772461,-0.2636719,0.6877022,-0.5203207,0.7170382,-21.68947,47.14553,-124.717,-22.69622,46.24171,-125.0285,S_LF
-0.3464355,-0.5922852,0.862793,0.8304581,0.2475649,-0.4124198,-32.5684,18.00485,-38.30488,-32.49873,18.31632,-38.49456,-0.3427734,-0.1875,-0.2692871,0.3670917,-0.993603,0.4727633,-21.71578,47.11301,-124.7072,-23.27467,46.25003,-124.576,S_LF
-0.3391113,-0.5947266,0.8669434,0.5098474,0.07962596,-0.06127481,-32.561,18.00348,-38.30564,-32.57321,17.87738,-38.29769,-0.345459,-0.1740723,-0.2553711,0.3670917,0.0,0.4116948,-21.71722,47.13442,-124.6757,-22.05759,48.18342,-123.4308,S_LF
-0.3366699,-0.5898438,0.8566895,0.3724428,-0.2257175,-0.1376107,-32.55734,17.99881,-38.30968,-32.65206,17.93606,-38.40654,-0.348877,-0.1733398,-0.2614746,0.3060229,0.0,0.3353589,-21.71231,47.15249,-124.6549,-21.68182,48.03789,-123.8693,S_LF
-0.3308105,-0.5983887,0.8620605,0.3419085,-0.08831299,-0.2597481,-32.56042,17.98756,-38.31544,-32.94563,17.49699,-38.41968,-0.3479004,-0.1726074,-0.2739258,0.229687,-0.9172672,0.1368854,-21.70084,47.13801,-124.6639,-21.29637,47.05729,-125.1964,S_LF
-0.3288574,-0.5935059,0.8657227,0.2503054,0.1406947,-0.1986794,-32.55887,17.97766,-38.31363,-32.655,17.39617,-38.08819,-0.3430176,-0.1694336,-0.2614746,0.2754886,-0.5203207,0.1521528,-21.69171,47.1426,-124.6554,-21.44654,47.75035,-124.3506,S_LF
-0.3364258,-0.5898438,0.8618164,0.2503054,0.2017633,-0.0002061129,-32.55442,17.9782,-38.31206,-32.52007,17.85595,-38.23526,-0.3459473,-0.1687012,-0.2658691,0.2144198,-0.2760458,0.3048244,-21.67772,47.14981,-124.6508,-21.13924,47.69207,-124.6355,S_LF
-0.3361816,-0.5922852,0.8613281,0.3419085,0.2933664,-0.1376107,-32.55149,17.97922,-38.31437,-32.64274,17.82817,-38.33305,-0.3415527,-0.1762695,-0.267334,0.2907557,-0.1539084,-0.0005190372,-21.68222,47.14148,-124.6542,-22.1168,46.84667,-124.8201,S_LF
-0.3354492,-0.5930176,0.8664551,-0.05503809,0.4002366,-0.2292137,-32.55223,17.97988,-38.31503,-32.54825,17.71805,-38.17902,-0.3452148,-0.1745605,-0.2636719,0.5197632,0.04456491,-0.0310533,-21.6793,47.14947,-124.6471,-21.89276,47.51014,-124.2786,S_LF
-0.3395996,-0.5949707,0.8608398,-0.2382443,0.3544351,-0.3971527,-32.55922,17.98474,-38.32445,-32.7382,17.97973,-38.51324,-0.3400879,-0.1745605,-0.2736816,0.4434273,-0.031771,-0.06158781,-21.67511,47.13269,-124.6671,-21.79543,46.33374,-125.6002,S_LF
-0.3400879,-0.5942383,0.8625488,-0.3145801,0.2170305,-0.4429542,-32.56579,17.988,-38.33331,-32.65638,17.98799,-38.44185,-0.3400879,-0.173584,-0.2678223,0.3670917,-0.1691756,-0.1073892,-21.67322,47.12392,-124.6762,-21.8505,46.81866,-125.0468,S_LF
-0.3395996,-0.5932617,0.8718262,-0.3603816,0.3697023,-0.2139466,-32.56733,17.99068,-38.33177,-32.37778,17.85052,-38.0994,-0.3410645,-0.1730957,-0.2575684,0.32129,-0.2607787,-0.06158781,-21.67631,47.13189,-124.6627,-22.04803,47.70153,-123.9573,S_LF
-0.3352051,-0.5952148,0.8696289,-0.1161069,0.262832,-0.03074045,-32.56886,17.98738,-38.32857,-32.56414,17.64513,-38.15042,-0.3422852,-0.1728516,-0.270752,0.03121376,-0.123374,-0.07685494,-21.67446,47.12381,-124.6751,-21.60671,46.81815,-125.2254,S_LF
-0.3393555,-0.59375,0.8696289,0.02129769,0.04909158,-0.06127481,-32.56633,17.98561,-38.32653,-32.45837,17.86295,-38.18194,-0.3417969,-0.1723633,-0.263916,-0.197794,-0.123374,-0.07685494,-21.67906,47.12585,-124.6744,-21.75924,47.31681,-124.5839,S_LF
-0.3408203,-0.592041,0.8696289,-0.02450383,0.2322977,0.04559542,-32.56274,17.98832,-38.32236,-32.36882,17.95048,-38.15125,-0.345459,-0.1677246,-0.2636719,0.0006792545,-0.1386412,-0.0005190372,-21.66755,47.13866,-124.6704,-21.10366,47.86797,-124.4737,S_LF
-0.3413086,-0.5869141,0.8696289,-0.2535114,0.3697023,0.0,-32.55799,17.9944,-38.31551,-32.13898,18.02065,-37.98001,-0.340332,-0.1721191,-0.2692871,0.01594663,-0.031771,0.091084,-21.66663,47.13141,-124.6802,-21.63343,46.79988,-125.2254,S_LF
-0.3388672,-0.5842285,0.8723145,-0.1008396,0.04909158,0.01506107,-32.54784,17.993,-38.30396,-31.9763,17.88834,-37.74892,-0.3452148,-0.1750488,-0.2670898,0.2602212,-0.07757253,-0.1073892,-21.66654,47.13224,-124.6803,-21.85332,47.22957,-124.6075,S_LF
-0.3254395,-0.5952148,0.8664551,-0.3298473,0.339168,-0.2597481,-32.55663,17.98216,-38.30287,-32.7446,17.2019,-38.05848,-0.3591309,-0.1704102,-0.265625,0.489229,0.1972366,0.1216183,-21.64365,47.16634,-124.6599,-20.88164,48.69238,-123.7517,S_LF
-0.3342285,-0.5925293,0.8696289,-0.2687786,0.2170305,-0.2750153,-32.55857,17.97812,-38.30156,-32.45649,17.62066,-38.03538,-0.3410645,-0.1779785,-0.279541,0.840374,0.6094504,-0.1989923,-21.63882,47.14786,-124.6895,-21.97865,45.82422,-126.0033,S_LF
-0.3349609,-0.5864258,0.8647461,-0.05503809,-0.1035802,-0.3818855,-32.55431,17.97264,-38.30055,-32.30782,17.77519,-37.98904,-0.3422852,-0.1733398,-0.2680664,0.4434273,0.09036642,-0.0310533,-21.63427,47.14616,-124.695,-21.73716,46.99628,-124.9413,S_LF
-0.3425293,-0.5874023,0.8659668,0.2045038,0.2780993,-0.2444809,-32.54507,17.97979,-38.30093,-32.24243,18.12548,-38.13979,-0.3508301,-0.1699219,-0.2675781,0.4281602,-0.01650381,0.07581687,-21.61654,47.16104,-124.6893,-21.06237,47.90242,-124.4667,S_LF
-0.3347168,-0.5922852,0.8654785,0.2045038,0.03382444,0.0,-32.54214,17.97471,-38.2983,-32.54902,17.70106,-38.1696,-0.342041,-0.1733398,-0.263916,0.07701516,-0.5966565,0.5032978,-21.62032,47.15482,-124.6789,-21.86206,47.28877,-124.5379,S_LF
-0.3381348,-0.59375,0.8679199,0.1434351,-0.5768626,0.1677328,-32.53949,17.96324,-38.29411,-32.51504,17.82513,-38.21208,-0.3505859,-0.1711426,-0.2788086,-0.06038928,-0.9783359,0.3048244,-21.60695,47.13792,-124.6922,-20.91041,46.9809,-125.5518,S_LF
-0.3369141,-0.597168,0.8557129,0.3266413,-0.179916,0.1371985,-32.54417,17.95938,-38.30042,-32.99739,17.89396,-38.704,-0.3583984,-0.1738281,-0.2683105,0.06174803,0.0,0.3811603,-21.59829,47.16049,-124.672,-21.21943,48.26646,-123.9639,S_LF
-0.3295898,-0.5949707,0.8444824,0.738855,-0.1035802,0.07612977,-32.54798,17.95258,-38.31027,-33.27782,17.69544,-38.8486,-0.3459473,-0.1853027,-0.2705078,-0.07565641,-0.993603,0.7628398,-21.62491,47.13435,-124.6597,-22.87762,46.53506,-124.5777,S_LF
-0.3388672,-0.5915527,0.8764648,0.7999237,-0.1646488,0.09139694,-32.52987,17.94665,-38.30035,-32.19113,17.76897,-37.87671,-0.3415527,-0.1750488,-0.2687988,-0.09092379,-0.8561985,0.6407022,-21.6332,47.1083,-124.6522,-21.93688,46.79706,-125.0061,S_LF
-0.3400879,-0.5878906,0.8662109,0.7235878,0.2170305,0.09139694,-32.50861,17.95255,-38.29426,-32.28247,17.99699,-38.09903,-0.3408203,-0.1760254,-0.2692871,0.2449541,-0.2607787,0.3811603,-21.63814,47.09534,-124.6549,-22.06008,46.65177,-125.0694,S_LF
-0.3381348,-0.5905762,0.8632813,0.1892367,0.03382444,0.07612977,-32.50559,17.95229,-38.29223,-32.49659,17.91481,-38.24876,-0.3459473,-0.1740723,-0.2612305,0.32129,-0.1386412,-0.1073892,-21.63821,47.10698,-124.6434,-21.87804,47.77919,-124.0012,S_LF
-0.3405762,-0.5944824,0.8676758,0.00603056,0.06435877,0.1677328,-32.50596,17.95304,-38.28982,-32.52861,17.94221,-38.29511,-0.3474121,-0.1772461,-0.2727051,0.1838853,-0.123374,-0.1837251,-21.64025,47.10089,-124.6523,-21.86649,46.88748,-124.9619,S_LF
-0.3344727,-0.5917969,0.8679199,-0.299313,0.5529084,-0.07654199,-32.50927,17.95479,-38.28645,-32.4664,17.66146,-38.06891,-0.359375,-0.1733398,-0.2641602,-0.02985501,0.05983204,-0.2905953,-21.63265,47.13333,-124.6336,-21.2381,48.67878,-123.5071,S_LF
-0.3422852,-0.5876465,0.8666992,-0.4061831,0.5223741,0.06086259,-32.50979,17.9654,-38.28223,-32.23676,18.10139,-38.11986,-0.3491211,-0.173584,-0.2717285,-0.06038928,-0.0470382,-0.1989923,-21.62935,47.13548,-124.6414,-21.42329,47.27513,-124.8738,S_LF
-0.3398438,-0.59375,0.8623047,-0.6351909,0.2170305,0.2288015,-32.52181,17.96896,-38.28177,-32.64387,17.98359,-38.42754,-0.3476563,-0.1706543,-0.2727051,0.0006792545,0.05983204,-0.2295268,-21.61911,47.13806,-124.6549,-21.11782,47.22069,-125.1513,S_LF
-0.3317871,-0.5878906,0.8803711,-0.299313,0.2475649,0.1066641,-32.51578,17.96125,-38.26418,-32.00014,17.40182,-37.4804,-0.3479004,-0.170166,-0.276123,-0.07565641,-0.1386412,0.0,-21.6071,47.1334,-124.6716,-20.96275,47.00671,-125.4876,S_LF
-0.3347168,-0.5939941,0.8691406,-0.3603816,0.1406947,0.09139694,-32.52133,17.95686,-38.25981,-32.5284,17.63817,-38.11291,-0.3474121,-0.1743164,-0.2666016,-0.4726033,0.1209008,-0.5654044,-21.61555,47.14205,-124.6748,-21.70542,47.4832,-124.446,S_LF
-0.3417969,-0.5844727,0.8632813,-0.4977863,0.5681756,0.0,-32.52153,17.96856,-38.25676,-32.19011,18.15195,-38.10732,-0.3410645,-0.173584,-0.2614746,-0.2741299,-0.06230533,-0.2447939,-21.62715,47.14589,-124.6718,-21.99422,47.37972,-124.3426,S_LF
-0.333252,-0.5957031,0.8647461,-0.742061,0.59871,0.04559542,-32.53667,17.97013,-38.25667,-32.73274,17.60743,-38.28561,-0.3491211,-0.1760254,-0.2653809,-0.02985501,0.05983204,-0.1837251,-21.63242,47.1564,-124.6642,-21.87026,47.63034,-124.1666,S_LF
-0.3371582,-0.5925293,0.8671875,-0.4825191,0.3544351,-0.07654199,-32.54237,17.97154,-38.25604,-32.49052,17.79741,-38.1726,-0.3427734,-0.1750488,-0.260498,0.4128931,0.4262443,-0.1073892,-21.63623,47.16998,-124.6543,-22.1263,47.52225,-124.091,S_LF
-0.3356934,-0.5932617,0.8637695,-0.390916,0.262832,-0.2750153,-32.5498,17.97124,-38.26054,-32.62663,17.76307,-38.27908,-0.3486328,-0.1691895,-0.2727051,0.7793052,0.1209008,-0.04632068,-21.6112,47.17564,-124.6646,-20.9191,47.36964,-125.1349,S_LF
-0.3391113,-0.595459,0.8671875,-0.131374,0.171229,-0.3818855,-32.55258,17.97151,-38.26689,-32.59886,17.86758,-38.31573,-0.3317871,-0.1750488,-0.2661133,0.3670917,0.09036642,0.2284887,-21.62099,47.15681,-124.6749,-22.37048,46.16827,-125.3513,S_LF
-0.3381348,-0.5908203,0.8684082,-0.131374,0.2170305,-0.2597481,-32.55095,17.97217,-38.26722,-32.37406,17.84496,-38.09259,-0.34375,-0.1772461,-0.2563477,0.1838853,-0.4439847,0.2132213,-21.63519,47.16365,-124.6493,-22.45746,47.8033,-123.537,S_LF
-0.3391113,-0.5891113,0.8730469,0.03656495,0.1406947,-0.1834122,-32.54282,17.97161,-38.26247,-32.16963,17.84737,-37.9038,-0.3430176,-0.1708984,-0.2683105,0.0006792545,-0.382916,0.182687,-21.63101,47.15789,-124.6535,-21.42643,47.15716,-124.9968,S_LF
-0.3442383,-0.5957031,0.8618164,-0.2077099,0.2017633,0.01506107,-32.54895,17.97893,-38.26902,-32.69662,18.18941,-38.60139,-0.34375,-0.1711426,-0.2624512,0.01594663,-0.09283972,0.07581687,-21.62996,47.16649,-124.6464,-21.58958,47.65142,-124.3515,S_LF
-0.340332,-0.5935059,0.8647461,-0.009236574,0.3544351,-0.168145,-32.54939,17.98377,-38.27295,-32.5645,17.97766,-38.34995,-0.3481445,-0.1721191,-0.2646484,0.32129,-0.2302443,0.2284887,-21.62231,47.17574,-124.6356,-21.48374,47.79841,-124.272,S_LF
-0.3352051,-0.592041,0.8669434,-0.1008396,0.3086336,-0.06127481,-32.54979,17.9828,-38.27087,-32.49518,17.7083,-38.12368,-0.3466797,-0.1708984,-0.2731934,-0.01458788,-0.0470382,0.2895572,-21.61339,47.17338,-124.6437,-21.16571,47.09212,-125.2532,S_LF
-0.340332,-0.590332,0.869873,0.128168,0.430771,0.03032825,-32.54276,17.98824,-38.26647,-32.29261,17.93852,-38.07311,-0.3405762,-0.166748,-0.2678223,0.1380839,-0.2149771,0.3811603,-21.60009,47.17055,-124.6499,-21.0498,47.1898,-125.2325,S_LF
-0.3312988,-0.5861816,0.8679199,0.2655725,0.4002366,-0.06127481,-32.53302,17.98544,-38.25812,-32.25111,17.55362,-37.80405,-0.3452148,-0.1728516,-0.2695313,0.06174803,0.01403052,0.07581687,-21.59799,47.17039,-124.6542,-21.53729,47.15335,-124.9204,S_LF
-0.338623,-0.5930176,0.8620605,-0.05503809,0.2780993,-0.07654199,-32.53573,17.9882,-38.26171,-32.63069,17.93301,-38.38476,-0.3427734,-0.1716309,-0.2697754,0.3976259,0.05983204,0.1979542,-21.58936,47.16774,-124.6608,-21.47796,46.99087,-125.1358,S_LF
-0.3430176,-0.5944824,0.8591309,-0.009236574,0.4155039,-0.3818855,-32.53968,17.99848,-38.27488,-32.72603,18.1762,-38.62079,-0.3444824,-0.1757813,-0.2736816,0.5350306,0.1209008,0.1368854,-21.5858,47.15891,-124.6714,-21.77839,46.64311,-125.2857,S_LF
-0.342041,-0.5959473,0.8703613,-0.2077099,0.1406947,-0.4429542,-32.5419,17.99975,-38.28127,-32.50809,17.96578,-38.2902,-0.3464355,-0.1711426,-0.2631836,0.4739618,-0.06230533,0.2132213,-21.57658,47.17117,-124.66,-21.47322,47.81754,-124.2592,S_LF
-0.3356934,-0.5908203,0.8659668,-0.2535114,0.3697023,-0.504023,-32.54403,18.00032,-38.28548,-32.46212,17.75618,-38.12145,-0.3425293,-0.1699219,-0.2661133,0.3670917,-0.0470382,0.1063511,-21.56786,47.17371,-124.6621,-21.39262,47.33075,-124.8369,S_LF
-0.3449707,-0.5947266,0.8603516,-0.2077099,0.59871,-0.3971527,-32.54969,18.01361,-38.29781,-32.68443,18.2542,-38.62949,-0.3422852,-0.1796875,-0.2666016,0.5655649,-0.2607787,0.3048244,-21.57814,47.16227,-124.6562,-22.49733,46.79328,-124.5915,S_LF
-0.3347168,-0.5957031,0.8630371,-0.08557248,0.6597786,-0.3055496,-32.55521,18.01708,-38.30374,-32.76274,17.70226,-38.36999,-0.3374023,-0.1767578,-0.2683105,0.2754886,-0.01650381,0.3048244,-21.5887,47.1468,-124.6621,-22.29529,46.40032,-125.1614,S_LF
-0.3398438,-0.595459,0.8525391,0.1129008,0.4918396,-0.2292137,-32.56207,18.02544,-38.31693,-32.97571,18.0976,-38.80628,-0.3430176,-0.1704102,-0.2805176,0.5502977,-0.1386412,0.3048244,-21.56955,47.12708,-124.6888,-21.03539,46.26271,-126.2188,S_LF
-0.3381348,-0.5878906,0.8701172,0.06709921,0.4765725,-0.09180916,-32.55387,18.02891,-38.31062,-32.20126,17.84862,-37.93396,-0.3417969,-0.1728516,-0.2663574,0.3670917,-0.4134504,0.5185649,-21.5677,47.12062,-124.6837,-21.74681,47.10804,-124.8154,S_LF
-0.3354492,-0.5969238,0.859375,-0.1771755,0.1559618,0.07612977,-32.5635,18.02613,-38.31422,-32.90508,17.77536,-38.5467,-0.347168,-0.1838379,-0.2668457,0.32129,-0.4592519,0.1521528,-21.58743,47.11138,-124.6717,-22.77479,46.97333,-124.1873,S_LF
-0.338623,-0.6035156,0.8659668,0.128168,0.2322977,-0.2597481,-32.57019,18.02453,-38.32409,-32.9863,17.78679,-38.62955,-0.3400879,-0.1704102,-0.2636719,0.2754886,-0.4592519,0.1216183,-21.5837,47.10818,-124.671,-21.60357,47.28885,-124.728,S_LF
-0.3347168,-0.5871582,0.8613281,0.06709921,0.2322977,-0.1376107,-32.56644,18.02349,-38.32204,-32.43181,17.8016,-38.12038,-0.3432617,-0.1777344,-0.2595215,0.3518243,-0.4745191,-0.06158781,-21.59604,47.10949,-124.656,-22.44176,47.49933,-123.8768,S_LF
-0.333252,-0.5996094,0.8571777,-0.2077099,0.4918396,-0.01547329,-32.58003,18.02317,-38.32921,-33.1034,17.67042,-38.67009,-0.3444824,-0.1772461,-0.2697754,0.9930458,0.319374,-0.1379237,-21.59057,47.10923,-124.6619,-22.05242,46.86177,-124.8519,S_LF
-0.3408203,-0.5925293,0.8637695,-0.1008396,0.262832,-0.1223435,-32.58075,18.02705,-38.33156,-32.54212,18.02362,-38.35684,-0.3381348,-0.1755371,-0.2653809,0.8251068,0.319374,0.4116948,-21.59172,47.10626,-124.6602,-22.21403,46.74125,-124.8598,S_LF
-0.3408203,-0.607666,0.8608398,0.2655725,0.07962596,0.03032825,-32.59106,18.02607,-38.34422,-33.27813,17.92371,-38.98488,-0.340332,-0.1691895,-0.2602539,0.6419008,0.07509923,0.1063511,-21.58143,47.11788,-124.6535,-21.54904,47.63227,-124.4017,S_LF
-0.3408203,-0.5893555,0.8640137,0.2808397,0.1864962,0.1219313,-32.58303,18.02928,-38.34027,-32.3964,18.04925,-38.23665,-0.3444824,-0.1755371,-0.262207,0.3518243,-0.5813893,0.3048244,-21.5864,47.11776,-124.6391,-22.07115,47.5108,-124.1447,S_LF
-0.3354492,-0.5952148,0.8679199,0.1892367,-0.1951832,0.07612977,-32.5809,18.0196,-38.33663,-32.6062,17.67937,-38.21007,-0.3417969,-0.1760254,-0.2714844,0.2907557,-0.5050534,0.03001523,-21.58965,47.09939,-124.6505,-21.96269,46.57036,-125.2276,S_LF
-0.3320313,-0.5981445,0.8552246,0.2655725,-0.6379313,0.04559542,-32.58746,18.00279,-38.34237,-33.10385,17.64832,-38.65741,-0.3447266,-0.1748047,-0.2634277,0.07701516,-0.5966565,0.3964274,-21.5957,47.09874,-124.6376,-21.945,47.47594,-124.2763,S_LF
-0.338623,-0.5942383,0.8666992,0.647252,-0.5310611,-0.1528779,-32.57809,17.99267,-38.34319,-32.56318,17.86087,-38.27842,-0.345459,-0.1721191,-0.2663574,-0.1367252,-0.642458,0.5338321,-21.59645,47.09628,-124.6291,-21.53267,47.44821,-124.61,S_LF
-0.3325195,-0.5922852,0.8596191,0.7083206,-0.3936565,-0.06127481,-32.57062,17.9804,-38.34352,-32.72509,17.66839,-38.31464,-0.348877,-0.1662598,-0.2666016,-0.1519923,-0.7951298,0.6254351,-21.58154,47.10255,-124.6194,-20.7394,47.99409,-124.5995,S_LF
-0.3361816,-0.5874023,0.8630371,0.479313,-0.01197708,-0.09180916,-32.55982,17.97761,-38.34008,-32.38307,17.84971,-38.10384,-0.3474121,-0.1762695,-0.2653809,-0.01458788,-0.5661222,0.3658931,-21.58931,47.10174,-124.6069,-21.95934,47.47823,-124.2632,S_LF
-0.5922852,-0.6640625,0.5905762,0.1587023,0.5071069,-0.5192901,-38.35812,33.67112,-56.0061,-38.44759,33.68244,-56.42767,-0.1784668,-0.1723633,-0.3876953,0.7945726,0.3651755,0.2895572,-21.48795,23.58303,-147.2097,-21.99134,22.81312,-147.3821,LL
-0.5957031,-0.659668,0.5922852,0.2808397,0.4918396,-0.3818855,-38.34995,33.68242,-56.01766,-38.14196,33.89862,-56.32199,-0.1845703,-0.1711426,-0.3945313,0.580832,0.02929771,0.5490992,-21.47866,23.57637,-147.2067,-21.45068,23.22811,-147.4626,LL
-0.5891113,-0.6601563,0.5888672,0.5098474,0.1406947,-0.3513512,-38.34342,33.68406,-56.02956,-38.39843,33.66126,-56.35455,-0.1860352,-0.1723633,-0.3989258,0.4128931,-0.2302443,0.6865039,-21.47071,23.56496,-147.2036,-21.38442,23.1753,-147.5545,LL
-0.5852051,-0.6716309,0.5883789,0.219771,0.06435877,-0.3971527,-38.35301,33.67614,-56.04592,-38.98456,33.24064,-56.55546,-0.1882324,-0.171875,-0.395752,0.1075497,-0.3676488,0.7323053,-21.46812,23.56001,-147.1938,-21.41496,23.56996,-147.2151,LL
-0.5900879,-0.6694336,0.5976563,0.5251145,-0.07304579,-0.07654199,-38.34988,33.66816,-56.04982,-38.55693,33.32691,-56.18853,-0.1853027,-0.1691895,-0.3969727,-0.4726033,-1.405817,0.0,-21.46849,23.53156,-147.204,-21.11638,23.23943,-147.7034,LL
-0.5915527,-0.670166,0.5900879,1.028931,-0.2715191,-0.168145,-38.34139,33.66101,-56.06287,-38.73201,33.52384,-56.5701,-0.1867676,-0.1662598,-0.394043,-0.01458788,-1.039405,0.0,-21.45674,23.51848,-147.2119,-20.87053,23.59075,-147.6019,LL
-0.59375,-0.6606445,0.6057129,1.151069,-0.3783893,-0.1834122,-38.31706,33.65305,-56.05831,-37.91456,33.52254,-55.70929,-0.1894531,-0.1672363,-0.4006348,0.3823588,-0.7951298,0.610168,-21.43547,23.50794,-147.2139,-20.67464,23.57591,-147.7577,LL
-0.5844727,-0.6518555,0.6008301,0.6777863,-0.6837328,-0.504023,-38.29818,33.63787,-56.05535,-37.87115,33.3965,-55.53974,-0.1875,-0.1696777,-0.3930664,0.4586947,0.07509923,0.259023,-21.4262,23.51184,-147.211,-21.28682,23.65127,-147.245,LL
-0.5844727,-0.6625977,0.5871582,0.03656495,-0.2867863,-0.5192901,-38.30476,33.62982,-56.06925,-38.65228,33.43211,-56.39392,-0.1877441,-0.1872559,-0.3928223,0.2754886,0.1819695,-0.0310533,-21.45908,23.51101,-147.1868,-23.27234,23.33661,-145.9796,LL
-0.5830078,-0.6628418,0.5922852,-0.2687786,-0.1188473,-0.1376107,-38.31411,33.62067,-56.07269,-38.57458,33.2596,-56.14035,-0.1884766,-0.1726074,-0.3886719,0.2907557,0.09036642,-0.3516641,-21.46125,23.52017,-147.1817,-21.78123,23.9023,-146.6731,LL
-0.5869141,-0.6638184,0.605957,-0.1008396,0.1864962,-0.3666183,-38.31329,33.61388,-56.06929,-38.19894,33.14447,-55.63298,-0.1726074,-0.1728516,-0.3955078,0.2907557,0.2430381,-0.4432673,-21.46461,23.48903,-147.2101,-21.82874,21.79633,-148.2994,LL
-0.5925293,-0.6643066,0.5964355,-0.5130534,0.1406947,0.1066641,-38.32035,33.61497,-56.06998,-38.3142,33.57213,-56.17681,-0.1831055,-0.1728516,-0.3950195,-0.2283282,0.1819695,-0.3669312,-21.47174,23.4821,-147.221,-21.65309,23.00895,-147.4846,LL
