xa_S1,ya_S1,za_S1,xgb_S1,ybg_S1,zbg_S1,tilt_x_S1,tilt_y_S1,tilt_z_S1,tilt_accx_S1,tilt_accy_S1,tilt_accz_S1,xa_S2,ya_S2,za_S2,xgb_S2,ybg_S2,zbg_S2,tilt_x_S2,tilt_y_S2,tilt_z_S2,tilt_accx_S2,tilt_accy_S2,tilt_accz_S2,Posture
0.0,0.0,0.0,0.0,-0.699,0.183,0.0,-0.6788479,0.1777241,0.0,-0.0,-0.0,-0.1806641,-0.2302246,-0.3735352,0.2907557,0.07509923,0.610168,-28.67971,22.42308,-142.0729,-29.0237,22.3788,-141.9229,S_UP
0.0,0.0,0.0,0.0,-0.699,0.183,0.0,-0.6748612,0.1766804,0.0,-0.0,-0.0,-0.1811523,-0.2324219,-0.3742676,0.2907557,0.1056336,0.5185649,-28.68621,22.4231,-142.06,-29.20391,22.35165,-141.7849,S_UP
0.0,0.0,0.0,0.0,-0.699,0.183,0.0,-0.6709543,0.1756576,0.0,-0.0,-0.0,-0.175293,-0.2302246,-0.371582,0.6266336,0.319374,0.3048244,-28.68917,22.41605,-142.0565,-29.26437,21.85153,-142.0909,S_UP
0.0,0.0,0.0,0.0,-0.699,0.183,0.0,-0.6671256,0.1746552,0.0,-0.0,-0.0,-0.1750488,-0.2312012,-0.3735352,0.5197632,0.2735725,0.2437558,-28.69364,22.40601,-142.0555,-29.26906,21.72601,-142.1761,S_UP
0.0,0.0,0.0,0.0,-0.699,0.183,0.0,-0.6633734,0.1736729,0.0,-0.0,-0.0,-0.1799316,-0.2272949,-0.3708496,0.8861756,0.5025801,0.182687,-28.68508,22.41425,-142.0516,-28.87346,22.47349,-141.9852,S_UP
0.0,0.0,0.0,0.0,-0.699,0.183,0.0,-0.6596961,0.1727102,0.0,-0.0,-0.0,-0.1801758,-0.2294922,-0.371582,0.6571679,0.5331145,0.0147481,-28.6836,22.42165,-142.0476,-29.06198,22.41855,-141.8606,S_UP
0.0,0.0,0.0,0.0,-0.699,0.183,0.0,-0.6560925,0.1717667,0.0,-0.0,-0.0,-0.1762695,-0.2287598,-0.3764648,0.6419008,0.4109771,0.2132213,-28.67761,22.41502,-142.0538,-28.82468,21.80836,-142.5074,S_UP
0.0,0.0,0.0,0.0,-0.699,0.183,0.0,-0.6525609,0.1708422,0.0,-0.0,-0.0,-0.1765137,-0.2229004,-0.3671875,0.8556412,0.2735725,0.1674199,-28.66599,22.41726,-142.0554,-28.6837,22.33919,-142.2481,S_UP
0.0,0.0,0.0,0.0,-0.699,0.183,0.0,-0.6491,0.1699361,0.0,-0.0,-0.0,-0.1743164,-0.2287598,-0.3666992,0.5960991,0.2735725,0.07581687,-28.67245,22.41197,-142.0511,-29.39761,21.96524,-141.8925,S_UP
0.0,0.0,0.0,0.0,-0.699,0.183,0.0,-0.6457083,0.1690481,0.0,-0.0,-0.0,-0.1799316,-0.2380371,-0.387207,0.580832,-0.1691756,0.3048244,-28.67383,22.39335,-142.0535,-29.13972,21.59709,-142.3813,S_UP
0.0,0.0,0.0,0.0,-0.699,0.183,0.0,-0.6423845,0.1681779,0.0,-0.0,-0.0,-0.1811523,-0.2333984,-0.3647461,0.4586947,-0.6729923,0.182687,-28.6904,22.39028,-142.0298,-29.81714,22.70137,-140.9919,S_UP
0.0,0.0,0.0,0.0,-0.699,0.183,0.0,-0.6391271,0.1673251,0.0,-0.0,-0.0,-0.1828613,-0.2321777,-0.378418,0.2754886,-0.6882596,0.4727633,-28.69116,22.38075,-142.0229,-28.91762,22.38581,-142.0104,S_UP
0.0,0.0,0.0,0.0,-0.699,0.183,0.0,-0.6359348,0.1664894,0.0,-0.0,-0.0,-0.1838379,-0.229248,-0.3676758,-0.2283282,-0.550855,0.1674199,-28.70342,22.38539,-142.0075,-29.14757,22.99072,-141.3673,S_UP
0.0,0.0,0.0,0.0,-0.699,0.183,0.0,-0.6328064,0.1656704,0.0,-0.0,-0.0,-0.1787109,-0.2231445,-0.3693848,-0.381,-0.1844428,0.2284887,-28.70533,22.38505,-142.0094,-28.53725,22.49496,-142.2618,S_UP
0.0,0.0,0.0,0.0,-0.699,0.183,0.0,-0.6297406,0.1648677,0.0,-0.0,-0.0,-0.1804199,-0.2246094,-0.3623047,0.3365571,-0.001236677,-0.3516641,-28.70716,22.39614,-142.0043,-29.02785,22.94019,-141.5089,S_UP
0.0,0.0,0.0,0.0,-0.699,0.183,0.0,-0.6267361,0.1640811,0.0,-0.0,-0.0,-0.1799316,-0.2253418,-0.3598633,0.7335038,0.5331145,-0.0310533,-28.708,22.41485,-141.9905,-29.25227,22.96591,-141.2942,S_UP
0.0,0.0,0.0,0.0,-0.699,0.183,0.0,-0.6237917,0.1633103,0.0,-0.0,-0.0,-0.1818848,-0.2275391,-0.3630371,0.8098397,0.6094504,-0.2142596,-28.70724,22.43555,-141.9789,-29.26495,23.00207,-141.2565,S_UP
0.0,0.0,0.0,0.0,-0.699,0.183,0.0,-0.6215911,0.1627342,0.0,-0.0,-0.0,-0.182373,-0.2312012,-0.3745117,0.7640381,0.6552519,-0.2447939,-28.70399,22.44533,-141.9789,-29.0316,22.50732,-141.8226,S_UP
0.0,0.0,0.0,0.0,-0.699,0.183,0.0,-0.6180646,0.1618109,0.0,-0.0,-0.0,-0.1757813,-0.2287598,-0.3640137,0.6266336,0.7621221,-0.01578617,-28.71143,22.45164,-141.9716,-29.50594,22.23785,-141.6017,S_UP
0.0,0.0,0.0,0.0,-0.699,0.183,0.0,-0.6152936,0.1610855,0.0,-0.0,-0.0,-0.182373,-0.2290039,-0.3671875,0.5044961,0.4109771,-0.01578617,-28.71351,22.46569,-141.9611,-29.18635,22.8521,-141.4354,S_UP
0.0,0.0,0.0,0.0,-0.699,0.183,0.0,-0.6132631,0.1605539,0.0,-0.0,-0.0,-0.1843262,-0.2207031,-0.3657227,0.4128931,0.5178473,0.2742901,-28.69997,22.4903,-141.9546,-28.32,23.3411,-141.8236,S_UP
0.0,0.0,0.0,0.0,-0.699,0.183,0.0,-0.6105881,0.1598536,0.0,-0.0,-0.0,-0.184082,-0.2241211,-0.3730469,0.3823588,0.4567786,0.1521528,-28.68701,22.50532,-141.9561,-28.31409,22.92778,-142.1364,S_UP
0.0,0.0,0.0,0.0,-0.699,0.183,0.0,-0.6079667,0.1591673,0.0,-0.0,-0.0,-0.1779785,-0.2246094,-0.3671875,0.8251068,0.6094504,0.2742901,-28.67856,22.51286,-141.9538,-28.83053,22.46428,-142.0293,S_UP
0.0,0.0,0.0,0.0,-0.699,0.183,0.0,-0.6053977,0.1584947,0.0,-0.0,-0.0,-0.1794434,-0.2299805,-0.3674316,0.0,0.8231909,0.1674199,-28.69208,22.52366,-141.9435,-29.35452,22.48802,-141.554,S_UP
0.0,0.0,0.0,0.0,-0.699,0.183,0.0,-0.60288,0.1578356,0.0,-0.0,-0.0,-0.1767578,-0.2270508,-0.369873,0.9777786,0.746855,0.4727633,-28.68443,22.52663,-141.9406,-28.98057,22.15978,-142.1189,S_UP
0.0,0.0,0.0,0.0,-0.699,0.183,0.0,-0.6004128,0.1571896,0.0,-0.0,-0.0,-0.1794434,-0.2285156,-0.3737793,0.9777786,0.6094504,0.3048244,-28.67455,22.52993,-141.9404,-28.86104,22.2738,-142.141,S_UP
0.0,0.0,0.0,0.0,-0.699,0.183,0.0,-0.5979948,0.1565566,0.0,-0.0,-0.0,-0.1835938,-0.2304688,-0.3789063,0.9777786,0.5025801,0.3048244,-28.66155,22.53599,-141.94,-28.69527,22.4882,-142.1296,S_UP
0.0,0.0,0.0,0.0,-0.699,0.183,0.0,-0.5956252,0.1559362,0.0,-0.0,-0.0,-0.182373,-0.2219238,-0.3693848,0.7945726,0.4109771,0.701771,-28.64365,22.54969,-141.9341,-28.31187,22.93877,-142.1302,S_UP
0.0,0.0,0.0,0.0,-0.699,0.183,0.0,-0.593303,0.1553283,0.0,-0.0,-0.0,-0.1755371,-0.229248,-0.3862305,0.6266336,0.3346412,0.3964274,-28.62988,22.53022,-141.9544,-28.3851,21.34693,-143.2192,S_UP
0.0,0.0,0.0,0.0,-0.699,0.183,0.0,-0.5910272,0.1547325,0.0,-0.0,-0.0,-0.177002,-0.230957,-0.3747559,0.840374,0.3651755,0.2437558,-28.62834,22.52272,-141.9554,-29.12904,21.90442,-142.1721,S_UP
0.0,0.0,0.0,0.0,-0.699,0.183,0.0,-0.588797,0.1541486,0.0,-0.0,-0.0,-0.1838379,-0.2265625,-0.3835449,0.8556412,0.6705191,0.3811603,-28.6049,22.52997,-141.9659,-28.04326,22.42542,-142.7395,S_UP
0.0,0.0,0.0,0.0,-0.699,0.183,0.0,-0.5866113,0.1535764,0.0,-0.0,-0.0,-0.1777344,-0.2236328,-0.369873,0.8861756,0.5178473,0.3048244,-28.59242,22.53353,-141.9688,-28.58892,22.3529,-142.3205,S_UP
0.0,0.0,0.0,0.0,-0.699,0.183,0.0,-0.5844694,0.1530156,0.0,-0.0,-0.0,-0.1804199,-0.2324219,-0.3742676,0.8098397,0.5941832,0.2742901,-28.59391,22.53642,-141.9622,-29.22262,22.27012,-141.8274,S_UP
0.0,0.0,0.0,0.0,-0.699,0.183,0.0,-0.5823703,0.152466,0.0,-0.0,-0.0,-0.1779785,-0.2294922,-0.3671875,0.4586947,0.487313,0.3658931,-28.60282,22.53926,-141.9511,-29.35405,22.34418,-141.6586,S_UP
0.0,0.0,0.0,0.0,-0.699,0.183,0.0,-0.5803132,0.1519275,0.0,-0.0,-0.0,-0.1772461,-0.2270508,-0.3896484,0.32129,0.1819695,0.4574962,-28.5852,22.5201,-141.9763,-27.94185,21.45627,-143.5269,S_UP
0.0,0.0,0.0,0.0,-0.699,0.183,0.0,-0.5782972,0.1513997,0.0,-0.0,-0.0,-0.1794434,-0.2275391,-0.3691406,0.3976259,0.1819695,0.3048244,-28.58809,22.5218,-141.9699,-29.00277,22.48038,-141.8674,S_UP
0.0,0.0,0.0,0.0,-0.699,0.183,0.0,-0.5763216,0.1508825,0.0,-0.0,-0.0,-0.1791992,-0.2304688,-0.3903809,0.3060229,0.1819695,-0.1073892,-28.57404,22.50665,-141.997,-28.21536,21.56842,-143.2097,S_UP
0.0,0.0,0.0,0.0,-0.699,0.183,0.0,-0.5798656,0.1518103,0.0,-0.0,-0.0,-0.182373,-0.2321777,-0.3654785,0.01594663,0.1361679,0.07581687,-28.59464,22.5152,-141.9774,-29.61524,22.84052,-141.0681,S_UP
0.0,0.0,0.0,0.0,-0.699,0.183,0.0,-0.5778586,0.1512849,0.0,-0.0,-0.0,-0.1813965,-0.2260742,-0.3745117,0.1686182,0.2125039,0.1521528,-28.59072,22.51825,-141.981,-28.51428,22.5219,-142.262,S_UP
0.0,0.0,0.0,0.0,-0.699,0.183,0.0,-0.5758917,0.1507699,0.0,-0.0,-0.0,-0.1779785,-0.2290039,-0.3679199,0.06174803,0.1819695,0.1674199,-28.60325,22.51711,-141.974,-29.26248,22.32731,-141.7511,S_UP
0.0,0.0,0.0,0.0,-0.699,0.183,0.0,-0.5746492,0.1504446,0.0,-0.0,-0.0,-0.1818848,-0.2243652,-0.3586426,0.1991527,0.1972366,-0.1531909,-28.61163,22.53477,-141.9597,-29.15913,23.26506,-141.1542,S_UP
0.0,0.0,0.0,0.0,-0.699,0.183,0.0,-0.5727465,0.1499465,0.0,-0.0,-0.0,-0.1767578,-0.2263184,-0.3654785,0.2449541,0.07509923,0.1063511,-28.6188,22.53214,-141.9559,-29.13814,22.35158,-141.8425,S_UP
0.0,0.0,0.0,0.0,-0.699,0.183,0.0,-0.5708819,0.1494583,0.0,-0.0,-0.0,-0.1784668,-0.2299805,-0.369873,0.3518243,0.1972366,-0.1073892,-28.62658,22.52984,-141.9541,-29.24891,22.28174,-141.7959,S_UP
0.0,0.0,0.0,0.0,-0.699,0.183,0.0,-0.5690546,0.1489799,0.0,-0.0,-0.0,-0.1801758,-0.2290039,-0.369873,0.32129,0.3499084,-0.06158781,-28.63166,22.534,-141.9513,-29.1009,22.49792,-141.7689,S_UP
0.0,0.0,0.0,0.0,-0.699,0.183,0.0,-0.5672638,0.1485111,0.0,-0.0,-0.0,-0.1791992,-0.2246094,-0.3757324,0.4128931,0.5178473,-0.1073892,-28.62036,22.53568,-141.9656,-28.34979,22.26248,-142.5936,S_UP
0.0,0.0,0.0,0.0,-0.699,0.183,0.0,-0.5655088,0.1480516,0.0,-0.0,-0.0,-0.1816406,-0.2287598,-0.3762207,0.672435,0.3957099,0.091084,-28.6128,22.53874,-141.9685,-28.7037,22.41756,-142.1737,S_UP
0.0,0.0,0.0,0.0,-0.699,0.183,0.0,-0.5637889,0.1476014,0.0,-0.0,-0.0,-0.1801758,-0.2304688,-0.3728027,0.4586947,0.05983204,-0.06158781,-28.61626,22.53573,-141.9676,-29.10066,22.347,-141.8786,S_UP
0.0,0.0,0.0,0.0,-0.699,0.183,0.0,-0.5621034,0.1471601,0.0,-0.0,-0.0,-0.1813965,-0.232666,-0.3757324,0.1533511,-0.0470382,0.350626,-28.6246,22.53064,-141.9603,-29.14608,22.31608,-141.8613,S_UP
0.0,0.0,0.0,0.0,-0.699,0.183,0.0,-0.5611366,0.146907,0.0,-0.0,-0.0,-0.1799316,-0.2290039,-0.3730469,0.03121376,-0.6577252,0.3200917,-28.63046,22.51792,-141.9571,-28.93901,22.34546,-142.021,S_UP
0.0,0.0,0.0,0.0,-0.699,0.183,0.0,-0.5595041,0.1464796,0.0,-0.0,-0.0,-0.1818848,-0.2324219,-0.3779297,-0.1367252,-0.5966565,0.4727633,-28.63959,22.50519,-141.9518,-28.99307,22.29103,-142.0132,S_UP
0.0,0.0,0.0,0.0,-0.699,0.183,0.0,-0.5579043,0.1460608,0.0,-0.0,-0.0,-0.1826172,-0.2321777,-0.3718262,-0.3199313,-0.382916,0.0147481,-28.65658,22.50216,-141.9432,-29.26959,22.61612,-141.5353,S_UP
0.0,0.0,0.0,0.0,-0.699,0.183,0.0,-0.5563366,0.1456503,0.0,-0.0,-0.0,-0.1865234,-0.2321777,-0.3659668,-0.02985501,-0.1539084,-0.0005190372,-28.6734,22.51571,-141.9216,-29.47692,23.28557,-140.8615,S_UP
0.0,0.0,0.0,0.0,-0.699,0.183,0.0,-0.5548001,0.1452481,0.0,-0.0,-0.0,-0.1801758,-0.2280273,-0.3723145,0.3365571,0.1514351,-0.1226563,-28.67234,22.51613,-141.9254,-28.86782,22.42519,-142.0253,S_UP
0.0,0.0,0.0,0.0,-0.699,0.183,0.0,-0.5539794,0.1450332,0.0,-0.0,-0.0,-0.1799316,-0.2331543,-0.3681641,0.1228168,0.6552519,-0.1226563,-28.68998,22.5235,-141.9155,-29.63872,22.43543,-141.3422,S_UP
0.0,0.0,0.0,0.0,-0.699,0.183,0.0,-0.5524902,0.1446433,0.0,-0.0,-0.0,-0.1748047,-0.2246094,-0.373291,0.2907557,0.4720459,-0.07685494,-28.68392,22.51677,-141.9317,-28.58656,21.86289,-142.6763,S_UP
0.0,0.0,0.0,0.0,-0.699,0.183,0.0,-0.5510307,0.1442612,0.0,-0.0,-0.0,-0.1740723,-0.2268066,-0.3654785,0.01594663,0.3346412,0.2437558,-28.69524,22.51168,-141.929,-29.26066,22.03281,-141.9647,S_UP
0.0,0.0,0.0,0.0,-0.699,0.183,0.0,-0.5496004,0.1438868,0.0,-0.0,-0.0,-0.1860352,-0.2294922,-0.362793,-0.1214581,0.04456491,0.1979542,-28.71049,22.53066,-141.9046,-29.3743,23.43001,-140.8439,S_UP
0.0,0.0,0.0,0.0,-0.699,0.183,0.0,-0.5481987,0.1435198,0.0,-0.0,-0.0,-0.1799316,-0.2270508,-0.3662109,-0.1672597,0.07509923,0.2284887,-28.72046,22.53437,-141.8965,-29.09421,22.66471,-141.6532,S_UP
0.0,0.0,0.0,0.0,-0.699,0.183,0.0,-0.546825,0.1431602,0.0,-0.0,-0.0,-0.1804199,-0.230957,-0.3601074,0.0006792545,-0.0470382,0.1216183,-28.74265,22.54037,-141.874,-29.83051,22.86673,-140.8595,S_UP
0.0,0.0,0.0,0.0,-0.699,0.183,0.0,-0.5454788,0.1428077,0.0,-0.0,-0.0,-0.1748047,-0.2297363,-0.3613281,-0.09092379,-0.3218473,0.3964274,-28.76483,22.52899,-141.8583,-29.78469,22.20783,-141.3773,S_UP
0.0,0.0,0.0,0.0,-0.699,0.183,0.0,-0.5448446,0.1426417,0.0,-0.0,-0.0,-0.1796875,-0.2319336,-0.3710938,-0.07565641,0.05983204,0.1979542,-28.77774,22.5257,-141.8518,-29.35882,22.32353,-141.6693,S_UP
0.0,0.0,0.0,0.0,-0.699,0.183,0.0,-0.543538,0.1422996,0.0,-0.0,-0.0,-0.1772461,-0.230957,-0.3666992,0.06174803,0.1361679,0.5643663,-28.7924,22.52208,-141.8375,-29.5558,22.24431,-141.5531,S_UP
0.0,0.0,0.0,0.0,-0.699,0.183,0.0,-0.5429425,0.1421437,0.0,-0.0,-0.0,-0.1801758,-0.2368164,-0.3647461,0.1380839,0.05983204,0.3353589,-28.81874,22.52255,-141.812,-30.20433,22.50473,-140.7919,S_UP
0.0,0.0,0.0,0.0,-0.699,0.183,0.0,-0.5416739,0.1418116,0.0,-0.0,-0.0,-0.1782227,-0.2263184,-0.375,-0.06038928,0.1056336,0.3200917,-28.81508,22.51638,-141.8207,-28.59423,22.14141,-142.4692,S_UP
0.0,0.0,0.0,0.0,-0.699,0.183,0.0,-0.5404308,0.1414862,0.0,-0.0,-0.0,-0.1833496,-0.2299805,-0.3786621,-0.02985501,-0.1691756,0.3200917,-28.81244,22.51338,-141.8232,-28.6628,22.48238,-142.162,S_UP
0.0,0.0,0.0,0.0,-0.699,0.183,0.0,-0.5392125,0.1411672,0.0,-0.0,-0.0,-0.1779785,-0.230957,-0.3696289,-0.2588627,-0.3523817,0.2895572,-28.82756,22.50218,-141.8171,-29.37829,22.21248,-141.7323,S_UP
0.0,0.0,0.0,0.0,-0.699,0.183,0.0,-0.5387035,0.141034,0.0,-0.0,-0.0,-0.1791992,-0.2348633,-0.3669434,-0.3351984,-0.1386412,0.07581687,-28.8537,22.4974,-141.8029,-29.90469,22.35829,-141.163,S_UP
0.0,0.0,0.0,0.0,-0.699,0.183,0.0,-0.5375197,0.140724,0.0,-0.0,-0.0,-0.1877441,-0.2294922,-0.3601074,-0.3199313,-0.031771,0.03001523,-28.87043,22.52168,-141.7771,-29.47074,23.73335,-140.5328,S_UP
0.0,0.0,0.0,0.0,-0.699,0.183,0.0,-0.5363597,0.1404203,0.0,-0.0,-0.0,-0.1794434,-0.2258301,-0.3728027,-0.1367252,0.3804427,-0.1073892,-28.86744,22.524,-141.7885,-28.62679,22.37656,-142.2704,S_UP
0.0,0.0,0.0,0.0,-0.699,0.183,0.0,-0.5352228,0.1401227,0.0,-0.0,-0.0,-0.1801758,-0.2312012,-0.3701172,-0.1214581,0.4415114,-0.3516641,-28.87817,22.52826,-141.79,-29.32094,22.43441,-141.6223,S_UP
0.0,0.0,0.0,0.0,-0.699,0.183,0.0,-0.5341086,0.139831,0.0,-0.0,-0.0,-0.1760254,-0.2282715,-0.3566895,-0.07565641,0.4720459,-0.1989923,-28.89867,22.53559,-141.778,-29.85125,22.5709,-141.0566,S_UP
0.0,0.0,0.0,0.0,-0.699,0.183,0.0,-0.5330167,0.1395452,0.0,-0.0,-0.0,-0.1799316,-0.2353516,-0.3742676,-0.1672597,0.3346412,-0.3974657,-28.91383,22.53238,-141.7807,-29.54193,22.14526,-141.6365,S_UP
0.0,0.0,0.0,0.0,-0.699,0.183,0.0,-0.5319467,0.139265,0.0,-0.0,-0.0,-0.1845703,-0.2258301,-0.3771973,-0.197794,0.4415114,-0.168458,-28.90368,22.54327,-141.7931,-28.2703,22.77405,-142.2878,S_UP
0.0,0.0,0.0,0.0,-0.699,0.183,0.0,-0.5308981,0.1389905,0.0,-0.0,-0.0,-0.1828613,-0.2331543,-0.3618164,-0.289397,0.487313,-0.3058627,-28.92765,22.55943,-141.7751,-29.90412,23.01732,-140.6843,S_UP
0.0,0.0,0.0,0.0,-0.699,0.183,0.0,-0.5298705,0.1387214,0.0,-0.0,-0.0,-0.1835938,-0.2287598,-0.3686523,-0.07565641,0.4262443,-0.01578617,-28.93115,22.57282,-141.7697,-29.0504,22.93625,-141.4922,S_UP
0.0,0.0,0.0,0.0,-0.699,0.183,0.0,-0.5288634,0.1384578,0.0,-0.0,-0.0,-0.1791992,-0.2307129,-0.3603516,-0.02985501,0.5941832,-0.428,-28.94945,22.58459,-141.7599,-29.82442,22.72426,-140.9688,S_UP
0.0,0.0,0.0,0.0,-0.699,0.183,0.0,-0.5285614,0.1383787,0.0,-0.0,-0.0,-0.1757813,-0.2324219,-0.3808594,-0.1061909,0.7773893,-0.4127328,-28.95173,22.57362,-141.782,-28.99031,21.50306,-142.5792,S_UP
0.0,0.0,0.0,0.0,-0.699,0.183,0.0,-0.5275805,0.1381219,0.0,-0.0,-0.0,-0.1821289,-0.229248,-0.3676758,-0.1214581,0.6552519,-0.428,-28.95821,22.58712,-141.7816,-29.19277,22.79894,-141.4688,S_UP
0.0,0.0,0.0,0.0,-0.699,0.183,0.0,-0.5266192,0.1378702,0.0,-0.0,-0.0,-0.1774902,-0.2270508,-0.3708496,-0.1825268,0.7010534,-0.260061,-28.95975,22.58908,-141.7925,-28.90981,22.20422,-142.1487,S_UP
0.0,0.0,0.0,0.0,-0.699,0.183,0.0,-0.5256771,0.1376236,0.0,-0.0,-0.0,-0.177002,-0.2307129,-0.3725586,-0.07565641,0.8689924,-0.4738016,-28.966,22.58912,-141.8037,-29.22037,21.99477,-142.0273,S_UP
0.0,0.0,0.0,0.0,-0.699,0.183,0.0,-0.5247539,0.1373819,0.0,-0.0,-0.0,-0.1816406,-0.2299805,-0.3728027,0.1533511,0.0,-0.428,-28.96466,22.58778,-141.8105,-29.01153,22.52248,-141.8291,S_UP
0.0,0.0,0.0,0.0,-0.699,0.183,0.0,-0.5245341,0.1373243,0.0,-0.0,-0.0,-0.1782227,-0.2302246,-0.3735352,0.06174803,1.052198,-0.6722746,-28.96623,22.59258,-141.8249,-29.08575,22.10568,-142.0658,S_UP
0.0,0.0,0.0,0.0,-0.699,0.183,0.0,-0.5236337,0.1370886,0.0,-0.0,-0.0,-0.1801758,-0.2324219,-0.3647461,0.07701516,1.281206,-0.4432673,-28.98065,22.61062,-141.8169,-29.73989,22.61601,-141.1221,S_UP
0.0,0.0,0.0,0.0,-0.699,0.183,0.0,-0.5227513,0.1368576,0.0,-0.0,-0.0,-0.1806641,-0.2290039,-0.3730469,0.1686182,1.067466,0.0,-28.97713,22.6216,-141.8201,-28.92035,22.42742,-141.9778,S_UP
0.0,0.0,0.0,0.0,-0.699,0.183,0.0,-0.5218866,0.1366312,0.0,-0.0,-0.0,-0.1784668,-0.2302246,-0.3742676,0.3060229,1.098,-0.1837251,-28.97421,22.62633,-141.8283,-29.04075,22.10466,-142.106,S_UP
0.0,0.0,0.0,0.0,-0.699,0.183,0.0,-0.5210391,0.1364094,0.0,-0.0,-0.0,-0.177002,-0.234375,-0.3740234,0.03121376,0.487313,-0.2142596,-28.98484,22.61751,-141.8319,-29.52759,21.85129,-141.8591,S_UP
0.0,0.0,0.0,0.0,-0.699,0.183,0.0,-0.5202086,0.1361919,0.0,-0.0,-0.0,-0.1784668,-0.2316895,-0.3730469,-0.4268017,-0.1081069,-0.168458,-28.99621,22.60602,-141.8357,-29.26018,22.11686,-141.9048,S_UP
0.0,0.0,0.0,0.0,-0.699,0.183,0.0,-0.5193948,0.1359789,0.0,-0.0,-0.0,-0.1811523,-0.2316895,-0.3713379,-0.5947404,0.09036642,-0.1989923,-29.01009,22.60481,-141.8341,-29.28209,22.48386,-141.6205,S_UP
0.0,0.0,0.0,0.0,-0.699,0.183,0.0,-0.5185972,0.1357701,0.0,-0.0,-0.0,-0.1816406,-0.2268066,-0.3747559,-0.5794735,0.4262443,-0.5501375,-29.00987,22.60942,-141.8497,-28.57323,22.52194,-142.2109,S_UP
0.0,0.0,0.0,0.0,-0.699,0.183,0.0,-0.5185006,0.1357448,0.0,-0.0,-0.0,-0.1828613,-0.2285156,-0.376709,-0.5642061,0.746855,-0.6570077,-29.00985,22.61828,-141.8649,-28.62194,22.53978,-142.1556,S_UP
0.0,0.0,0.0,0.0,-0.699,0.183,0.0,-0.5177209,0.1355406,0.0,-0.0,-0.0,-0.184082,-0.2280273,-0.3786621,-0.1672597,1.067466,-0.5043359,-29.00204,22.64112,-141.8837,-28.43938,22.60961,-142.2627,S_UP
0.0,0.0,0.0,0.0,-0.699,0.183,0.0,-0.5224369,0.1367753,0.0,-0.0,-0.0,-0.175293,-0.223877,-0.3620605,-0.07565641,1.418611,-0.8249464,-29.005,22.65539,-141.8945,-29.09786,22.38133,-141.8562,S_UP
0.0,0.0,0.0,0.0,-0.699,0.183,0.0,-0.5215785,0.1365505,0.0,-0.0,-0.0,-0.1799316,-0.2280273,-0.3779297,-0.289397,1.128534,-0.5959387,-29.00047,22.66132,-141.9138,-28.58017,22.17804,-142.4549,S_UP
0.0,0.0,0.0,0.0,-0.699,0.183,0.0,-0.5207372,0.1363303,0.0,-0.0,-0.0,-0.1757813,-0.2302246,-0.3708496,-0.5184045,1.036931,-0.5806718,-29.0134,22.66102,-141.9237,-29.29136,21.93492,-142.0077,S_UP
0.0,0.0,0.0,0.0,-0.699,0.183,0.0,-0.5199128,0.1361145,0.0,-0.0,-0.0,-0.1738281,-0.2277832,-0.3693848,-0.3657329,1.006397,-0.5043359,-29.02135,22.65818,-141.9361,-29.15984,21.82872,-142.1991,S_UP
0.0,0.0,0.0,0.0,-0.699,0.183,0.0,-0.5191049,0.1359029,0.0,-0.0,-0.0,-0.1740723,-0.2321777,-0.3696289,-0.7016106,0.5025801,-0.5959387,-29.04272,22.64675,-141.9429,-29.60844,21.74168,-141.8655,S_UP
0.0,0.0,0.0,0.0,-0.699,0.183,0.0,-0.518313,0.1356956,0.0,-0.0,-0.0,-0.1787109,-0.2282715,-0.3654785,-0.8084807,0.5025801,-0.2447939,-29.05889,22.65121,-141.939,-29.29658,22.52526,-141.5777,S_UP
0.0,0.0,0.0,0.0,-0.699,0.183,0.0,-0.5175371,0.1354925,0.0,-0.0,-0.0,-0.1772461,-0.2314453,-0.3679199,-0.5184045,0.6857863,-0.5959387,-29.07565,22.65129,-141.9405,-29.54145,22.18456,-141.6087,S_UP
0.0,0.0,0.0,0.0,-0.699,0.183,0.0,-0.5167767,0.1352934,0.0,-0.0,-0.0,-0.1796875,-0.2253418,-0.3691406,0.0006792545,0.8537251,-0.5959387,-29.06935,22.66121,-141.9503,-28.76133,22.56173,-142.0185,S_UP
0.0,0.0,0.0,0.0,-0.699,0.183,0.0,-0.5160315,0.1350983,0.0,-0.0,-0.0,-0.1728516,-0.2297363,-0.3725586,-0.2741299,0.8537251,-0.1837251,-29.07616,22.65069,-141.9607,-29.22144,21.54963,-142.3429,S_UP
0.0,0.0,0.0,0.0,-0.699,0.183,0.0,-0.5153011,0.1349071,0.0,-0.0,-0.0,-0.161377,-0.234375,-0.3679199,-0.2741299,0.4109771,0.03001523,-29.10383,22.60974,-141.9666,-30.2583,20.30122,-142.2806,S_UP
0.0,0.0,0.0,0.0,-0.699,0.183,0.0,-0.5152704,0.1348991,0.0,-0.0,-0.0,-0.1716309,-0.2331543,-0.3706055,-0.1825268,0.7010534,0.0,-29.11868,22.59526,-141.9673,-29.7208,21.40462,-142.0034,S_UP
0.0,0.0,0.0,0.0,-0.699,0.183,0.0,-0.5145553,0.1347119,0.0,-0.0,-0.0,-0.1767578,-0.2307129,-0.3640137,0.1228168,0.6247175,-0.3211298,-29.1284,22.59794,-141.9603,-29.68923,22.30051,-141.395,S_UP
0.0,0.0,0.0,0.0,-0.699,0.183,0.0,-0.5138545,0.1345284,0.0,-0.0,-0.0,-0.1755371,-0.232666,-0.3679199,0.01594663,0.3957099,-0.0310533,-29.13993,22.59064,-141.9538,-29.71555,21.96137,-141.6147,S_UP
0.0,0.0,0.0,0.0,-0.699,0.183,0.0,-0.5131677,0.1343486,0.0,-0.0,-0.0,-0.1765137,-0.2270508,-0.3762207,-0.3504658,0.05983204,0.1063511,-29.13494,22.57734,-141.9654,-28.65038,21.88496,-142.6049,S_UP
0.0,0.0,0.0,0.0,-0.699,0.183,0.0,-0.5124946,0.1341724,0.0,-0.0,-0.0,-0.1728516,-0.2390137,-0.3710938,-0.4115343,0.04456491,-0.1531909,-29.16346,22.55411,-141.9586,-30.2785,21.38503,-141.5203,S_UP
0.0,0.0,0.0,0.0,-0.699,0.183,0.0,-0.5118351,0.1339997,0.0,-0.0,-0.0,-0.175293,-0.2277832,-0.3693848,-0.4115343,0.227771,0.04528236,-29.16829,22.54605,-141.961,-29.12251,21.99518,-142.1129,S_UP
0.0,0.0,0.0,0.0,-0.699,0.183,0.0,-0.5111886,0.1338305,0.0,-0.0,-0.0,-0.1726074,-0.2263184,-0.390625,-0.2435954,0.05983204,-0.260061,-29.14693,22.51449,-142.0041,-27.92107,20.92382,-143.9211,S_UP
0.0,0.0,0.0,0.0,-0.699,0.183,0.0,-0.5112402,0.133844,0.0,-0.0,-0.0,-0.1799316,-0.2233887,-0.3723145,-0.2283282,0.07509923,-0.0005190372,-29.1347,22.51542,-142.0117,-28.37884,22.50951,-142.3884,S_UP
0.0,0.0,0.0,0.0,-0.699,0.183,0.0,-0.5106057,0.1336778,0.0,-0.0,-0.0,-0.1726074,-0.2285156,-0.3669434,-0.4878702,0.01403052,-0.168458,-29.14674,22.50064,-142.0144,-29.40223,21.76656,-142.03,S_UP
0.0,0.0,0.0,0.0,-0.699,0.183,0.0,-0.5099839,0.133515,0.0,-0.0,-0.0,-0.177002,-0.2287598,-0.3684082,-0.3046641,0.1209008,-0.3058627,-29.15269,22.49635,-142.0156,-29.23549,22.20352,-141.8641,S_UP
0.0,0.0,0.0,0.0,-0.699,0.183,0.0,-0.5093745,0.1333555,0.0,-0.0,-0.0,-0.1791992,-0.2285156,-0.3728027,-0.3046641,0.227771,-0.2447939,-29.15219,22.49524,-142.0203,-28.91875,22.28469,-142.0827,S_UP
0.0,0.0,0.0,0.0,-0.699,0.183,0.0,-0.5087773,0.1331992,0.0,-0.0,-0.0,-0.1757813,-0.2294922,-0.3696289,-0.3199313,0.319374,0.07581687,-29.15912,22.48972,-142.0183,-29.27924,21.99985,-141.9719,S_UP
0.0,0.0,0.0,0.0,-0.699,0.183,0.0,-0.5081921,0.133046,0.0,-0.0,-0.0,-0.1782227,-0.2282715,-0.3696289,-0.4573359,0.3041069,-0.260061,-29.16395,22.4902,-142.0199,-29.0864,22.30543,-141.9212,S_UP
0.0,0.0,0.0,0.0,-0.699,0.183,0.0,-0.5076185,0.1328958,0.0,-0.0,-0.0,-0.1772461,-0.2263184,-0.376709,-0.1214581,0.7010534,-0.2142596,-29.15291,22.48932,-142.0356,-28.52898,21.96531,-142.6529,S_UP
0.0,0.0,0.0,0.0,-0.699,0.183,0.0,-0.5070565,0.1327487,0.0,-0.0,-0.0,-0.1782227,-0.2299805,-0.3815918,-0.02985501,0.4109771,0.06054974,-29.14301,22.48122,-142.0475,-28.63739,21.80227,-142.6754,S_UP
0.0,0.0,0.0,0.0,-0.699,0.183,0.0,-0.5065057,0.1326044,0.0,-0.0,-0.0,-0.1811523,-0.2272949,-0.3879395,-0.04512215,0.578916,0.2437558,-29.12007,22.479,-142.0661,-27.96275,21.94446,-143.1586,S_UP
0.0,0.0,0.0,0.0,-0.699,0.183,0.0,-0.5066509,0.1326424,0.0,-0.0,-0.0,-0.1728516,-0.2263184,-0.3725586,0.3976259,0.578916,0.2895572,-29.10935,22.46995,-142.073,-28.85697,21.62971,-142.6064,S_UP
0.0,0.0,0.0,0.0,-0.699,0.183,0.0,-0.5061082,0.1325004,0.0,-0.0,-0.0,-0.1748047,-0.2268066,-0.3713379,0.1991527,0.6094504,0.2895572,-29.10295,22.46666,-142.0748,-28.92567,21.88706,-142.3628,S_UP
0.0,0.0,0.0,0.0,-0.699,0.183,0.0,-0.5055763,0.1323611,0.0,-0.0,-0.0,-0.175293,-0.2307129,-0.3730469,0.1991527,0.3651755,0.4116948,-29.10291,22.45801,-142.0709,-29.23746,21.7837,-142.1629,S_UP
0.0,0.0,0.0,0.0,-0.699,0.183,0.0,-0.505055,0.1322247,0.0,-0.0,-0.0,-0.1721191,-0.2294922,-0.3757324,0.4281602,0.07509923,0.5185649,-29.09584,22.43692,-142.0751,-29.04322,21.35232,-142.6389,S_UP
0.0,0.0,0.0,0.0,-0.699,0.183,0.0,-0.5045443,0.1320909,0.0,-0.0,-0.0,-0.1745605,-0.2304688,-0.3693848,0.5960991,0.227771,0.3811603,-29.0943,22.42826,-142.0674,-29.4277,21.84747,-141.95,S_UP
0.0,0.0,0.0,0.0,-0.699,0.183,0.0,-0.5040437,0.1319599,0.0,-0.0,-0.0,-0.1777344,-0.2304688,-0.3696289,0.2754886,-0.2149771,0.5185649,-29.09529,22.42068,-142.0546,-29.33279,22.19686,-141.7835,S_UP
0.0,0.0,0.0,0.0,-0.699,0.183,0.0,-0.5035532,0.1318315,0.0,-0.0,-0.0,-0.1784668,-0.2336426,-0.371582,0.07701516,-0.7645955,0.5185649,-29.10321,22.4043,-142.0394,-29.5443,22.12629,-141.648,S_UP
0.0,0.0,0.0,0.0,-0.699,0.183,0.0,-0.5030724,0.1317056,0.0,-0.0,-0.0,-0.1772461,-0.2316895,-0.3708496,0.1228168,-0.7951298,0.5490992,-29.10764,22.38661,-142.0273,-29.4091,22.0648,-141.8112,S_UP
0.0,0.0,0.0,0.0,-0.699,0.183,0.0,-0.5026012,0.1315822,0.0,-0.0,-0.0,-0.1794434,-0.2294922,-0.3737793,-0.1061909,-0.4745191,0.6559694,-29.10624,22.37737,-142.0191,-28.96445,22.25042,-142.0676,S_UP
0.0,0.0,0.0,0.0,-0.699,0.183,0.0,-0.5021395,0.1314614,0.0,-0.0,-0.0,-0.1804199,-0.2275391,-0.3759766,-0.01458788,-0.3676488,0.442229,-29.09667,22.37118,-142.019,-28.61797,22.32018,-142.319,S_UP
0.0,0.0,0.0,0.0,-0.699,0.183,0.0,-0.501687,0.1313429,0.0,-0.0,-0.0,-0.1789551,-0.2246094,-0.369873,0.2449541,-0.2455115,0.3353589,-29.08463,22.36974,-142.0175,-28.6628,22.46748,-142.1729,S_UP
0.0,0.0,0.0,0.0,-0.699,0.183,0.0,-0.5012435,0.1312268,0.0,-0.0,-0.0,-0.1762695,-0.2268066,-0.3635254,0.2907557,-0.001236677,0.350626,-29.08514,22.36956,-142.006,-29.30954,22.36162,-141.685,S_UP
0.0,0.0,0.0,0.0,-0.699,0.183,0.0,-0.500809,0.131113,0.0,-0.0,-0.0,-0.1774902,-0.2248535,-0.3666992,0.0006792545,-0.3676488,0.6559694,-29.08134,22.36557,-141.9969,-28.89559,22.42231,-142.0031,S_UP
0.0,0.0,0.0,0.0,-0.699,0.183,0.0,-0.5003831,0.1310015,0.0,-0.0,-0.0,-0.1833496,-0.2304688,-0.369873,-0.1367252,-0.4592519,0.5338321,-29.0852,22.36785,-141.9786,-29.17351,22.81743,-141.4721,S_UP
0.0,0.0,0.0,0.0,-0.699,0.183,0.0,-0.5006507,0.1310716,0.0,-0.0,-0.0,-0.1784668,-0.2287598,-0.369873,-0.1825268,-0.7340611,0.6865039,-29.08838,22.35666,-141.9674,-29.11909,22.31147,-141.8882,S_UP
0.0,0.0,0.0,0.0,-0.699,0.183,0.0,-0.500228,0.1309609,0.0,-0.0,-0.0,-0.1818848,-0.2285156,-0.371582,-0.2741299,-0.7340611,0.6254351,-29.08866,22.35213,-141.9561,-28.91442,22.63376,-141.8326,S_UP
0.0,0.0,0.0,0.0,-0.699,0.183,0.0,-0.4998137,0.1308525,0.0,-0.0,-0.0,-0.1784668,-0.223877,-0.371582,-0.381,-0.7645955,0.5185649,-29.08224,22.34183,-141.9576,-28.50653,22.36181,-142.3855,S_UP
0.0,0.0,0.0,0.0,-0.699,0.183,0.0,-0.4994078,0.1307462,0.0,-0.0,-0.0,-0.1796875,-0.223877,-0.3696289,-0.2435954,-0.7951298,0.5032978,-29.07551,22.33564,-141.9548,-28.57826,22.57788,-142.1656,S_UP
0.0,0.0,0.0,0.0,-0.699,0.183,0.0,-0.4990099,0.130642,0.0,-0.0,-0.0,-0.1813965,-0.2287598,-0.3674316,-0.06038928,-0.3371145,0.6559694,-29.07829,22.33908,-141.9373,-29.1731,22.73853,-141.5303,S_UP
0.0,0.0,0.0,0.0,-0.699,0.183,0.0,-0.49862,0.13054,0.0,-0.0,-0.0,-0.1789551,-0.2287598,-0.3745117,0.2907557,0.09036642,0.6712368,-29.06995,22.33723,-141.9335,-28.86065,22.18471,-142.2057,S_UP
0.0,0.0,0.0,0.0,-0.699,0.183,0.0,-0.4982379,0.1304399,0.0,-0.0,-0.0,-0.1779785,-0.2297363,-0.3706055,0.2602212,-0.1081069,0.5490992,-29.0689,22.33308,-141.9252,-29.19635,22.20401,-141.8981,S_UP
0.0,0.0,0.0,0.0,-0.699,0.183,0.0,-0.4978634,0.1303419,0.0,-0.0,-0.0,-0.1804199,-0.2263184,-0.3752441,0.2907557,-0.1539084,0.7781069,-29.05407,22.33187,-141.9232,-28.52665,22.37794,-142.3563,S_UP
0.0,0.0,0.0,0.0,-0.699,0.183,0.0,-0.4974964,0.1302458,0.0,-0.0,-0.0,-0.1784668,-0.2282715,-0.373291,0.1228168,-0.1691756,0.6407022,-29.04902,22.32669,-141.9195,-28.88558,22.18923,-142.1807,S_UP
0.0,0.0,0.0,0.0,-0.699,0.183,0.0,-0.4971367,0.1301517,0.0,-0.0,-0.0,-0.177002,-0.2260742,-0.3640137,-0.06038928,-0.3065802,0.5643663,-29.05256,22.32483,-141.9081,-29.18468,22.44404,-141.7348,S_UP
0.0,0.0,0.0,0.0,-0.699,0.183,0.0,-0.4967843,0.1300594,0.0,-0.0,-0.0,-0.1806641,-0.230957,-0.3747559,-0.04512215,-0.4287176,0.7170382,-29.05286,22.31872,-141.8992,-29.0366,22.31355,-141.9589,S_UP
0.0,0.0,0.0,0.0,-0.699,0.183,0.0,-0.4964389,0.129969,0.0,-0.0,-0.0,-0.1791992,-0.229248,-0.361084,-0.01458788,-0.291313,0.610168,-29.06454,22.323,-141.8756,-29.6271,22.73237,-141.1367,S_UP
0.0,0.0,0.0,0.0,-0.699,0.183,0.0,-0.4961004,0.1298804,0.0,-0.0,-0.0,-0.1794434,-0.2272949,-0.3759766,0.1075497,-0.2149771,0.4727633,-29.054,22.31772,-141.8791,-28.61648,22.2169,-142.3952,S_UP
0.0,0.0,0.0,0.0,-0.699,0.183,0.0,-0.4964537,0.1299729,0.0,-0.0,-0.0,-0.1765137,-0.2280273,-0.371582,0.3670917,0.2125039,0.4116948,-29.045,22.31678,-141.8763,-28.99977,22.04184,-142.187,S_UP
0.0,0.0,0.0,0.0,-0.699,0.183,0.0,-0.5015951,0.1313189,0.0,-0.0,-0.0,-0.1809082,-0.2304688,-0.3762207,0.5350306,0.1056336,0.5490992,-29.0348,22.3178,-141.873,-28.90215,22.29541,-142.0895,S_UP
0.0,0.0,0.0,0.0,-0.699,0.183,0.0,-0.5011535,0.1312033,0.0,-0.0,-0.0,-0.1767578,-0.2255859,-0.3630371,0.4128931,-0.031771,0.701771,-29.03227,22.32036,-141.8602,-29.19137,22.4675,-141.7119,S_UP
0.0,0.0,0.0,0.0,-0.699,0.183,0.0,-0.5007207,0.13109,0.0,-0.0,-0.0,-0.1748047,-0.2265625,-0.3728027,0.3823588,-0.07757253,0.7323053,-29.0228,22.30961,-141.8627,-28.82144,21.83598,-142.4905,S_UP
0.0,0.0,0.0,0.0,-0.699,0.183,0.0,-0.5002966,0.1309789,0.0,-0.0,-0.0,-0.1779785,-0.230957,-0.3723145,0.1686182,-0.4745191,0.5185649,-29.02472,22.29907,-141.857,-29.23437,22.10806,-141.9338,S_UP
0.0,0.0,0.0,0.0,-0.699,0.183,0.0,-0.499881,0.1308701,0.0,-0.0,-0.0,-0.1762695,-0.2312012,-0.3776855,0.04648089,-0.2455115,0.5490992,-29.02394,22.28382,-141.8606,-29.01771,21.70505,-142.4119,S_UP
0.0,0.0,0.0,0.0,-0.699,0.183,0.0,-0.4994737,0.1307635,0.0,-0.0,-0.0,-0.1821289,-0.2243652,-0.3635254,0.229687,-0.09283972,0.7933741,-29.01812,22.29869,-141.8428,-28.89042,23.09062,-141.5173,S_UP
0.0,0.0,0.0,0.0,-0.699,0.183,0.0,-0.4990745,0.130659,0.0,-0.0,-0.0,-0.1789551,-0.2282715,-0.3740234,0.4128931,-0.1691756,0.5185649,-29.00879,22.2947,-141.843,-28.83463,22.21538,-142.2063,S_UP
0.0,0.0,0.0,0.0,-0.699,0.183,0.0,-0.4986834,0.1305566,0.0,-0.0,-0.0,-0.1779785,-0.229248,-0.3754883,0.1838853,-0.1386412,0.4269619,-29.00379,22.28742,-141.8462,-28.88535,22.02594,-142.2985,S_UP
0.0,0.0,0.0,0.0,-0.699,0.183,0.0,-0.4983,0.1304562,0.0,-0.0,-0.0,-0.1787109,-0.2263184,-0.3701172,0.3823588,-0.01650381,0.3964274,-28.99526,22.28922,-141.8454,-28.83927,22.3887,-142.0767,S_UP
0.0,0.0,0.0,0.0,-0.699,0.183,0.0,-0.4979243,0.1303578,0.0,-0.0,-0.0,-0.173584,-0.2268066,-0.3815918,0.4128931,0.07509923,0.1674199,-28.97757,22.27168,-141.8698,-28.41442,21.35732,-143.1863,S_UP
0.0,0.0,0.0,0.0,-0.699,0.183,0.0,-0.4982411,0.1304408,0.0,-0.0,-0.0,-0.1821289,-0.2268066,-0.3742676,0.5502977,0.4415114,0.442229,-28.96219,22.28423,-141.8692,-28.58629,22.59579,-142.1456,S_UP
0.0,0.0,0.0,0.0,-0.699,0.183,0.0,-0.4978665,0.1303427,0.0,-0.0,-0.0,-0.1765137,-0.2268066,-0.371582,0.4739618,0.3041069,0.2895572,-28.95384,22.28413,-141.8734,-28.86955,22.07101,-142.2799,S_UP
0.0,0.0,0.0,0.0,-0.699,0.183,0.0,-0.4974995,0.1302467,0.0,-0.0,-0.0,-0.1796875,-0.2297363,-0.3754883,0.8556412,0.1972366,0.182687,-28.9409,22.28526,-141.8767,-28.8941,22.20534,-142.1616,S_UP
0.0,0.0,0.0,0.0,-0.699,0.183,0.0,-0.4971398,0.1301525,0.0,-0.0,-0.0,-0.1779785,-0.2255859,-0.3718262,0.8098397,0.3651755,0.5643663,-28.92476,22.28969,-141.8775,-28.68912,22.25604,-142.3037,S_UP
0.0,0.0,0.0,0.0,-0.699,0.183,0.0,-0.4967873,0.1300602,0.0,-0.0,-0.0,-0.1784668,-0.2316895,-0.369873,0.6113663,-0.1081069,0.3658931,-28.92648,22.28721,-141.8682,-29.43009,22.24006,-141.6668,S_UP
0.0,0.0,0.0,0.0,-0.699,0.183,0.0,-0.4964418,0.1299698,0.0,-0.0,-0.0,-0.1791992,-0.2312012,-0.3684082,0.2602212,-0.810397,0.6712368,-28.93314,22.27819,-141.8527,-29.43808,22.3918,-141.5503,S_UP
0.0,0.0,0.0,0.0,-0.699,0.183,0.0,-0.4961032,0.1298811,0.0,-0.0,-0.0,-0.1794434,-0.229248,-0.369873,-0.02985501,0.0,0.5796337,-28.9378,22.28082,-141.8436,-29.14582,22.40956,-141.7938,S_UP
0.0,0.0,0.0,0.0,-0.699,0.183,0.0,-0.4957715,0.1297943,0.0,-0.0,-0.0,-0.1831055,-0.2319336,-0.3720703,-0.3351984,-0.7493282,0.4880307,-28.94801,22.27826,-141.8308,-29.21829,22.66686,-141.5431,S_UP
0.0,0.0,0.0,0.0,-0.699,0.183,0.0,-0.4954463,0.1297091,0.0,-0.0,-0.0,-0.1826172,-0.2272949,-0.369873,-0.1061909,-0.5050534,0.3200917,-28.94762,22.28204,-141.8249,-28.85564,22.81409,-141.7515,S_UP
0.0,0.0,0.0,0.0,-0.699,0.183,0.0,-0.4951277,0.1296257,0.0,-0.0,-0.0,-0.1867676,-0.2329102,-0.3691406,0.03121376,-0.2455115,-0.1073892,-28.95583,22.29635,-141.8106,-29.37926,23.16599,-141.0355,S_UP
0.0,0.0,0.0,0.0,-0.699,0.183,0.0,-0.4948154,0.129544,0.0,-0.0,-0.0,-0.1870117,-0.232666,-0.3706055,0.3518243,0.3651755,0.1521528,-28.95694,22.31861,-141.7951,-29.26991,23.14046,-141.1499,S_UP
0.0,0.0,0.0,0.0,-0.699,0.183,0.0,-0.4951944,0.1296432,0.0,-0.0,-0.0,-0.1875,-0.2255859,-0.371582,0.2144198,0.319374,0.3200917,-28.94401,22.34326,-141.789,-28.45779,23.33218,-141.7117,S_UP
0.0,0.0,0.0,0.0,-0.699,0.183,0.0,-0.4948808,0.1295611,0.0,-0.0,-0.0,-0.1816406,-0.2282715,-0.3757324,0.01594663,0.2430381,0.182687,-28.93846,22.3487,-141.7942,-28.67754,22.44837,-142.174,S_UP
0.0,0.0,0.0,0.0,-0.699,0.183,0.0,-0.4945735,0.1294807,0.0,-0.0,-0.0,-0.1794434,-0.2297363,-0.3706055,-0.2435954,0.1361679,0.182687,-28.94621,22.35097,-141.7921,-29.15864,22.36881,-141.8121,S_UP
0.0,0.0,0.0,0.0,-0.699,0.183,0.0,-0.4942723,0.1294018,0.0,-0.0,-0.0,-0.1799316,-0.2304688,-0.3708496,-0.3199313,-0.1081069,0.3658931,-28.95589,22.35039,-141.7861,-29.21066,22.39618,-141.7467,S_UP
0.0,0.0,0.0,0.0,-0.699,0.183,0.0,-0.4939772,0.1293245,0.0,-0.0,-0.0,-0.182373,-0.2312012,-0.371582,-0.2283282,-0.2302443,0.1521528,-28.96362,22.35267,-141.7804,-29.18595,22.62252,-141.6038,S_UP
0.0,0.0,0.0,0.0,-0.699,0.183,0.0,-0.4936879,0.1292488,0.0,-0.0,-0.0,-0.1799316,-0.2268066,-0.3608398,-0.3046641,-0.2302443,0.2132213,-28.97568,22.36022,-141.767,-29.35768,22.88832,-141.259,S_UP
0.0,0.0,0.0,0.0,-0.699,0.183,0.0,-0.4934044,0.1291746,0.0,-0.0,-0.0,-0.1799316,-0.2270508,-0.3696289,-0.1214581,0.1667023,0.06054974,-28.97608,22.36587,-141.7691,-28.91206,22.52797,-141.9119,S_UP
0.0,0.0,0.0,0.0,-0.699,0.183,0.0,-0.4931266,0.1291019,0.0,-0.0,-0.0,-0.1809082,-0.2280273,-0.3806152,0.1380839,0.1514351,0.2132213,-28.96301,22.36427,-141.7827,-28.41744,22.18229,-142.5932,S_UP
0.0,0.0,0.0,0.0,-0.699,0.183,0.0,-0.4928543,0.1290306,0.0,-0.0,-0.0,-0.1799316,-0.2277832,-0.3730469,0.2907557,0.2583054,0.4574962,-28.95595,22.36803,-141.783,-28.80952,22.37483,-142.1127,S_UP
0.0,0.0,0.0,0.0,-0.699,0.183,0.0,-0.4925875,0.1289608,0.0,-0.0,-0.0,-0.1777344,-0.232666,-0.3735352,0.32129,-0.07757253,0.3658931,-28.95953,22.35946,-141.7805,-29.35564,21.99265,-141.9099,S_UP
0.0,0.0,0.0,0.0,-0.699,0.183,0.0,-0.4923261,0.1288923,0.0,-0.0,-0.0,-0.1828613,-0.2319336,-0.3710938,0.2907557,-0.3065802,0.5643663,-28.96188,22.36163,-141.7668,-29.27632,22.67821,-141.4841,S_UP
0.0,0.0,0.0,0.0,-0.699,0.183,0.0,-0.4920698,0.1288252,0.0,-0.0,-0.0,-0.1806641,-0.2299805,-0.3764648,0.06174803,-0.1081069,0.6712368,-28.95868,22.35832,-141.7654,-28.84414,22.27038,-142.1582,S_UP
0.0,0.0,0.0,0.0,-0.699,0.183,0.0,-0.4918187,0.1287595,0.0,-0.0,-0.0,-0.1831055,-0.2307129,-0.3679199,0.1075497,-0.4134504,0.3811603,-28.96411,22.36231,-141.7509,-29.30951,22.86205,-141.3205,S_UP
0.0,0.0,0.0,0.0,-0.699,0.183,0.0,-0.4922576,0.1288744,0.0,-0.0,-0.0,-0.1816406,-0.2258301,-0.3735352,0.0006792545,-0.4287176,0.3200917,-28.95548,22.36106,-141.7554,-28.53295,22.59389,-142.1932,S_UP
0.0,0.0,0.0,0.0,-0.699,0.183,0.0,-0.4920028,0.1288077,0.0,-0.0,-0.0,-0.1831055,-0.2319336,-0.369873,-0.01458788,-0.2760458,0.1521528,-28.96326,22.36513,-141.7457,-29.3347,22.75376,-141.3778,S_UP
0.0,0.0,0.0,0.0,-0.699,0.183,0.0,-0.4917531,0.1287423,0.0,-0.0,-0.0,-0.1816406,-0.230957,-0.364502,0.1380839,-0.1844428,0.2132213,-28.97326,22.37186,-141.7304,-29.55798,22.82816,-141.1275,S_UP
0.0,0.0,0.0,0.0,-0.699,0.183,0.0,-0.4915083,0.1286782,0.0,-0.0,-0.0,-0.1799316,-0.2277832,-0.3737793,0.2907557,0.07509923,0.2742901,-28.96523,22.37237,-141.7354,-28.77102,22.34602,-142.1671,S_UP
0.0,0.0,0.0,0.0,-0.699,0.183,0.0,-0.4912683,0.1286154,0.0,-0.0,-0.0,-0.1811523,-0.2294922,-0.369873,0.3060229,0.2735725,0.4574962,-28.96428,22.38059,-141.7279,-29.12741,22.5956,-141.6746,S_UP
0.0,0.0,0.0,0.0,-0.699,0.183,0.0,-0.4910333,0.1285539,0.0,-0.0,-0.0,-0.1838379,-0.2316895,-0.375,0.1228168,0.1819695,0.442229,-28.9637,22.38825,-141.722,-29.01983,22.63881,-141.737,S_UP
0.0,0.0,0.0,0.0,-0.699,0.183,0.0,-0.4908029,0.1284935,0.0,-0.0,-0.0,-0.1850586,-0.2285156,-0.3708496,0.03121376,0.01403052,0.3048244,-28.96138,22.40104,-141.7148,-28.87054,23.01746,-141.5887,S_UP
0.0,0.0,0.0,0.0,-0.699,0.183,0.0,-0.4912621,0.1286138,0.0,-0.0,-0.0,-0.1850586,-0.229248,-0.3703613,-0.01458788,0.2430381,0.4574962,-28.96183,22.41673,-141.7042,-28.97373,23.0189,-141.4979,S_UP
0.0,0.0,0.0,0.0,-0.699,0.183,0.0,-0.4910272,0.1285523,0.0,-0.0,-0.0,-0.1828613,-0.2241211,-0.3701172,0.1686182,0.07509923,0.5643663,-28.95022,22.42762,-141.7022,-28.49733,22.90985,-141.9915,S_UP
0.0,0.0,0.0,0.0,-0.699,0.183,0.0,-0.4907969,0.128492,0.0,-0.0,-0.0,-0.1850586,-0.229248,-0.3669434,0.2449541,0.4109771,0.3200917,-28.95094,22.44785,-141.6885,-29.15389,23.15709,-141.2388,S_UP
0.0,0.0,0.0,0.0,-0.699,0.183,0.0,-0.4905713,0.1284329,0.0,-0.0,-0.0,-0.1799316,-0.2297363,-0.3723145,0.2602212,0.578916,0.2437558,-28.94945,22.45397,-141.6896,-29.0553,22.3565,-141.9114,S_UP
0.0,0.0,0.0,0.0,-0.699,0.183,0.0,-0.4903502,0.128375,0.0,-0.0,-0.0,-0.1760254,-0.2290039,-0.3745117,0.3976259,0.4262443,0.4574962,-28.94421,22.44774,-141.6967,-28.95992,21.85024,-142.3591,S_UP
0.0,0.0,0.0,0.0,-0.699,0.183,0.0,-0.4901334,0.1283183,0.0,-0.0,-0.0,-0.1843262,-0.2226563,-0.3718262,0.2754886,0.4415114,0.2895572,-28.92583,22.46565,-141.7016,-28.21409,23.04045,-142.1389,S_UP
0.0,0.0,0.0,0.0,-0.699,0.183,0.0,-0.489921,0.1282627,0.0,-0.0,-0.0,-0.182373,-0.2255859,-0.3881836,0.6113663,0.4415114,0.5032978,-28.89379,22.46454,-141.7253,-27.74332,22.10707,-143.2297,S_UP
0.0,0.0,0.0,0.0,-0.699,0.183,0.0,-0.489713,0.1282082,0.0,-0.0,-0.0,-0.1784668,-0.2319336,-0.3666992,0.2602212,0.3346412,0.2284887,-28.90489,22.467,-141.7158,-29.62745,22.3582,-141.4079,S_UP
0.0,0.0,0.0,0.0,-0.699,0.183,0.0,-0.489509,0.1281548,0.0,-0.0,-0.0,-0.1816406,-0.2302246,-0.3642578,0.2907557,0.1514351,0.03001523,-28.91267,22.47687,-141.7043,-29.49313,22.85658,-141.1636,S_UP
0.0,0.0,0.0,0.0,-0.699,0.183,0.0,-0.4893091,0.1281024,0.0,-0.0,-0.0,-0.1843262,-0.2248535,-0.369873,0.5197632,0.3957099,0.259023,-28.89829,22.49409,-141.7033,-28.55059,23.06606,-141.8299,S_UP
0.0,0.0,0.0,0.0,-0.699,0.183,0.0,-0.4891132,0.1280512,0.0,-0.0,-0.0,-0.1738281,-0.2272949,-0.390625,0.5350306,0.07509923,0.3048244,-28.8729,22.46599,-141.7405,-27.99576,21.03802,-143.776,S_UP
0.0,0.0,0.0,0.0,-0.699,0.183,0.0,-0.4889213,0.1280009,0.0,-0.0,-0.0,-0.1784668,-0.2355957,-0.3701172,0.3976259,-0.1081069,0.2895572,-28.88656,22.45789,-141.7295,-29.82858,22.13511,-141.3906,S_UP
0.0,0.0,0.0,0.0,-0.699,0.183,0.0,-0.4887331,0.1279516,0.0,-0.0,-0.0,-0.1816406,-0.2275391,-0.3754883,0.04648089,-0.3981832,0.5949008,-28.88008,22.44966,-141.7263,-28.61278,22.47548,-142.2105,S_UP
0.0,0.0,0.0,0.0,-0.699,0.183,0.0,-0.4940289,0.1293381,0.0,-0.0,-0.0,-0.1826172,-0.2263184,-0.3728027,-0.09092379,-0.5203207,0.442229,-28.87578,22.44743,-141.7262,-28.59824,22.72053,-142.0437,S_UP
0.0,0.0,0.0,0.0,-0.699,0.183,0.0,-0.4944237,0.1294414,0.0,-0.0,-0.0,-0.1835938,-0.2304688,-0.3725586,-0.09092379,-0.123374,0.2895572,-28.88002,22.45154,-141.7209,-29.02559,22.73785,-141.6595,S_UP
0.0,0.0,0.0,0.0,-0.699,0.183,0.0,-0.4941255,0.1293634,0.0,-0.0,-0.0,-0.1796875,-0.2263184,-0.375,0.1533511,-0.01650381,-0.1073892,-28.87147,22.44839,-141.7356,-28.55769,22.30561,-142.382,S_UP
0.0,0.0,0.0,0.0,-0.699,0.183,0.0,-0.4938333,0.1292869,0.0,-0.0,-0.0,-0.1875,-0.2370605,-0.3720703,0.3518243,0.1667023,-0.1989923,-28.88199,22.46223,-141.7218,-29.63882,23.02563,-140.9116,S_UP
0.0,0.0,0.0,0.0,-0.699,0.183,0.0,-0.4935469,0.1292119,0.0,-0.0,-0.0,-0.1816406,-0.2282715,-0.3679199,0.2754886,0.5483816,0.2742901,-28.88234,22.47568,-141.7154,-29.0886,22.7586,-141.5894,S_UP
0.0,0.0,0.0,0.0,-0.699,0.183,0.0,-0.4932662,0.1291384,0.0,-0.0,-0.0,-0.1838379,-0.2275391,-0.3686523,-0.06038928,0.227771,0.2437558,-28.8838,22.48917,-141.7091,-28.91403,22.9941,-141.5681,S_UP
0.0,0.0,0.0,0.0,-0.699,0.183,0.0,-0.4929912,0.1290664,0.0,-0.0,-0.0,-0.1821289,-0.2265625,-0.3623047,-0.1214581,0.01403052,-0.2447939,-28.89165,22.50127,-141.7035,-29.19273,23.08469,-141.2585,S_UP
0.0,0.0,0.0,0.0,-0.699,0.183,0.0,-0.4927216,0.1289958,0.0,-0.0,-0.0,-0.1865234,-0.2263184,-0.3730469,0.0,0.2125039,0.2284887,-28.88353,22.51729,-141.7026,-28.48545,23.14585,-141.8268,S_UP
0.0,0.0,0.0,0.0,-0.699,0.183,0.0,-0.4931425,0.129106,0.0,-0.0,-0.0,-0.184082,-0.2260742,-0.3652344,-0.2283282,0.09036642,0.03001523,-28.88762,22.53214,-141.6961,-28.93147,23.19779,-141.4021,S_UP
0.0,0.0,0.0,0.0,-0.699,0.183,0.0,-0.4928699,0.1290347,0.0,-0.0,-0.0,-0.1838379,-0.2321777,-0.3781738,-0.289397,-0.06230533,0.1674199,-28.89195,22.5307,-141.6986,-28.90572,22.50297,-141.9356,S_UP
0.0,0.0,0.0,0.0,-0.699,0.183,0.0,-0.4926028,0.1289648,0.0,-0.0,-0.0,-0.1787109,-0.2258301,-0.3847656,-0.01458788,0.2583054,0.03001523,-28.87485,22.52022,-141.728,-28.02695,21.82948,-143.1861,S_UP
0.0,0.0,0.0,0.0,-0.699,0.183,0.0,-0.4923411,0.1288962,0.0,-0.0,-0.0,-0.1816406,-0.2287598,-0.3676758,0.1533511,0.2888396,0.259023,-28.87832,22.5289,-141.7205,-29.15365,22.75623,-141.5343,S_UP
0.0,0.0,0.0,0.0,-0.699,0.183,0.0,-0.4920846,0.1288291,0.0,-0.0,-0.0,-0.1784668,-0.2282715,-0.3718262,0.07701516,0.5025801,0.1674199,-28.87888,22.53065,-141.7251,-28.96315,22.24656,-142.0715,S_UP
0.0,0.0,0.0,0.0,-0.699,0.183,0.0,-0.4925182,0.1289426,0.0,-0.0,-0.0,-0.1813965,-0.2290039,-0.3737793,0.07701516,0.1209008,0.3964274,-28.87751,22.5313,-141.7249,-28.8632,22.48042,-141.9891,S_UP
0.0,0.0,0.0,0.0,-0.699,0.183,0.0,-0.4922581,0.1288745,0.0,-0.0,-0.0,-0.1813965,-0.2319336,-0.3688965,0.03121376,-0.2149771,0.6407022,-28.88817,22.52975,-141.7097,-29.43174,22.60128,-141.4039,S_UP
0.0,0.0,0.0,0.0,-0.699,0.183,0.0,-0.4920033,0.1288078,0.0,-0.0,-0.0,-0.182373,-0.229248,-0.3771973,-0.09092379,-0.001236677,0.5032978,-28.88538,22.52812,-141.7119,-28.68605,22.449,-142.1662,S_UP
0.0,0.0,0.0,0.0,-0.699,0.183,0.0,-0.4917535,0.1287424,0.0,-0.0,-0.0,-0.1791992,-0.229248,-0.3725586,-0.09092379,-0.1386412,0.5185649,-28.88919,22.52105,-141.7103,-29.00935,22.27663,-142.0094,S_UP
0.0,0.0,0.0,0.0,-0.699,0.183,0.0,-0.4921937,0.1288576,0.0,-0.0,-0.0,-0.1833496,-0.2250977,-0.3710938,0.04648089,-0.4897862,0.3811603,-28.88154,22.52193,-141.7101,-28.53835,22.90105,-141.9626,S_UP
0.0,0.0,0.0,0.0,-0.699,0.183,0.0,-0.4919402,0.1287913,0.0,-0.0,-0.0,-0.1804199,-0.2338867,-0.3693848,-0.197794,-0.2760458,0.2895572,-28.89937,22.51619,-141.6989,-29.6373,22.42431,-141.3515,S_UP
0.0,0.0,0.0,0.0,-0.699,0.183,0.0,-0.4916916,0.1287262,0.0,-0.0,-0.0,-0.1787109,-0.2333984,-0.3654785,-0.07565641,-0.2760458,0.4880307,-28.91927,22.51003,-141.6821,-29.84279,22.39714,-141.1897,S_UP
0.0,0.0,0.0,0.0,-0.699,0.183,0.0,-0.4914481,0.1286624,0.0,-0.0,-0.0,-0.1865234,-0.2297363,-0.3662109,-0.1214581,-0.07757253,0.3964274,-28.92666,22.52553,-141.6642,-29.20526,23.3383,-141.0596,S_UP
0.0,0.0,0.0,0.0,-0.699,0.183,0.0,-0.4912095,0.1286,0.0,-0.0,-0.0,-0.185791,-0.2285156,-0.3811035,0.01594663,-0.1081069,0.1674199,-28.91437,22.52723,-141.6745,-28.32372,22.69007,-142.3035,S_UP
0.0,0.0,0.0,0.0,-0.699,0.183,0.0,-0.4916605,0.1287181,0.0,-0.0,-0.0,-0.184082,-0.2270508,-0.3696289,-0.1672597,0.02929771,0.259023,-28.91446,22.53697,-141.6707,-28.80429,22.99409,-141.6635,S_UP
0.0,0.0,0.0,0.0,-0.699,0.183,0.0,-0.4914176,0.1286545,0.0,-0.0,-0.0,-0.1867676,-0.2299805,-0.3742676,-0.2435954,0.02929771,0.03001523,-28.91558,22.5473,-141.6696,-28.80305,23.0336,-141.6353,S_UP
0.0,0.0,0.0,0.0,-0.699,0.183,0.0,-0.4911795,0.1285921,0.0,-0.0,-0.0,-0.1882324,-0.2275391,-0.3684082,-0.2741299,0.1361679,0.182687,-28.91724,22.56812,-141.6593,-28.81064,23.49486,-141.2853,S_UP
0.0,0.0,0.0,0.0,-0.699,0.183,0.0,-0.4909462,0.1285311,0.0,-0.0,-0.0,-0.1838379,-0.2287598,-0.3710938,-0.2130611,0.4567786,0.091084,-28.92012,22.58034,-141.6581,-28.91543,22.86549,-141.6617,S_UP
0.0,0.0,0.0,0.0,-0.699,0.183,0.0,-0.4907176,0.1284712,0.0,-0.0,-0.0,-0.1821289,-0.2314453,-0.3718262,0.0922823,0.5483816,-0.01578617,-28.92456,22.58785,-141.6576,-29.20512,22.57967,-141.6183,S_UP
0.0,0.0,0.0,0.0,-0.699,0.183,0.0,-0.4904935,0.1284125,0.0,-0.0,-0.0,-0.1804199,-0.2304688,-0.371582,0.04648089,0.5331145,-0.168458,-28.92857,22.59237,-141.6624,-29.15911,22.42215,-141.773,S_UP
0.0,0.0,0.0,0.0,-0.699,0.183,0.0,-0.490959,0.1285344,0.0,-0.0,-0.0,-0.1835938,-0.230957,-0.3686523,-0.1061909,0.5331145,-0.3211298,-28.93712,22.60546,-141.6601,-29.28348,22.88128,-141.3291,S_UP
0.0,0.0,0.0,0.0,-0.699,0.183,0.0,-0.49073,0.1284745,0.0,-0.0,-0.0,-0.1843262,-0.2287598,-0.3806152,-0.1519923,0.3499084,-0.07685494,-28.92867,22.609,-141.6747,-28.41036,22.54249,-142.337,S_UP
0.0,0.0,0.0,0.0,-0.699,0.183,0.0,-0.4905057,0.1284158,0.0,-0.0,-0.0,-0.1757813,-0.2312012,-0.3710938,-0.4573359,0.5025801,0.0,-28.94401,22.60176,-141.6803,-29.38179,21.90208,-141.9516,S_UP
0.0,0.0,0.0,0.0,-0.699,0.183,0.0,-0.4902859,0.1283582,0.0,-0.0,-0.0,-0.1831055,-0.2294922,-0.3710938,-0.1825268,0.5636489,-0.3669312,-28.94787,22.61277,-141.6847,-29.01206,22.76567,-141.6509,S_UP
0.0,0.0,0.0,0.0,-0.699,0.183,0.0,-0.4900705,0.1283018,0.0,-0.0,-0.0,-0.1813965,-0.2282715,-0.3725586,-0.197794,0.7163206,-0.4432673,-28.94863,22.62127,-141.6961,-28.84969,22.54634,-141.9528,S_UP
0.0,0.0,0.0,0.0,-0.699,0.183,0.0,-0.4898594,0.1282465,0.0,-0.0,-0.0,-0.1774902,-0.2290039,-0.3679199,-0.01458788,0.7621221,-0.5654044,-28.95537,22.62549,-141.7061,-29.27518,22.27205,-141.7799,S_UP
0.0,0.0,0.0,0.0,-0.699,0.183,0.0,-0.4903375,0.1283717,0.0,-0.0,-0.0,-0.1835938,-0.2265625,-0.3708496,0.03121376,0.487313,-0.4127328,-28.94986,22.63771,-141.7141,-28.70105,22.90222,-141.8208,S_UP
0.0,0.0,0.0,0.0,-0.699,0.183,0.0,-0.490121,0.128315,0.0,-0.0,-0.0,-0.1835938,-0.2331543,-0.3688965,0.01594663,0.746855,-0.5806718,-28.96069,22.65154,-141.7115,-29.50247,22.81649,-141.1848,S_UP
0.0,0.0,0.0,0.0,-0.699,0.183,0.0,-0.4899089,0.1282595,0.0,-0.0,-0.0,-0.1862793,-0.2214355,-0.3652344,-0.289397,0.2888396,-0.4432673,-28.95291,22.67374,-141.7156,-28.37317,23.56349,-141.6109,S_UP
0.0,0.0,0.0,0.0,-0.699,0.183,0.0,-0.489701,0.1282051,0.0,-0.0,-0.0,-0.184082,-0.2324219,-0.3730469,-0.6100078,0.1209008,-0.09212208,-28.96607,22.67642,-141.713,-29.19278,22.72484,-141.5231,S_UP
0.0,0.0,0.0,0.0,-0.699,0.183,0.0,-0.4894973,0.1281518,0.0,-0.0,-0.0,-0.1831055,-0.2268066,-0.3684082,-0.8695498,-0.07757253,-0.1989923,-28.97604,22.68063,-141.7144,-28.86798,22.94008,-141.648,S_UP
0.0,0.0,0.0,0.0,-0.699,0.183,0.0,-0.4892977,0.1280995,0.0,-0.0,-0.0,-0.1853027,-0.2290039,-0.380127,-0.6252747,0.3957099,-0.3974657,-28.97445,22.6861,-141.7305,-28.43664,22.66331,-142.2256,S_UP
0.0,0.0,0.0,0.0,-0.699,0.183,0.0,-0.489787,0.1282276,0.0,-0.0,-0.0,-0.1809082,-0.2277832,-0.3852539,-0.5336719,0.7010534,-0.7486105,-28.96538,22.68218,-141.7651,-28.15505,22.00926,-142.9456,S_UP
0.0,0.0,0.0,0.0,-0.699,0.183,0.0,-0.4895816,0.1281738,0.0,-0.0,-0.0,-0.1801758,-0.2302246,-0.3657227,-0.289397,0.9147939,-0.3516641,-28.97911,22.69374,-141.7618,-29.45325,22.63251,-141.3623,S_UP
0.0,0.0,0.0,0.0,-0.699,0.183,0.0,-0.4893803,0.1281211,0.0,-0.0,-0.0,-0.1813965,-0.2265625,-0.3737793,-0.197794,0.8231909,-0.3974657,-28.97433,22.70194,-141.7755,-28.60432,22.53924,-142.1713,S_UP
0.0,0.0,0.0,0.0,-0.699,0.183,0.0,-0.4891829,0.1280694,0.0,-0.0,-0.0,-0.1882324,-0.2331543,-0.3674316,-0.4573359,0.7926565,-0.2905953,-28.99023,22.7266,-141.76,-29.45585,23.39118,-140.8015,S_UP
0.0,0.0,0.0,0.0,-0.699,0.183,0.0,-0.4889896,0.1280188,0.0,-0.0,-0.0,-0.1853027,-0.2302246,-0.3737793,-0.5031376,0.5636489,-0.428,-28.99517,22.7375,-141.764,-28.89189,22.88505,-141.6678,S_UP
0.0,0.0,0.0,0.0,-0.699,0.183,0.0,-0.4888001,0.1279692,0.0,-0.0,-0.0,-0.182373,-0.2290039,-0.3686523,-0.6100078,0.8689924,-0.3669312,-29.0058,22.75054,-141.7647,-29.10845,22.79332,-141.5466,S_UP
0.0,0.0,0.0,0.0,-0.699,0.183,0.0,-0.4886144,0.1279206,0.0,-0.0,-0.0,-0.1843262,-0.2290039,-0.3671875,-0.8542824,0.8231909,-0.3211298,-29.02009,22.76825,-141.7602,-29.13452,23.07134,-141.3192,S_UP
0.0,0.0,0.0,0.0,-0.699,0.183,0.0,-0.4884324,0.1278729,0.0,-0.0,-0.0,-0.1831055,-0.2307129,-0.3681641,-0.7016106,0.6247175,-0.5196033,-29.03525,22.7785,-141.7589,-29.29651,22.85229,-141.339,S_UP
0.0,0.0,0.0,0.0,-0.699,0.183,0.0,-0.4882541,0.1278262,0.0,-0.0,-0.0,-0.1799316,-0.2250977,-0.3723145,-0.7168779,0.6857863,-0.5959387,-29.03562,22.78171,-141.7771,-28.56183,22.46843,-142.2599,S_UP
0.0,0.0,0.0,0.0,-0.699,0.183,0.0,-0.4880793,0.1277805,0.0,-0.0,-0.0,-0.1818848,-0.2236328,-0.3664551,-0.4726033,0.8537251,-0.5196033,-29.03464,22.79701,-141.7849,-28.66242,22.96114,-141.8108,S_UP
0.0,0.0,0.0,0.0,-0.699,0.183,0.0,-0.487908,0.1277356,0.0,-0.0,-0.0,-0.1787109,-0.2287598,-0.3684082,-0.3657329,0.0,-0.5654044,-29.04278,22.78901,-141.7923,-29.19116,22.3968,-141.7633,S_UP
0.0,0.0,0.0,0.0,-0.699,0.183,0.0,-0.4877401,0.1276917,0.0,-0.0,-0.0,-0.1782227,-0.2255859,-0.369873,-0.2130611,0.8842595,-0.6722746,-29.04058,22.79258,-141.8085,-28.78629,22.36097,-142.143,S_UP
0.0,0.0,0.0,0.0,-0.699,0.183,0.0,-0.4875756,0.1276486,0.0,-0.0,-0.0,-0.1801758,-0.2307129,-0.3720703,-0.3199313,0.6399847,-0.2905953,-29.04997,22.79792,-141.8147,-29.16528,22.36974,-141.8056,S_UP
0.0,0.0,0.0,0.0,-0.699,0.183,0.0,-0.4928946,0.1290411,0.0,-0.0,-0.0,-0.1831055,-0.2331543,-0.3710938,-0.4115343,0.578916,-0.4432673,-29.06258,22.80341,-141.8121,-29.39839,22.67524,-141.3793,S_UP
0.0,0.0,0.0,0.0,-0.699,0.183,0.0,-0.492627,0.1289711,0.0,-0.0,-0.0,-0.1835938,-0.2265625,-0.3710938,-0.5336719,0.5331145,-0.5196033,-29.06242,22.8125,-141.8198,-28.6883,22.89238,-141.8392,S_UP
0.0,0.0,0.0,0.0,-0.699,0.183,0.0,-0.4923647,0.1289024,0.0,-0.0,-0.0,-0.1865234,-0.2324219,-0.371582,-0.6558094,0.2735725,-0.428,-29.07429,22.82107,-141.8146,-29.2059,23.05346,-141.2701,S_UP
0.0,0.0,0.0,0.0,-0.699,0.183,0.0,-0.4921077,0.1288351,0.0,-0.0,-0.0,-0.1845703,-0.2282715,-0.3833008,-0.6863437,0.578916,-0.3211298,-29.06656,22.82211,-141.8338,-28.21684,22.47581,-142.553,S_UP
0.0,0.0,0.0,0.0,-0.699,0.183,0.0,-0.4918558,0.1287692,0.0,-0.0,-0.0,-0.1784668,-0.2321777,-0.3596191,-0.4878702,0.7621221,-0.4585342,-29.09275,22.82877,-141.8203,-30.04175,22.63239,-140.8436,S_UP
0.0,0.0,0.0,0.0,-0.699,0.183,0.0,-0.491609,0.1287045,0.0,-0.0,-0.0,-0.1816406,-0.2294922,-0.3674316,-0.5336719,0.7315878,-0.3974657,-29.10311,22.83719,-141.8186,-29.24467,22.74772,-141.461,S_UP
0.0,0.0,0.0,0.0,-0.699,0.183,0.0,-0.4913671,0.1286412,0.0,-0.0,-0.0,-0.1831055,-0.2241211,-0.3666992,-0.5794735,0.746855,-0.2295268,-29.1024,22.85223,-141.8197,-28.67011,23.07686,-141.7185,S_UP
0.0,0.0,0.0,0.0,-0.699,0.183,0.0,-0.4911301,0.1285792,0.0,-0.0,-0.0,-0.182373,-0.2299805,-0.3657227,-0.5947404,0.6094504,-0.2905953,-29.11588,22.86127,-141.8123,-29.36865,22.88642,-141.2508,S_UP
0.0,0.0,0.0,0.0,-0.699,0.183,0.0,-0.4908978,0.1285183,0.0,-0.0,-0.0,-0.1762695,-0.2270508,-0.3686523,-0.6863437,0.5331145,-0.3211298,-29.12415,22.85441,-141.8216,-29.05848,22.15242,-142.0561,S_UP
0.0,0.0,0.0,0.0,-0.699,0.183,0.0,-0.4906701,0.1284587,0.0,-0.0,-0.0,-0.1801758,-0.2316895,-0.3664551,-0.900084,0.2888396,-0.2905953,-29.14541,22.85262,-141.8154,-29.56948,22.56671,-141.308,S_UP
0.0,0.0,0.0,0.0,-0.699,0.183,0.0,-0.4904469,0.1284003,0.0,-0.0,-0.0,-0.1821289,-0.2253418,-0.3728027,0.0,0.3346412,-0.09212208,-29.13264,22.85395,-141.8232,-28.50665,22.68959,-142.1458,S_UP
0.0,0.0,0.0,0.0,-0.699,0.183,0.0,-0.4902283,0.1283431,0.0,-0.0,-0.0,-0.1777344,-0.2253418,-0.371582,0.0,0.4109771,-0.07685494,-29.12362,22.84739,-141.8342,-28.68206,22.24397,-142.3186,S_UP
0.0,0.0,0.0,0.0,-0.699,0.183,0.0,-0.490014,0.128287,0.0,-0.0,-0.0,-0.1860352,-0.2265625,-0.3857422,-0.7932138,0.5331145,-0.1531909,-29.11041,22.84988,-141.8551,-27.88023,22.58021,-142.766,S_UP
0.0,0.0,0.0,0.0,-0.699,0.183,0.0,-0.4904891,0.1284113,0.0,-0.0,-0.0,-0.1789551,-0.2277832,-0.3779297,-0.8237481,0.227771,-0.09212208,-29.11108,22.83751,-141.8699,-28.57848,22.07496,-142.5309,S_UP
0.0,0.0,0.0,0.0,-0.699,0.183,0.0,-0.4902695,0.1283539,0.0,-0.0,-0.0,-0.1804199,-0.2312012,-0.3691406,-0.6710763,0.3041069,0.0147481,-29.1254,22.83494,-141.863,-29.3668,22.50023,-141.5343,S_UP
0.0,0.0,0.0,0.0,-0.699,0.183,0.0,-0.4900544,0.1282976,0.0,-0.0,-0.0,-0.1782227,-0.2307129,-0.3774414,-0.5947404,0.3499084,0.091084,-29.12967,22.82191,-141.8708,-28.93093,21.94363,-142.3177,S_UP
0.0,0.0,0.0,0.0,-0.699,0.183,0.0,-0.4898436,0.1282424,0.0,-0.0,-0.0,-0.1762695,-0.223877,-0.3742676,-0.7932138,0.4262443,0.259023,-29.12637,22.81147,-141.8842,-28.42042,22.0076,-142.7168,S_UP
0.0,0.0,0.0,0.0,-0.699,0.183,0.0,-0.489637,0.1281883,0.0,-0.0,-0.0,-0.1772461,-0.2194824,-0.3815918,-0.7474122,0.2735725,0.2284887,-29.10507,22.79763,-141.9138,-27.54874,21.93168,-143.5241,S_UP
0.0,0.0,0.0,0.0,-0.699,0.183,0.0,-0.4894346,0.1281353,0.0,-0.0,-0.0,-0.1762695,-0.2263184,-0.373291,-0.4878702,0.09036642,0.1368854,-29.10432,22.78268,-141.9228,-28.73289,21.98831,-142.4587,S_UP
0.0,0.0,0.0,0.0,-0.699,0.183,0.0,-0.4892362,0.1280833,0.0,-0.0,-0.0,-0.1757813,-0.2265625,-0.3671875,-0.3046641,-0.001236677,0.2284887,-29.10836,22.77034,-141.9215,-29.0975,22.16651,-142.0117,S_UP
0.0,0.0,0.0,0.0,-0.699,0.183,0.0,-0.4890418,0.1280324,0.0,-0.0,-0.0,-0.1835938,-0.2253418,-0.3632813,-0.4115343,-0.06230533,0.3811603,-29.11123,22.77892,-141.9045,-28.96951,23.24177,-141.3364,S_UP
0.0,0.0,0.0,0.0,-0.699,0.183,0.0,-0.4888513,0.1279826,0.0,-0.0,-0.0,-0.1801758,-0.2319336,-0.3759766,-0.6710763,-0.382916,0.2132213,-29.12062,22.76148,-141.9034,-29.08733,22.18855,-142.0048,S_UP
0.0,0.0,0.0,0.0,-0.699,0.183,0.0,-0.4893495,0.128113,0.0,-0.0,-0.0,-0.182373,-0.2275391,-0.3666992,-0.5336719,-0.810397,0.3811603,-29.12665,22.75331,-141.8902,-29.05602,22.90854,-141.5076,S_UP
0.0,0.0,0.0,0.0,-0.699,0.183,0.0,-0.4891528,0.1280615,0.0,-0.0,-0.0,-0.1804199,-0.2233887,-0.3632813,-0.5794735,-0.5661222,0.3200917,-29.12893,22.74909,-141.8816,-28.84328,22.93104,-141.6761,S_UP
0.0,0.0,0.0,0.0,-0.699,0.183,0.0,-0.4889601,0.128011,0.0,-0.0,-0.0,-0.1811523,-0.2307129,-0.3774414,-0.6100078,-0.123374,-0.04632068,-29.13188,22.73781,-141.8875,-28.8579,22.26934,-142.147,S_UP
0.0,0.0,0.0,0.0,-0.699,0.183,0.0,-0.4887712,0.1279616,0.0,-0.0,-0.0,-0.1757813,-0.2268066,-0.3728027,-0.4115343,-0.0470382,0.1216183,-29.13135,22.72122,-141.8964,-28.82309,21.94064,-142.4142,S_UP
0.0,0.0,0.0,0.0,-0.699,0.183,0.0,-0.488586,0.1279131,0.0,-0.0,-0.0,-0.1801758,-0.2270508,-0.3771973,0.1838853,0.227771,-0.3211298,-29.11637,22.71505,-141.9121,-28.50891,22.25671,-142.4598,S_UP
0.0,0.0,0.0,0.0,-0.699,0.183,0.0,-0.4884046,0.1278656,0.0,-0.0,-0.0,-0.1794434,-0.2268066,-0.3813477,0.03121376,0.3957099,0.0147481,-29.09936,22.70658,-141.9301,-28.28687,22.01976,-142.8239,S_UP
0.0,0.0,0.0,0.0,-0.699,0.183,0.0,-0.4882268,0.1278191,0.0,-0.0,-0.0,-0.1774902,-0.2236328,-0.3713379,-0.197794,0.1514351,0.1521528,-29.09044,22.69986,-141.9383,-28.51778,22.26693,-142.4447,S_UP
0.0,0.0,0.0,0.0,-0.699,0.183,0.0,-0.4880526,0.1277735,0.0,-0.0,-0.0,-0.1845703,-0.222168,-0.3605957,-0.1214581,-0.2149771,0.2895572,-29.08514,22.71385,-141.9216,-28.74235,23.54651,-141.3056,S_UP
0.0,0.0,0.0,0.0,-0.699,0.183,0.0,-0.4878818,0.1277287,0.0,-0.0,-0.0,-0.1796875,-0.2260742,-0.3640137,0.07701516,-0.1386412,0.0147481,-29.08458,22.71253,-141.9145,-29.11364,22.7501,-141.5737,S_UP
0.0,0.0,0.0,0.0,-0.699,0.183,0.0,-0.4883995,0.1278643,0.0,-0.0,-0.0,-0.1855469,-0.2275391,-0.3725586,0.0006792545,-0.3981832,0.07581687,-29.07619,22.71336,-141.9103,-28.66534,23.02706,-141.7595,S_UP
0.0,0.0,0.0,0.0,-0.699,0.183,0.0,-0.4882218,0.1278177,0.0,-0.0,-0.0,-0.1774902,-0.2258301,-0.3769531,-0.01458788,-0.4897862,0.259023,-29.06403,22.69227,-141.9224,-28.45836,21.99458,-142.6932,S_UP
0.0,0.0,0.0,0.0,-0.699,0.183,0.0,-0.4880476,0.1277722,0.0,-0.0,-0.0,-0.1811523,-0.223877,-0.3662109,0.1991527,-0.09283972,0.5032978,-29.05424,22.6947,-141.9129,-28.72085,22.8821,-141.8185,S_UP
0.0,0.0,0.0,0.0,-0.699,0.183,0.0,-0.488562,0.1279068,0.0,-0.0,-0.0,-0.1772461,-0.2294922,-0.3735352,0.2144198,0.07509923,0.6559694,-29.05087,22.68211,-141.9093,-29.03291,22.01356,-142.1783,S_UP
0.0,0.0,0.0,0.0,-0.699,0.183,0.0,-0.4883811,0.1278594,0.0,-0.0,-0.0,-0.1777344,-0.2290039,-0.3723145,0.3670917,-0.1386412,0.4880307,-29.04549,22.66911,-141.9063,-29.03366,22.1275,-142.0957,S_UP
0.0,0.0,0.0,0.0,-0.699,0.183,0.0,-0.4882038,0.127813,0.0,-0.0,-0.0,-0.184082,-0.2282715,-0.3723145,0.32129,-0.001236677,0.4727633,-29.03604,22.67283,-141.8972,-28.79347,22.85584,-141.7748,S_UP
0.0,0.0,0.0,0.0,-0.699,0.183,0.0,-0.48803,0.1277675,0.0,-0.0,-0.0,-0.1794434,-0.2236328,-0.3701172,0.03121376,-0.4592519,0.6865039,-29.02555,22.6638,-141.8945,-28.53255,22.5366,-142.2355,S_UP
0.0,0.0,0.0,0.0,-0.699,0.183,0.0,-0.4878597,0.1277229,0.0,-0.0,-0.0,-0.1791992,-0.2246094,-0.3691406,-0.2283282,-0.7645955,0.7781069,-29.02207,22.65052,-141.888,-28.69527,22.52441,-142.1031,S_UP
0.0,0.0,0.0,0.0,-0.699,0.183,0.0,-0.4876928,0.1276792,0.0,-0.0,-0.0,-0.1750488,-0.2246094,-0.3713379,-0.289397,-0.810397,0.86971,-29.01928,22.62573,-141.8886,-28.68404,21.96689,-142.5167,S_UP
0.0,0.0,0.0,0.0,-0.699,0.183,0.0,-0.4875292,0.1276364,0.0,-0.0,-0.0,-0.1799316,-0.2294922,-0.3688965,-0.2588627,-0.8409313,0.7781069,-29.02667,22.61162,-141.8736,-29.21124,22.49712,-141.673,S_UP
0.0,0.0,0.0,0.0,-0.699,0.183,0.0,-0.487369,0.1275945,0.0,-0.0,-0.0,-0.1804199,-0.2282715,-0.3666992,-0.3046641,0.0,0.7781069,-29.03434,22.61279,-141.8561,-29.18587,22.66991,-141.5693,S_UP
0.0,0.0,0.0,0.0,-0.699,0.183,0.0,-0.4878969,0.1277327,0.0,-0.0,-0.0,-0.1818848,-0.2270508,-0.3793945,-0.07565641,-0.5203207,0.4574962,-29.02175,22.60061,-141.8631,-28.35334,22.36074,-142.519,S_UP
0.0,0.0,0.0,0.0,-0.699,0.183,0.0,-0.4877293,0.1276888,0.0,-0.0,-0.0,-0.175293,-0.229248,-0.3657227,-0.01458788,-0.5203207,0.5490992,-29.03107,22.58352,-141.8528,-29.47774,22.10281,-141.7235,S_UP
0.0,0.0,0.0,0.0,-0.699,0.183,0.0,-0.4875649,0.1276458,0.0,-0.0,-0.0,-0.1789551,-0.2304688,-0.3754883,0.01594663,-0.4287176,0.7170382,-29.03003,22.56809,-141.8488,-28.98974,22.10621,-142.1495,S_UP
0.0,0.0,0.0,0.0,-0.699,0.183,0.0,-0.487404,0.1276036,0.0,-0.0,-0.0,-0.1833496,-0.2270508,-0.3718262,0.06174803,-0.4134504,0.610168,-29.02275,22.56752,-141.8409,-28.7083,22.82364,-141.8725,S_UP
0.0,0.0,0.0,0.0,-0.699,0.183,0.0,-0.4872462,0.1275623,0.0,-0.0,-0.0,-0.1828613,-0.2214355,-0.3708496,-0.06038928,-0.5203207,0.6254351,-29.00653,22.56795,-141.8405,-28.17074,22.94581,-142.2464,S_UP
0.0,0.0,0.0,0.0,-0.699,0.183,0.0,-0.4870916,0.1275218,0.0,-0.0,-0.0,-0.1860352,-0.2270508,-0.3703613,-0.02985501,-0.5355878,0.5185649,-29.00111,22.5729,-141.8286,-28.71498,23.18251,-141.6012,S_UP
0.0,0.0,0.0,0.0,-0.699,0.183,0.0,-0.48694,0.1274822,0.0,-0.0,-0.0,-0.1838379,-0.2226563,-0.3713379,-0.1061909,-0.5050534,0.7781069,-28.98768,22.57413,-141.8232,-28.25177,23.00569,-142.1323,S_UP
0.0,0.0,0.0,0.0,-0.699,0.183,0.0,-0.4874765,0.1276226,0.0,-0.0,-0.0,-0.1801758,-0.2282715,-0.369873,0.04648089,-0.4287176,0.5338321,-28.98775,22.56708,-141.8159,-29.02297,22.51587,-141.8239,S_UP
0.0,0.0,0.0,0.0,-0.699,0.183,0.0,-0.4873173,0.1275809,0.0,-0.0,-0.0,-0.1821289,-0.2294922,-0.3769531,0.1838853,-0.2149771,0.5490992,-28.98009,22.5613,-141.8149,-28.73054,22.42567,-142.1445,S_UP
0.0,0.0,0.0,0.0,-0.699,0.183,0.0,-0.4871613,0.1275401,0.0,-0.0,-0.0,-0.1801758,-0.2294922,-0.3623047,0.1686182,-0.09283972,0.350626,-28.98937,22.56456,-141.7969,-29.56022,22.78802,-141.1549,S_UP
0.0,0.0,0.0,0.0,-0.699,0.183,0.0,-0.4870083,0.1275,0.0,-0.0,-0.0,-0.1833496,-0.2253418,-0.3703613,-0.02985501,-0.1539084,0.3353589,-28.98205,22.56965,-141.7941,-28.60263,22.9247,-141.8895,S_UP
0.0,0.0,0.0,0.0,-0.699,0.183,0.0,-0.4868585,0.1274608,0.0,-0.0,-0.0,-0.1779785,-0.2241211,-0.3696289,0.4281602,0.07509923,0.2895572,-28.96572,22.56752,-141.7967,-28.64817,22.37852,-142.2504,S_UP
0.0,0.0,0.0,0.0,-0.699,0.183,0.0,-0.4928768,0.1290364,0.0,-0.0,-0.0,-0.182373,-0.2241211,-0.3703613,0.3060229,0.2430381,0.3200917,-28.95215,22.57641,-141.7972,-28.49715,22.84508,-142.0395,S_UP
0.0,0.0,0.0,0.0,-0.699,0.183,0.0,-0.4926095,0.1289665,0.0,-0.0,-0.0,-0.1772461,-0.2270508,-0.3652344,0.4128931,-0.01650381,0.182687,-28.95179,22.57263,-141.7935,-29.21735,22.39884,-141.7389,S_UP
0.0,0.0,0.0,0.0,-0.699,0.183,0.0,-0.4923476,0.1288979,0.0,-0.0,-0.0,-0.1794434,-0.2297363,-0.3623047,0.580832,0.09036642,0.4574962,-28.95691,22.57639,-141.7749,-29.60618,22.69859,-141.1798,S_UP
0.0,0.0,0.0,0.0,-0.699,0.183,0.0,-0.4920909,0.1288307,0.0,-0.0,-0.0,-0.182373,-0.2260742,-0.3637695,0.7335038,0.1819695,0.6559694,-28.94881,22.58866,-141.7583,-29.0551,23.06481,-141.3932,S_UP
0.0,0.0,0.0,0.0,-0.699,0.183,0.0,-0.4918394,0.1287649,0.0,-0.0,-0.0,-0.1806641,-0.2285156,-0.3747559,0.6266336,-0.1386412,0.3964274,-28.93682,22.58242,-141.7605,-28.77894,22.37202,-142.1413,S_UP
0.0,0.0,0.0,0.0,-0.699,0.183,0.0,-0.4915929,0.1287003,0.0,-0.0,-0.0,-0.1816406,-0.2297363,-0.3754883,0.2144198,-0.7645955,0.5796337,-28.93204,22.56874,-141.7583,-28.84487,22.42291,-142.0469,S_UP
0.0,0.0,0.0,0.0,-0.699,0.183,0.0,-0.4913513,0.1286371,0.0,-0.0,-0.0,-0.184082,-0.2253418,-0.373291,0.2602212,-0.8867329,0.7781069,-28.91846,22.56297,-141.7537,-28.43161,22.88822,-142.0643,S_UP
0.0,0.0,0.0,0.0,-0.699,0.183,0.0,-0.4911146,0.1285751,0.0,-0.0,-0.0,-0.1918945,-0.2236328,-0.3720703,-0.1519923,-0.8867329,0.8239083,-28.90439,22.57649,-141.7398,-28.11061,23.8476,-141.6209,S_UP
0.0,0.0,0.0,0.0,-0.699,0.183,0.0,-0.4908826,0.1285144,0.0,-0.0,-0.0,-0.1833496,-0.2290039,-0.3693848,-0.01458788,-0.4134504,0.5032978,-28.90738,22.57676,-141.7289,-29.04405,22.87339,-141.5439,S_UP
0.0,0.0,0.0,0.0,-0.699,0.183,0.0,-0.4906552,0.1284548,0.0,-0.0,-0.0,-0.1835938,-0.2248535,-0.3642578,0.1838853,-0.4745191,0.3811603,-28.90383,22.58253,-141.7177,-28.86502,23.21393,-141.4478,S_UP
0.0,0.0,0.0,0.0,-0.699,0.183,0.0,-0.4911174,0.1285758,0.0,-0.0,-0.0,-0.1884766,-0.2304688,-0.3720703,0.229687,-0.123374,0.5643663,-28.90108,22.59515,-141.7023,-28.92374,23.29862,-141.3339,S_UP
0.0,0.0,0.0,0.0,-0.699,0.183,0.0,-0.4908854,0.1285151,0.0,-0.0,-0.0,-0.1848145,-0.2270508,-0.3666992,0.3823588,0.227771,0.5796337,-28.89659,22.61028,-141.6882,-28.93909,23.19537,-141.3973,S_UP
0.0,0.0,0.0,0.0,-0.699,0.183,0.0,-0.4906579,0.1284555,0.0,-0.0,-0.0,-0.1821289,-0.2216797,-0.3710938,0.1838853,-0.0470382,0.6254351,-28.8802,22.61438,-141.6917,-28.20304,22.84749,-142.2915,S_UP
0.0,0.0,0.0,0.0,-0.699,0.183,0.0,-0.4904351,0.1283972,0.0,-0.0,-0.0,-0.1828613,-0.2268066,-0.3742676,0.0922823,-0.2760458,0.6407022,-28.87268,22.61185,-141.6911,-28.56774,22.67748,-142.1018,S_UP
0.0,0.0,0.0,0.0,-0.699,0.183,0.0,-0.4902167,0.12834,0.0,-0.0,-0.0,-0.1826172,-0.2270508,-0.371582,0.1533511,-0.2302443,0.5032978,-28.86792,22.61149,-141.6883,-28.73992,22.75154,-141.8981,S_UP
0.0,0.0,0.0,0.0,-0.699,0.183,0.0,-0.4900026,0.128284,0.0,-0.0,-0.0,-0.1865234,-0.2270508,-0.3771973,-0.07565641,-0.4745191,0.5796337,-28.8586,22.61196,-141.6882,-28.3502,22.9607,-142.0809,S_UP
0.0,0.0,0.0,0.0,-0.699,0.183,0.0,-0.4897929,0.1282291,0.0,-0.0,-0.0,-0.1877441,-0.2268066,-0.390625,0.04648089,-0.1539084,0.3964274,-28.83327,22.60901,-141.7089,-27.62392,22.56986,-142.9932,S_UP
0.0,0.0,0.0,0.0,-0.699,0.183,0.0,-0.4895874,0.1281752,0.0,-0.0,-0.0,-0.1904297,-0.229248,-0.3713379,0.32129,-0.01650381,0.6254351,-28.82752,22.62808,-141.6905,-28.78153,23.57469,-141.2506,S_UP
0.0,0.0,0.0,0.0,-0.699,0.183,0.0,-0.4900709,0.1283018,0.0,-0.0,-0.0,-0.1826172,-0.2270508,-0.3703613,0.5044961,0.3041069,0.3811603,-28.82012,22.6357,-141.6876,-28.80394,22.80049,-141.8065,S_UP
0.0,0.0,0.0,0.0,-0.699,0.183,0.0,-0.4898598,0.1282466,0.0,-0.0,-0.0,-0.1818848,-0.2294922,-0.3745117,0.5350306,0.2430381,0.4880307,-28.81366,22.6362,-141.6867,-28.864,22.49426,-141.9783,S_UP
0.0,0.0,0.0,0.0,-0.699,0.183,0.0,-0.4896529,0.1281924,0.0,-0.0,-0.0,-0.1853027,-0.2231445,-0.3737793,0.5350306,0.3499084,0.1521528,-28.79287,22.64944,-141.6947,-28.14117,23.05795,-142.1885,S_UP
0.0,0.0,0.0,0.0,-0.699,0.183,0.0,-0.4894502,0.1281393,0.0,-0.0,-0.0,-0.1804199,-0.2304688,-0.3652344,0.3518243,-0.06230533,0.3811603,-28.80217,22.64907,-141.6814,-29.49913,22.67342,-141.2922,S_UP
0.0,0.0,0.0,0.0,-0.699,0.183,0.0,-0.4892515,0.1280873,0.0,-0.0,-0.0,-0.1809082,-0.2277832,-0.3779297,0.4281602,0.02929771,0.442229,-28.79086,22.64233,-141.69,-28.53023,22.2924,-142.4154,S_UP
0.0,0.0,0.0,0.0,-0.699,0.183,0.0,-0.4890567,0.1280363,0.0,-0.0,-0.0,-0.1828613,-0.2241211,-0.378418,0.4128931,0.1361679,0.259023,-28.77076,22.64288,-141.7048,-28.06928,22.57637,-142.6064,S_UP
0.0,0.0,0.0,0.0,-0.699,0.183,0.0,-0.4888659,0.1279864,0.0,-0.0,-0.0,-0.1845703,-0.2277832,-0.3706055,0.2907557,0.1209008,0.3353589,-28.76772,22.6515,-141.6991,-28.81832,22.99102,-141.6536,S_UP
0.0,0.0,0.0,0.0,-0.699,0.183,0.0,-0.4886789,0.1279374,0.0,-0.0,-0.0,-0.1845703,-0.2275391,-0.364502,0.2754886,0.09036642,0.0147481,-28.77087,22.66462,-141.6891,-29.11423,23.24548,-141.2078,S_UP
0.0,0.0,0.0,0.0,-0.699,0.183,0.0,-0.4884956,0.1278894,0.0,-0.0,-0.0,-0.1833496,-0.2265625,-0.3681641,0.3060229,0.1667023,0.06054974,-28.76823,22.67329,-141.6872,-28.84836,22.98349,-141.633,S_UP
0.0,0.0,0.0,0.0,-0.699,0.183,0.0,-0.488316,0.1278424,0.0,-0.0,-0.0,-0.1867676,-0.2287598,-0.3723145,0.2602212,0.3499084,-0.0310533,-28.76455,22.68781,-141.6855,-28.77554,23.14225,-141.5786,S_UP
0.0,0.0,0.0,0.0,-0.699,0.183,0.0,-0.488825,0.1279757,0.0,-0.0,-0.0,-0.1855469,-0.223877,-0.3662109,0.3670917,0.2430381,-0.1379237,-28.75632,22.70495,-141.6847,-28.60501,23.37819,-141.5503,S_UP
0.0,0.0,0.0,0.0,-0.699,0.183,0.0,-0.4886388,0.1279269,0.0,-0.0,-0.0,-0.1865234,-0.2246094,-0.3774414,0.1991527,0.1514351,0.1216183,-28.74006,22.71313,-141.6948,-28.07974,23.00961,-142.2772,S_UP
0.0,0.0,0.0,0.0,-0.699,0.183,0.0,-0.4884563,0.1278791,0.0,-0.0,-0.0,-0.1850586,-0.2253418,-0.3742676,0.1991527,0.01403052,0.04528236,-28.72965,22.71821,-141.7019,-28.35641,22.95758,-142.0779,S_UP
0.0,0.0,0.0,0.0,-0.699,0.183,0.0,-0.4882775,0.1278323,0.0,-0.0,-0.0,-0.1862793,-0.2277832,-0.3679199,0.1533511,-0.09283972,-0.07685494,-28.73124,22.72839,-141.6958,-28.91405,23.29093,-141.348,S_UP
0.0,0.0,0.0,0.0,-0.699,0.183,0.0,-0.4881022,0.1277864,0.0,-0.0,-0.0,-0.1821289,-0.2233887,-0.3659668,0.04648089,0.1209008,-0.01578617,-28.72904,22.7359,-141.6977,-28.65546,23.01489,-141.7771,S_UP
0.0,0.0,0.0,0.0,-0.699,0.183,0.0,-0.4886155,0.1279208,0.0,-0.0,-0.0,-0.1877441,-0.2282715,-0.3688965,0.2754886,0.02929771,0.091084,-28.7282,22.74962,-141.6884,-28.87597,23.4019,-141.2983,S_UP
0.0,0.0,0.0,0.0,-0.699,0.183,0.0,-0.4884335,0.1278732,0.0,-0.0,-0.0,-0.1894531,-0.2270508,-0.3640137,0.4739618,0.2735725,0.2895572,-28.72624,22.7749,-141.6689,-28.95538,23.82603,-140.911,S_UP
0.0,0.0,0.0,0.0,-0.699,0.183,0.0,-0.4882551,0.1278265,0.0,-0.0,-0.0,-0.1853027,-0.2324219,-0.3681641,0.3976259,0.2125039,-0.0310533,-28.73424,22.78362,-141.6577,-29.41873,23.05467,-141.0832,S_UP
0.0,0.0,0.0,0.0,-0.699,0.183,0.0,-0.4887653,0.12796,0.0,-0.0,-0.0,-0.1875,-0.2226563,-0.3679199,0.3823588,0.1514351,0.3048244,-28.72097,22.80117,-141.6533,-28.33331,23.55712,-141.65,S_UP
0.0,0.0,0.0,0.0,-0.699,0.183,0.0,-0.4885803,0.1279116,0.0,-0.0,-0.0,-0.1799316,-0.2246094,-0.3708496,0.489229,0.2125039,0.1979542,-28.71157,22.79883,-141.6613,-28.58642,22.53868,-142.1872,S_UP
0.0,0.0,0.0,0.0,-0.699,0.183,0.0,-0.488399,0.1278641,0.0,-0.0,-0.0,-0.1867676,-0.2277832,-0.3674316,0.5655649,0.6094504,0.2895572,-28.70811,22.81853,-141.6497,-28.92668,23.36546,-141.2815,S_UP
0.0,0.0,0.0,0.0,-0.699,0.183,0.0,-0.4882213,0.1278176,0.0,-0.0,-0.0,-0.1862793,-0.2280273,-0.3730469,0.6419008,0.3957099,0.4269619,-28.6986,22.82912,-141.6452,-28.67282,23.07667,-141.7163,S_UP
0.0,0.0,0.0,0.0,-0.699,0.183,0.0,-0.4880472,0.127772,0.0,-0.0,-0.0,-0.1887207,-0.2312012,-0.3742676,0.8709083,0.7163206,0.3048244,-28.69029,22.84674,-141.6367,-28.88058,23.21875,-141.4308,S_UP
0.0,0.0,0.0,0.0,-0.699,0.183,0.0,-0.4878765,0.1277273,0.0,-0.0,-0.0,-0.1826172,-0.2243652,-0.3740234,0.9625113,0.5025801,0.5338321,-28.66982,22.85108,-141.6422,-28.32684,22.71885,-142.2797,S_UP
0.0,0.0,0.0,0.0,-0.699,0.183,0.0,-0.4877093,0.1276835,0.0,-0.0,-0.0,-0.1794434,-0.2290039,-0.3669434,0.7945726,0.6094504,0.5796337,-28.67105,22.85305,-141.6332,-29.27669,22.53162,-141.5906,S_UP
0.0,0.0,0.0,0.0,-0.699,0.183,0.0,-0.4875454,0.1276407,0.0,-0.0,-0.0,-0.1809082,-0.2265625,-0.3701172,0.672435,0.1972366,0.442229,-28.66458,22.8513,-141.633,-28.80889,22.63038,-141.9269,S_UP
0.0,0.0,0.0,0.0,-0.699,0.183,0.0,-0.4873848,0.1275986,0.0,-0.0,-0.0,-0.1862793,-0.2304688,-0.3791504,0.4281602,-0.3371145,0.3200917,-28.65772,22.84513,-141.6358,-28.6154,22.77414,-141.9894,S_UP
0.0,0.0,0.0,0.0,-0.699,0.183,0.0,-0.4872274,0.1275574,0.0,-0.0,-0.0,-0.1870117,-0.2285156,-0.3691406,0.0922823,-0.2607787,0.3048244,-28.66148,22.85074,-141.6257,-28.90855,23.30425,-141.3429,S_UP
0.0,0.0,0.0,0.0,-0.699,0.183,0.0,-0.4870732,0.127517,0.0,-0.0,-0.0,-0.1867676,-0.2341309,-0.3688965,0.229687,0.3041069,0.07581687,-28.6755,22.86079,-141.6107,-29.5204,23.14481,-140.9276,S_UP
0.0,0.0,0.0,0.0,-0.699,0.183,0.0,-0.486922,0.1274774,0.0,-0.0,-0.0,-0.1899414,-0.2297363,-0.3720703,0.4739618,0.578916,-0.06158781,-28.67165,22.88109,-141.6053,-28.80811,23.47862,-141.2997,S_UP
0.0,0.0,0.0,0.0,-0.699,0.183,0.0,-0.4867739,0.1274387,0.0,-0.0,-0.0,-0.1826172,-0.2290039,-0.3752441,0.4434273,0.838458,-0.0005190372,-28.66682,22.88697,-141.6138,-28.75564,22.55867,-142.0257,S_UP
0.0,0.0,0.0,0.0,-0.699,0.183,0.0,-0.4873137,0.12758,0.0,-0.0,-0.0,-0.1860352,-0.230957,-0.3718262,0.2907557,0.7621221,-0.1531909,-28.67053,22.90021,-141.6121,-29.0519,23.02611,-141.4245,S_UP
0.0,0.0,0.0,0.0,-0.699,0.183,0.0,-0.4871577,0.1275392,0.0,-0.0,-0.0,-0.1828613,-0.2253418,-0.3713379,0.2907557,0.8842595,-0.1379237,-28.66442,22.91095,-141.6216,-28.56425,22.8305,-141.9922,S_UP
0.0,0.0,0.0,0.0,-0.699,0.183,0.0,-0.4870049,0.1274991,0.0,-0.0,-0.0,-0.1760254,-0.2304688,-0.3791504,0.1228168,0.3041069,-0.1226563,-28.66683,22.88968,-141.6426,-28.8695,21.63924,-142.5887,S_UP
0.0,0.0,0.0,0.0,-0.699,0.183,0.0,-0.4868551,0.1274599,0.0,-0.0,-0.0,-0.1867676,-0.2209473,-0.3603516,-0.07565641,0.3957099,-0.04632068,-28.66579,22.91409,-141.6352,-28.5626,23.83822,-141.2407,S_UP
0.0,0.0,0.0,0.0,-0.699,0.183,0.0,-0.4867083,0.1274215,0.0,-0.0,-0.0,-0.1816406,-0.2277832,-0.3752441,0.01594663,0.1972366,-0.1837251,-28.66514,22.90983,-141.6501,-28.65132,22.47927,-142.1743,S_UP
0.0,0.0,0.0,0.0,-0.699,0.183,0.0,-0.4927296,0.1289979,0.0,-0.0,-0.0,-0.1818848,-0.2233887,-0.3613281,0.1533511,0.1667023,-0.1837251,-28.6679,22.9175,-141.6484,-28.90859,23.17863,-141.4362,S_UP
0.0,0.0,0.0,0.0,-0.699,0.183,0.0,-0.4924653,0.1289287,0.0,-0.0,-0.0,-0.1828613,-0.2299805,-0.3635254,0.2602212,0.1819695,0.0,-28.68045,22.92225,-141.6365,-29.47361,23.03015,-141.0532,S_UP
0.0,0.0,0.0,0.0,-0.699,0.183,0.0,-0.4922062,0.1288609,0.0,-0.0,-0.0,-0.1794434,-0.2307129,-0.373291,0.2907557,0.5178473,-0.09212208,-28.68524,22.91571,-141.6438,-29.11928,22.24015,-141.9396,S_UP
0.0,0.0,0.0,0.0,-0.699,0.183,0.0,-0.4919524,0.1287944,0.0,-0.0,-0.0,-0.1809082,-0.2297363,-0.3762207,0.1075497,0.3804427,0.1979542,-28.68656,22.90887,-141.6511,-28.82505,22.31284,-142.1441,S_UP
0.0,0.0,0.0,0.0,-0.699,0.183,0.0,-0.4917036,0.1287293,0.0,-0.0,-0.0,-0.1816406,-0.229248,-0.3764648,-0.07565641,0.1972366,0.2742901,-28.68871,22.90133,-141.6574,-28.74248,22.39636,-142.1554,S_UP
0.0,0.0,0.0,0.0,-0.699,0.183,0.0,-0.4914598,0.1286655,0.0,-0.0,-0.0,-0.1821289,-0.2282715,-0.3708496,0.1075497,-0.2607787,0.1674199,-28.69188,22.89365,-141.6576,-28.92077,22.69623,-141.7813,S_UP
0.0,0.0,0.0,0.0,-0.699,0.183,0.0,-0.4912209,0.1286029,0.0,-0.0,-0.0,-0.1835938,-0.2285156,-0.3757324,-0.2435954,-0.01650381,0.1063511,-28.69446,22.88874,-141.6638,-28.65404,22.65958,-142.0401,S_UP
0.0,0.0,0.0,0.0,-0.699,0.183,0.0,-0.4909868,0.1285416,0.0,-0.0,-0.0,-0.1884766,-0.2270508,-0.3737793,-0.09092379,-0.123374,0.1368854,-28.69141,22.89544,-141.6627,-28.47505,23.31434,-141.7102,S_UP
0.0,0.0,0.0,0.0,-0.699,0.183,0.0,-0.4914423,0.1286609,0.0,-0.0,-0.0,-0.1811523,-0.229248,-0.3654785,-0.197794,-0.1539084,0.2895572,-28.70702,22.89096,-141.6526,-29.33626,22.7771,-141.3593,S_UP
0.0,0.0,0.0,0.0,-0.699,0.183,0.0,-0.4912038,0.1285985,0.0,-0.0,-0.0,-0.1848145,-0.2297363,-0.3669434,-0.06038928,0.07509923,-0.04632068,-28.71796,22.89652,-141.6445,-29.21231,23.11738,-141.2173,S_UP
0.0,0.0,0.0,0.0,-0.699,0.183,0.0,-0.49097,0.1285372,0.0,-0.0,-0.0,-0.1828613,-0.2272949,-0.371582,0.07701516,0.5025801,-0.2142596,-28.71773,22.90094,-141.6519,-28.7596,22.77287,-141.8653,S_UP
0.0,0.0,0.0,0.0,-0.699,0.183,0.0,-0.4907409,0.1284773,0.0,-0.0,-0.0,-0.1809082,-0.2277832,-0.3713379,0.07701516,0.3957099,-0.06158781,-28.71974,22.89978,-141.6583,-28.8746,22.55192,-141.927,S_UP
0.0,0.0,0.0,0.0,-0.699,0.183,0.0,-0.4912014,0.1285978,0.0,-0.0,-0.0,-0.1813965,-0.2307129,-0.3666992,0.0006792545,0.2888396,-0.3669312,-28.73374,22.90013,-141.6568,-29.42018,22.71894,-141.3283,S_UP
0.0,0.0,0.0,0.0,-0.699,0.183,0.0,-0.4909677,0.1285366,0.0,-0.0,-0.0,-0.182373,-0.2297363,-0.3696289,-0.09092379,0.5025801,-0.1989923,-28.743,22.90374,-141.6577,-29.13443,22.73611,-141.5658,S_UP
0.0,0.0,0.0,0.0,-0.699,0.183,0.0,-0.4907386,0.1284767,0.0,-0.0,-0.0,-0.1887207,-0.2304688,-0.3662109,-0.04512215,0.7163206,-0.04632068,-28.75323,22.92678,-141.6427,-29.22352,23.56443,-140.8749,S_UP
0.0,0.0,0.0,0.0,-0.699,0.183,0.0,-0.4905141,0.1284179,0.0,-0.0,-0.0,-0.1796875,-0.2331543,-0.3666992,-0.1061909,0.5331145,-0.3058627,-28.77421,22.92539,-141.6392,-29.72447,22.46545,-141.2449,S_UP
0.0,0.0,0.0,0.0,-0.699,0.183,0.0,-0.4909791,0.1285397,0.0,-0.0,-0.0,-0.1850586,-0.2287598,-0.3691406,-0.1519923,0.6399847,-0.3516641,-28.78053,22.93727,-141.6401,-28.98606,23.08036,-141.4418,S_UP
0.0,0.0,0.0,0.0,-0.699,0.183,0.0,-0.4907499,0.1284796,0.0,-0.0,-0.0,-0.1867676,-0.2287598,-0.3730469,-0.1519923,0.7163206,-0.428,-28.78176,22.95061,-141.6458,-28.73758,23.11271,-141.6335,S_UP
0.0,0.0,0.0,0.0,-0.699,0.183,0.0,-0.4905252,0.1284208,0.0,-0.0,-0.0,-0.1855469,-0.2282715,-0.373291,-0.197794,0.746855,-0.1989923,-28.78294,22.96144,-141.6508,-28.70489,22.97958,-141.7604,S_UP
0.0,0.0,0.0,0.0,-0.699,0.183,0.0,-0.4903049,0.1283631,0.0,-0.0,-0.0,-0.1853027,-0.2304688,-0.3710938,-0.3199313,0.5941832,-0.7486105,-28.79283,22.97009,-141.6571,-29.05797,22.98627,-141.4487,S_UP
0.0,0.0,0.0,0.0,-0.699,0.183,0.0,-0.4900891,0.1283066,0.0,-0.0,-0.0,-0.1850586,-0.2346191,-0.3718262,-0.3504658,0.7773893,-0.6264734,-28.81102,22.97789,-141.6568,-29.46185,22.82686,-141.2128,S_UP
0.0,0.0,0.0,0.0,-0.699,0.183,0.0,-0.4898776,0.1282513,0.0,-0.0,-0.0,-0.1821289,-0.2307129,-0.3710938,-0.2283282,0.0,-0.7944121,-28.82126,22.97086,-141.6669,-29.16657,22.62655,-141.6178,S_UP
0.0,0.0,0.0,0.0,-0.699,0.183,0.0,-0.4896704,0.128197,0.0,-0.0,-0.0,-0.182373,-0.229248,-0.3752441,-0.1061909,0.0,-0.7028093,-28.82204,22.96195,-141.6837,-28.78759,22.52566,-142.022,S_UP
0.0,0.0,0.0,0.0,-0.699,0.183,0.0,-0.4894672,0.1281438,0.0,-0.0,-0.0,-0.182373,-0.2287598,-0.3642578,-0.3962674,0.9911298,-0.3669312,-28.83738,22.97584,-141.6796,-29.317,22.97655,-141.2298,S_UP
0.0,0.0,0.0,0.0,-0.699,0.183,0.0,-0.4892682,0.1280917,0.0,-0.0,-0.0,-0.1818848,-0.2275391,-0.376709,-0.2741299,0.0,-0.4890685,-28.83526,22.96542,-141.6985,-28.54333,22.45458,-142.286,S_UP
0.0,0.0,0.0,0.0,-0.699,0.183,0.0,-0.4890732,0.1280407,0.0,-0.0,-0.0,-0.1811523,-0.2294922,-0.3676758,-0.2130611,0.0,-0.5196033,-28.84657,22.95977,-141.7023,-29.2445,22.68303,-141.5084,S_UP
0.0,0.0,0.0,0.0,-0.699,0.183,0.0,-0.489567,0.12817,0.0,-0.0,-0.0,-0.1811523,-0.230957,-0.3774414,-0.640542,0.9147939,0.0,-28.8561,22.9584,-141.7108,-28.88353,22.26356,-142.1288,S_UP
0.0,0.0,0.0,0.0,-0.699,0.183,0.0,-0.489366,0.1281173,0.0,-0.0,-0.0,-0.1804199,-0.2258301,-0.369873,-0.7168779,0.3346412,-0.0310533,-28.86323,22.95555,-141.7169,-28.75606,22.60309,-141.9928,S_UP
0.0,0.0,0.0,0.0,-0.699,0.183,0.0,-0.4884839,0.1278864,0.0,-0.0,-0.0,-0.1835938,-0.2246094,-0.3696289,0.0,0.2735725,0.03001523,-28.85709,22.96046,-141.7196,-28.55619,22.99991,-141.874,S_UP
0.0,0.0,0.0,0.0,-0.699,0.183,0.0,-0.4889895,0.1280188,0.0,-0.0,-0.0,-0.1809082,-0.2207031,-0.3857422,0.0,0.2888396,-0.3363969,-28.82764,22.94821,-141.7599,-27.38474,22.14967,-143.5059,S_UP
0.0,0.0,0.0,0.0,-0.699,0.183,0.0,-0.4888,0.1279692,0.0,-0.0,-0.0,-0.1816406,-0.2248535,-0.3686523,-0.9611526,0.8689924,-0.3363969,-28.83796,22.95744,-141.7673,-28.68423,22.81382,-141.9006,S_UP
0.0,0.0,0.0,0.0,-0.699,0.183,0.0,-0.4886144,0.1279206,0.0,-0.0,-0.0,-0.1853027,-0.2294922,-0.3686523,-0.3657329,0.7773893,-0.5196033,-28.84788,22.97114,-141.7659,-29.08304,23.10896,-141.3362,S_UP
0.0,0.0,0.0,0.0,-0.699,0.183,0.0,-0.4884324,0.1278729,0.0,-0.0,-0.0,-0.1813965,-0.2260742,-0.3706055,-0.4115343,0.0,-0.1226563,-28.85094,22.96527,-141.7717,-28.71846,22.67767,-141.9709,S_UP
0.0,0.0,0.0,0.0,-0.699,0.183,0.0,-0.488254,0.1278262,0.0,-0.0,-0.0,-0.1801758,-0.2307129,-0.3735352,-0.4420686,0.8079236,0.0147481,-28.86174,22.96329,-141.7743,-29.08768,22.31251,-141.915,S_UP
0.0,0.0,0.0,0.0,-0.699,0.183,0.0,-0.4880792,0.1277804,0.0,-0.0,-0.0,-0.182373,-0.2282715,-0.3669434,-0.8542824,0.5636489,-0.1837251,-28.87865,22.96937,-141.7708,-29.12126,22.8803,-141.4715,S_UP
0.0,0.0,0.0,0.0,-0.699,0.183,0.0,-0.4879079,0.1277356,0.0,-0.0,-0.0,-0.1875,-0.2285156,-0.3701172,-0.8542824,0.6094504,-0.1226563,-28.88969,22.98472,-141.7648,-28.84471,23.31875,-141.3874,S_UP
0.0,0.0,0.0,0.0,-0.699,0.183,0.0,-0.4877401,0.1276917,0.0,-0.0,-0.0,-0.1835938,-0.2224121,-0.3759766,-0.8542824,0.7010534,-0.06158781,-28.88349,22.99056,-141.7805,-27.99368,22.79609,-142.5094,S_UP
0.0,0.0,0.0,0.0,-0.699,0.183,0.0,-0.4875756,0.1276486,0.0,-0.0,-0.0,-0.1818848,-0.2275391,-0.3671875,-0.9764199,0.2125039,-0.4738016,-28.90103,22.99055,-141.7834,-29.04295,22.83381,-141.574,S_UP
0.0,0.0,0.0,0.0,-0.699,0.183,0.0,-0.4880994,0.1277857,0.0,-0.0,-0.0,-0.184082,-0.2246094,-0.3730469,-0.6863437,0.578916,-0.5043359,-28.89975,22.997,-141.7967,-28.36618,22.9159,-142.1003,S_UP
0.0,0.0,0.0,0.0,-0.699,0.183,0.0,-0.4879277,0.1277408,0.0,-0.0,-0.0,-0.1821289,-0.2255859,-0.3684082,-0.4573359,0.8689924,-0.3974657,-28.90329,23.0062,-141.8021,-28.76292,22.8606,-141.7979,S_UP
0.0,0.0,0.0,0.0,-0.699,0.183,0.0,-0.4877594,0.1276967,0.0,-0.0,-0.0,-0.1853027,-0.2236328,-0.3615723,-0.2588627,0.0,-0.6264734,-28.90537,23.01708,-141.7992,-28.82955,23.55047,-141.2272,S_UP
0.0,0.0,0.0,0.0,-0.699,0.183,0.0,-0.4875946,0.1276536,0.0,-0.0,-0.0,-0.1794434,-0.2280273,-0.3723145,-0.04512215,0.7773893,-0.428,-28.90561,23.01427,-141.8105,-28.88648,22.34301,-142.0687,S_UP
0.0,0.0,0.0,0.0,-0.699,0.183,0.0,-0.487433,0.1276113,0.0,-0.0,-0.0,-0.1826172,-0.2214355,-0.3659668,-0.06038928,0.9605954,-0.428,-28.89695,23.02954,-141.818,-28.43145,23.11911,-141.8933,S_UP
0.0,0.0,0.0,0.0,-0.699,0.183,0.0,-0.4872746,0.1275698,0.0,-0.0,-0.0,-0.1765137,-0.2253418,-0.3803711,-0.3657329,0.3651755,-0.3516641,-28.88944,23.00961,-141.8476,-28.25282,21.7645,-143.037,S_UP
0.0,0.0,0.0,0.0,-0.699,0.183,0.0,-0.4878044,0.1277085,0.0,-0.0,-0.0,-0.1760254,-0.2319336,-0.3737793,-0.4115343,0.4262443,-0.168458,-28.90348,22.99145,-141.8546,-29.30871,21.80915,-142.0821,S_UP
0.0,0.0,0.0,0.0,-0.699,0.183,0.0,-0.4876386,0.1276651,0.0,-0.0,-0.0,-0.1750488,-0.2282715,-0.3618164,-0.640542,0.1667023,-0.2295268,-28.92607,22.97897,-141.8509,-29.59349,22.25324,-141.5135,S_UP
0.0,0.0,0.0,0.0,-0.699,0.183,0.0,-0.4874762,0.1276226,0.0,-0.0,-0.0,-0.1809082,-0.2236328,-0.3620605,-0.7932138,0.05983204,0.0,-28.93687,22.98083,-141.8446,-28.92208,23.03075,-141.5341,S_UP
0.0,0.0,0.0,0.0,-0.699,0.183,0.0,-0.4873169,0.1275809,0.0,-0.0,-0.0,-0.1821289,-0.2246094,-0.3691406,-0.5336719,0.01403052,-0.5348701,-28.93785,22.97851,-141.8535,-28.61971,22.85508,-141.9261,S_UP
0.0,0.0,0.0,0.0,-0.699,0.183,0.0,-0.4871609,0.12754,0.0,-0.0,-0.0,-0.1813965,-0.2258301,-0.3723145,-0.640542,-0.01650381,-0.5654044,-28.93994,22.97102,-141.8666,-28.60283,22.61523,-142.117,S_UP
0.0,0.0,0.0,0.0,-0.699,0.183,0.0,-0.487008,0.1275,0.0,-0.0,-0.0,-0.182373,-0.2280273,-0.3774414,-0.4573359,0.3651755,-0.3669312,-28.93831,22.96597,-141.8798,-28.54481,22.46843,-142.2746,S_UP
0.0,0.0,0.0,0.0,-0.699,0.183,0.0,-0.4868581,0.1274607,0.0,-0.0,-0.0,-0.182373,-0.222168,-0.3728027,-0.4573359,0.227771,-0.4127328,-28.92949,22.96588,-141.8956,-28.16096,22.79369,-142.3674,S_UP
0.0,0.0,0.0,0.0,-0.699,0.183,0.0,-0.4873962,0.1276016,0.0,-0.0,-0.0,-0.1838379,-0.2263184,-0.371582,-0.2283282,0.4109771,-0.2447939,-28.92664,22.97032,-141.8986,-28.63053,22.90599,-141.8792,S_UP
0.0,0.0,0.0,0.0,-0.699,0.183,0.0,-0.4872386,0.1275604,0.0,-0.0,-0.0,-0.1853027,-0.2236328,-0.3662109,-0.1061909,0.6399847,-0.260061,-28.9221,22.99185,-141.8979,-28.58521,23.35691,-141.5833,S_UP
0.0,0.0,0.0,0.0,-0.699,0.183,0.0,-0.4925643,0.1289546,0.0,-0.0,-0.0,-0.1835938,-0.2270508,-0.3728027,0.1838853,0.7010534,-0.3821983,-28.91416,22.99786,-141.9038,-28.65111,22.81174,-141.9308,S_UP
0.0,0.0,0.0,0.0,-0.699,0.183,0.0,-0.4923033,0.1288863,0.0,-0.0,-0.0,-0.1813965,-0.2246094,-0.3742676,0.0922823,0.5636489,-0.3516641,-28.90203,22.99697,-141.9177,-28.37098,22.56668,-142.3533,S_UP
0.0,0.0,0.0,0.0,-0.699,0.183,0.0,-0.4920475,0.1288193,0.0,-0.0,-0.0,-0.1772461,-0.2270508,-0.3791504,0.2144198,0.8079236,-0.1531909,-28.89063,22.9852,-141.9369,-28.47938,21.85413,-142.7759,S_UP
0.0,0.0,0.0,0.0,-0.699,0.183,0.0,-0.4917969,0.1287537,0.0,-0.0,-0.0,-0.1816406,-0.2294922,-0.3769531,0.229687,0.6094504,-0.1989923,-28.88453,22.98129,-141.9444,-28.74278,22.37148,-142.1732,S_UP
0.0,0.0,0.0,0.0,-0.699,0.183,0.0,-0.4915513,0.1286894,0.0,-0.0,-0.0,-0.1787109,-0.223877,-0.3742676,0.1533511,0.9911298,-0.2142596,-28.87193,22.98091,-141.9599,-28.35989,22.28276,-142.5701,S_UP
0.0,0.0,0.0,0.0,-0.699,0.183,0.0,-0.4913105,0.1286264,0.0,-0.0,-0.0,-0.1748047,-0.229248,-0.3791504,0.4434273,0.0,-0.2447939,-28.86339,22.95191,-141.9793,-28.77068,21.53082,-142.7521,S_UP
0.0,0.0,0.0,0.0,-0.699,0.183,0.0,-0.4917597,0.128744,0.0,-0.0,-0.0,-0.1794434,-0.2290039,-0.3845215,0.3670917,0.0,0.06054974,-28.84818,22.92984,-141.9966,-28.35496,21.84819,-142.8884,S_UP
0.0,0.0,0.0,0.0,-0.699,0.183,0.0,-0.4915148,0.1286798,0.0,-0.0,-0.0,-0.1738281,-0.2277832,-0.3659668,0.1380839,0.7010534,0.2895572,-28.85623,22.9201,-141.9916,-29.34544,21.9619,-141.9409,S_UP
0.0,0.0,0.0,0.0,-0.699,0.183,0.0,-0.4912747,0.128617,0.0,-0.0,-0.0,-0.1791992,-0.2268066,-0.3703613,0.2602212,0.4415114,0.3353589,-28.85286,22.9162,-141.9877,-28.866,22.42225,-142.029,S_UP
0.0,0.0,0.0,0.0,-0.699,0.183,0.0,-0.4910395,0.1285554,0.0,-0.0,-0.0,-0.1796875,-0.2275391,-0.3757324,0.3365571,0.227771,0.3048244,-28.84416,22.90596,-141.9907,-28.649,22.24796,-142.3444,S_UP
0.0,0.0,0.0,0.0,-0.699,0.183,0.0,-0.490809,0.1284951,0.0,-0.0,-0.0,-0.1765137,-0.2263184,-0.3671875,0.3823588,0.1667023,0.3811603,-28.84308,22.89524,-141.9854,-29.05234,22.25585,-141.9868,S_UP
0.0,0.0,0.0,0.0,-0.699,0.183,0.0,-0.4905831,0.1284359,0.0,-0.0,-0.0,-0.1833496,-0.2263184,-0.3747559,0.1533511,-0.5203207,0.6865039,-28.83368,22.88469,-141.9791,-28.47827,22.72419,-142.1449,S_UP
0.0,0.0,0.0,0.0,-0.699,0.183,0.0,-0.4903617,0.128378,0.0,-0.0,-0.0,-0.1821289,-0.2263184,-0.3786621,0.1380839,-0.4897862,0.259023,-28.82126,22.86895,-141.9861,-28.30758,22.43373,-142.5054,S_UP
0.0,0.0,0.0,0.0,-0.699,0.183,0.0,-0.4901448,0.1283212,0.0,-0.0,-0.0,-0.1850586,-0.222168,-0.3730469,0.04648089,-0.3218473,0.350626,-28.80581,22.86884,-141.986,-28.08042,23.08438,-142.221,S_UP
0.0,0.0,0.0,0.0,-0.699,0.183,0.0,-0.4899322,0.1282655,0.0,-0.0,-0.0,-0.1811523,-0.2219238,-0.3720703,0.1991527,-0.1081069,0.2284887,-28.79103,22.86382,-141.9912,-28.20343,22.69202,-142.4058,S_UP
0.0,0.0,0.0,0.0,-0.699,0.183,0.0,-0.4897239,0.128211,0.0,-0.0,-0.0,-0.1835938,-0.2236328,-0.3757324,0.2907557,0.227771,-0.0310533,-28.77394,22.8652,-141.9999,-28.13634,22.77675,-142.4011,S_UP
0.0,0.0,0.0,0.0,-0.699,0.183,0.0,-0.4895197,0.1281575,0.0,-0.0,-0.0,-0.1816406,-0.2275391,-0.3762207,0.5350306,0.2125039,-0.01578617,-28.76262,22.85975,-142.0054,-28.57474,22.44663,-142.2646,S_UP
0.0,0.0,0.0,0.0,-0.699,0.183,0.0,-0.4893196,0.1281051,0.0,-0.0,-0.0,-0.1818848,-0.2304688,-0.3708496,0.6419008,0.487313,0.07581687,-28.76113,22.86201,-141.9968,-29.16004,22.61493,-141.632,S_UP
0.0,0.0,0.0,0.0,-0.699,0.183,0.0,-0.4898085,0.1282331,0.0,-0.0,-0.0,-0.1794434,-0.2248535,-0.3708496,0.3518243,0.2888396,0.2895572,-28.75359,22.85829,-141.9968,-28.62503,22.47771,-142.1982,S_UP
0.0,0.0,0.0,0.0,-0.699,0.183,0.0,-0.4896026,0.1281792,0.0,-0.0,-0.0,-0.182373,-0.2270508,-0.3693848,0.2907557,-0.123374,0.3811603,-28.75176,22.85568,-141.9866,-28.86168,22.81236,-141.7476,S_UP
0.0,0.0,0.0,0.0,-0.699,0.183,0.0,-0.4894009,0.1281264,0.0,-0.0,-0.0,-0.1821289,-0.2253418,-0.3762207,0.2449541,-0.3523817,0.4880307,-28.73996,22.8448,-141.9881,-28.32965,22.55328,-142.3988,S_UP
0.0,0.0,0.0,0.0,-0.699,0.183,0.0,-0.4892032,0.1280746,0.0,-0.0,-0.0,-0.1772461,-0.223877,-0.3701172,-0.01458788,-0.642458,0.610168,-28.73765,22.82472,-141.987,-28.61468,22.28192,-142.3497,S_UP
0.0,0.0,0.0,0.0,-0.699,0.183,0.0,-0.4890094,0.1280239,0.0,-0.0,-0.0,-0.1804199,-0.2211914,-0.3664551,-0.1214581,-0.6577252,0.5949008,-28.7333,22.81632,-141.9808,-28.43658,22.85572,-142.084,S_UP
0.0,0.0,0.0,0.0,-0.699,0.183,0.0,-0.4888195,0.1279742,0.0,-0.0,-0.0,-0.1782227,-0.2287598,-0.3706055,0.1686182,-0.1844428,0.8239083,-28.73804,22.80256,-141.969,-29.08628,22.25517,-141.9576,S_UP
0.0,0.0,0.0,0.0,-0.699,0.183,0.0,-0.4886334,0.1279255,0.0,-0.0,-0.0,-0.1835938,-0.232666,-0.3649902,0.4281602,-0.0470382,0.6254351,-28.75061,22.80556,-141.9395,-29.66033,22.9847,-140.9228,S_UP
0.0,0.0,0.0,0.0,-0.699,0.183,0.0,-0.4884511,0.1278777,0.0,-0.0,-0.0,-0.1804199,-0.2312012,-0.3688965,0.5655649,0.01403052,0.3964274,-28.75544,22.79984,-141.9256,-29.37988,22.50986,-141.5159,S_UP
0.0,0.0,0.0,0.0,-0.699,0.183,0.0,-0.4882723,0.127831,0.0,-0.0,-0.0,-0.1789551,-0.2321777,-0.3618164,0.6571679,-0.1386412,0.6407022,-28.76881,22.79382,-141.8974,-29.90712,22.60036,-140.9859,S_UP
0.0,0.0,0.0,0.0,-0.699,0.183,0.0,-0.4887822,0.1279644,0.0,-0.0,-0.0,-0.1806641,-0.2319336,-0.3666992,0.5655649,-0.2455115,0.5032978,-28.77706,22.78669,-141.8781,-29.56921,22.60592,-141.2797,S_UP
0.0,0.0,0.0,0.0,-0.699,0.183,0.0,-0.4885968,0.1279159,0.0,-0.0,-0.0,-0.184082,-0.2314453,-0.3657227,0.2907557,-0.1844428,0.6712368,-28.7871,22.78925,-141.8522,-29.47843,23.04119,-141.0409,S_UP
0.0,0.0,0.0,0.0,-0.699,0.183,0.0,-0.4884152,0.1278684,0.0,-0.0,-0.0,-0.1794434,-0.2290039,-0.3686523,0.1838853,-0.5050534,0.5185649,-28.79253,22.77581,-141.8424,-29.18505,22.4638,-141.7201,S_UP
0.0,0.0,0.0,0.0,-0.699,0.183,0.0,-0.4882372,0.1278218,0.0,-0.0,-0.0,-0.1877441,-0.2275391,-0.3693848,0.3060229,-0.3981832,0.3048244,-28.78794,22.78284,-141.8291,-28.77276,23.40042,-141.3887,S_UP
0.0,0.0,0.0,0.0,-0.699,0.183,0.0,-0.4880628,0.1277761,0.0,-0.0,-0.0,-0.1870117,-0.2316895,-0.3737793,0.2602212,-0.3065802,0.4574962,-28.78864,22.78374,-141.8155,-29.00153,23.03793,-141.4597,S_UP
0.0,0.0,0.0,0.0,-0.699,0.183,0.0,-0.4878918,0.1277313,0.0,-0.0,-0.0,-0.1884766,-0.2277832,-0.3681641,0.3976259,0.01403052,0.2437558,-28.78427,22.79877,-141.8005,-28.8428,23.52587,-141.2342,S_UP
0.0,0.0,0.0,0.0,-0.699,0.183,0.0,-0.4877243,0.1276875,0.0,-0.0,-0.0,-0.185791,-0.2248535,-0.3762207,0.7945726,0.4567786,0.0147481,-28.7614,22.8085,-141.8085,-28.18604,22.97191,-142.2139,S_UP
0.0,0.0,0.0,0.0,-0.699,0.183,0.0,-0.4875601,0.1276445,0.0,-0.0,-0.0,-0.1826172,-0.2272949,-0.3769531,0.8861756,0.5941832,0.1521528,-28.74375,22.81113,-141.8159,-28.4866,22.53216,-142.2785,S_UP
0.0,0.0,0.0,0.0,-0.699,0.183,0.0,-0.4873991,0.1276023,0.0,-0.0,-0.0,-0.1855469,-0.2324219,-0.3742676,0.9472442,0.6247175,0.3811603,-28.73769,22.82025,-141.8049,-29.09085,22.83879,-141.5286,S_UP
0.0,0.0,0.0,0.0,-0.699,0.183,0.0,-0.4872415,0.1275611,0.0,-0.0,-0.0,-0.182373,-0.2275391,-0.3742676,0.8098397,0.3346412,0.7933741,-28.72498,22.82055,-141.7994,-28.65778,22.60538,-142.0765,S_UP
0.0,0.0,0.0,0.0,-0.699,0.183,0.0,-0.487087,0.1275206,0.0,-0.0,-0.0,-0.1835938,-0.2285156,-0.371582,0.5502977,0.2888396,0.7628398,-28.72034,22.82459,-141.7876,-28.87028,22.82472,-141.731,S_UP
0.0,0.0,0.0,0.0,-0.699,0.183,0.0,-0.4869355,0.127481,0.0,-0.0,-0.0,-0.1777344,-0.2263184,-0.3676758,0.2449541,0.4415114,0.8239083,-28.72246,22.82166,-141.7795,-28.99454,22.37516,-141.951,S_UP
0.0,0.0,0.0,0.0,-0.699,0.183,0.0,-0.4867871,0.1274421,0.0,-0.0,-0.0,-0.1806641,-0.2285156,-0.3630371,0.3976259,0.1361679,0.8086412,-28.73061,22.82387,-141.758,-29.40263,22.83877,-141.256,S_UP
0.0,0.0,0.0,0.0,-0.699,0.183,0.0,-0.4866417,0.127404,0.0,-0.0,-0.0,-0.1789551,-0.2282715,-0.3720703,0.2907557,0.1361679,0.9765801,-28.73077,22.8151,-141.7506,-28.93777,22.29188,-142.0609,S_UP
0.0,0.0,0.0,0.0,-0.699,0.183,0.0,-0.4864991,0.1273667,0.0,-0.0,-0.0,-0.1728516,-0.2229004,-0.3640137,0.1838853,0.3804427,0.9765801,-28.73261,22.80493,-141.7468,-28.949,22.0459,-142.2285,S_UP
0.0,0.0,0.0,0.0,-0.699,0.183,0.0,-0.4863595,0.1273301,0.0,-0.0,-0.0,-0.1831055,-0.2287598,-0.3723145,0.1380839,0.4567786,0.8544428,-28.73347,22.8098,-141.7361,-28.87038,22.73502,-141.7968,S_UP
0.0,0.0,0.0,0.0,-0.699,0.183,0.0,-0.4862226,0.1272943,0.0,-0.0,-0.0,-0.1828613,-0.2280273,-0.3710938,0.3670917,0.5331145,0.5949008,-28.73102,22.81641,-141.7287,-28.86304,22.77444,-141.7742,S_UP
0.0,0.0,0.0,0.0,-0.699,0.183,0.0,-0.4860884,0.1272592,0.0,-0.0,-0.0,-0.1811523,-0.2319336,-0.3666992,0.4281602,0.6247175,0.8086412,-28.74165,22.82187,-141.708,-29.55622,22.66085,-141.2512,S_UP
0.0,0.0,0.0,0.0,-0.699,0.183,0.0,-0.485957,0.1272248,0.0,-0.0,-0.0,-0.1804199,-0.2260742,-0.3666992,0.2144198,0.4720459,0.7781069,-28.74289,22.8264,-141.6979,-28.95053,22.72462,-141.7346,S_UP
0.0,0.0,0.0,0.0,-0.699,0.183,0.0,-0.4858281,0.127191,0.0,-0.0,-0.0,-0.1828613,-0.2287598,-0.3637695,0.3518243,0.3651755,0.7170382,-28.74981,22.83591,-141.6773,-29.33006,23.0515,-141.1631,S_UP
0.0,0.0,0.0,0.0,-0.699,0.183,0.0,-0.4857018,0.127158,0.0,-0.0,-0.0,-0.1818848,-0.2268066,-0.3752441,0.6266336,0.4720459,0.701771,-28.73705,22.83627,-141.6788,-28.54172,22.52984,-142.2324,S_UP
0.0,0.0,0.0,0.0,-0.699,0.183,0.0,-0.4855781,0.1271256,0.0,-0.0,-0.0,-0.1777344,-0.2348633,-0.3825684,0.4281602,0.1972366,0.7628398,-28.73858,22.81425,-141.6829,-29.10733,21.59986,-142.4078,S_UP
0.0,0.0,0.0,0.0,-0.699,0.183,0.0,-0.4854568,0.1270938,0.0,-0.0,-0.0,-0.1835938,-0.2294922,-0.3791504,0.2449541,-0.4287176,0.6254351,-28.73205,22.80211,-141.6851,-28.58036,22.50181,-142.2194,S_UP
0.0,0.0,0.0,0.0,-0.699,0.183,0.0,-0.485338,0.1270627,0.0,-0.0,-0.0,-0.1779785,-0.2290039,-0.3723145,-0.2741299,-0.7493282,0.7475727,-28.74172,22.77889,-141.6828,-29.02746,22.15495,-142.0814,S_UP
0.0,0.0,0.0,0.0,-0.699,0.183,0.0,-0.4852215,0.1270322,0.0,-0.0,-0.0,-0.1860352,-0.2270508,-0.3640137,-0.4420686,-0.5813893,0.4116948,-28.75392,22.78419,-141.6658,-29.04832,23.44292,-141.1181,S_UP
0.0,0.0,0.0,0.0,-0.699,0.183,0.0,-0.4851074,0.1270023,0.0,-0.0,-0.0,-0.1821289,-0.2307129,-0.3723145,-0.3046641,-0.4134504,0.1521528,-28.76506,22.7744,-141.6646,-29.10205,22.57836,-141.7093,S_UP
0.0,0.0,0.0,0.0,-0.699,0.183,0.0,-0.4849956,0.1269731,0.0,-0.0,-0.0,-0.1789551,-0.2314453,-0.3710938,-0.289397,0.07509923,0.04528236,-28.78252,22.7656,-141.6653,-29.32617,22.25329,-141.7487,S_UP
0.0,0.0,0.0,0.0,-0.699,0.183,0.0,-0.4903661,0.1283791,0.0,-0.0,-0.0,-0.189209,-0.2260742,-0.3640137,0.1380839,0.3499084,-0.1073892,-28.78213,22.79157,-141.6534,-28.85753,23.8242,-140.997,S_UP
0.0,0.0,0.0,0.0,-0.699,0.183,0.0,-0.490149,0.1283223,0.0,-0.0,-0.0,-0.1801758,-0.2282715,-0.3666992,0.07701516,0.2583054,0.091084,-28.78927,22.79213,-141.6508,-29.1923,22.64233,-141.5838,S_UP
0.0,0.0,0.0,0.0,-0.699,0.183,0.0,-0.4899364,0.1282666,0.0,-0.0,-0.0,-0.1774902,-0.2336426,-0.369873,-0.06038928,0.07509923,-0.0310533,-28.80761,22.77905,-141.6497,-29.66178,22.08259,-141.5757,S_UP
0.0,0.0,0.0,0.0,-0.699,0.183,0.0,-0.4904129,0.1283913,0.0,-0.0,-0.0,-0.1831055,-0.2285156,-0.3623047,-0.289397,0.1361679,0.1063511,-28.82295,22.78823,-141.6364,-29.37607,23.14509,-141.0538,S_UP
0.0,0.0,0.0,0.0,-0.699,0.183,0.0,-0.4901949,0.1283343,0.0,-0.0,-0.0,-0.1806641,-0.2294922,-0.3696289,-0.5031376,-0.1081069,0.0147481,-28.83646,22.782,-141.6371,-29.1531,22.55047,-141.685,S_UP
0.0,0.0,0.0,0.0,-0.699,0.183,0.0,-0.4899814,0.1282784,0.0,-0.0,-0.0,-0.1811523,-0.2338867,-0.3657227,-0.5489388,-0.4439847,-0.09212208,-28.86411,22.77284,-141.6263,-29.81576,22.65033,-141.0303,S_UP
0.0,0.0,0.0,0.0,-0.699,0.183,0.0,-0.490457,0.1284029,0.0,-0.0,-0.0,-0.1826172,-0.2270508,-0.3740234,-0.5489388,-0.2149771,-0.2447939,-28.86661,22.76751,-141.6388,-28.61252,22.65409,-142.0801,S_UP
0.0,0.0,0.0,0.0,-0.699,0.183,0.0,-0.4902381,0.1283456,0.0,-0.0,-0.0,-0.1811523,-0.2253418,-0.3684082,-0.2283282,-0.1539084,0.0147481,-28.86766,22.76518,-141.6433,-28.76216,22.75657,-141.875,S_UP
0.0,0.0,0.0,0.0,-0.699,0.183,0.0,-0.4900237,0.1282895,0.0,-0.0,-0.0,-0.1801758,-0.2275391,-0.373291,0.04648089,0.05983204,0.04528236,-28.86496,22.75867,-141.6525,-28.76456,22.39844,-142.1346,S_UP
0.0,0.0,0.0,0.0,-0.699,0.183,0.0,-0.4898135,0.1282344,0.0,-0.0,-0.0,-0.1833496,-0.2324219,-0.3723145,0.1991527,0.1056336,0.07581687,-28.86974,22.75849,-141.6485,-29.25041,22.67238,-141.511,S_UP
0.0,0.0,0.0,0.0,-0.699,0.183,0.0,-0.4902925,0.1283599,0.0,-0.0,-0.0,-0.1850586,-0.2272949,-0.3681641,0.01594663,-0.291313,0.4269619,-28.86976,22.76246,-141.6392,-28.88155,23.15678,-141.4759,S_UP
0.0,0.0,0.0,0.0,-0.699,0.183,0.0,-0.490077,0.1283034,0.0,-0.0,-0.0,-0.1870117,-0.2226563,-0.3735352,-0.197794,-0.3218473,0.6559694,-28.85624,22.7682,-141.6395,-28.05803,23.27008,-142.1015,S_UP
0.0,0.0,0.0,0.0,-0.699,0.183,0.0,-0.4898657,0.1282481,0.0,-0.0,-0.0,-0.1816406,-0.2275391,-0.3752441,-0.2435954,-0.2302443,0.5032978,-28.85497,22.75938,-141.6436,-28.62547,22.48511,-142.1925,S_UP
0.0,0.0,0.0,0.0,-0.699,0.183,0.0,-0.4896587,0.1281939,0.0,-0.0,-0.0,-0.1809082,-0.2250977,-0.3901367,-0.1519923,-0.291313,0.6254351,-28.83253,22.73785,-141.672,-27.6291,21.88266,-143.4906,S_UP
0.0,0.0,0.0,0.0,-0.699,0.183,0.0,-0.4894559,0.1281408,0.0,-0.0,-0.0,-0.1853027,-0.2268066,-0.3735352,0.03121376,-0.3981832,0.1979542,-28.82632,22.7372,-141.6738,-28.54342,22.97854,-141.9009,S_UP
0.0,0.0,0.0,0.0,-0.699,0.183,0.0,-0.489257,0.1280888,0.0,-0.0,-0.0,-0.1838379,-0.2275391,-0.3762207,0.01594663,-0.1844428,0.3964274,-28.81997,22.73374,-141.6776,-28.51954,22.69079,-142.1337,S_UP
0.0,0.0,0.0,0.0,-0.699,0.183,0.0,-0.4890622,0.1280378,0.0,-0.0,-0.0,-0.1850586,-0.2255859,-0.3713379,0.06174803,-0.1539084,0.5643663,-28.81334,22.73821,-141.6726,-28.53368,23.07023,-141.8414,S_UP
0.0,0.0,0.0,0.0,-0.699,0.183,0.0,-0.4895563,0.1281671,0.0,-0.0,-0.0,-0.1828613,-0.2280273,-0.3637695,0.07701516,-0.123374,0.2284887,-28.82105,22.74316,-141.6603,-29.25166,23.07022,-141.2178,S_UP
0.0,0.0,0.0,0.0,-0.699,0.183,0.0,-0.4893555,0.1281146,0.0,-0.0,-0.0,-0.1826172,-0.2258301,-0.3696289,0.07701516,0.1514351,0.091084,-28.81781,22.74757,-141.6627,-28.71214,22.8601,-141.8423,S_UP
0.0,0.0,0.0,0.0,-0.699,0.183,0.0,-0.4891586,0.128063,0.0,-0.0,-0.0,-0.1845703,-0.2263184,-0.3720703,0.1991527,0.01403052,0.2284887,-28.81045,22.75218,-141.6638,-28.58626,22.96804,-141.8716,S_UP
0.0,0.0,0.0,0.0,-0.699,0.183,0.0,-0.4889657,0.1280125,0.0,-0.0,-0.0,-0.1806641,-0.2263184,-0.3647461,0.32129,0.07509923,0.3200917,-28.81133,22.75467,-141.6572,-29.07467,22.82517,-141.5527,S_UP
0.0,0.0,0.0,0.0,-0.699,0.183,0.0,-0.4887767,0.127963,0.0,-0.0,-0.0,-0.1862793,-0.2272949,-0.3669434,0.4281602,0.09036642,0.2742901,-28.80707,22.76777,-141.6462,-28.91329,23.34333,-141.3096,S_UP
0.0,0.0,0.0,0.0,-0.699,0.183,0.0,-0.4892765,0.1280939,0.0,-0.0,-0.0,-0.1875,-0.2272949,-0.3793945,0.4739618,0.3804427,0.3964274,-28.78922,22.77712,-141.6511,-28.23975,22.97445,-142.1658,S_UP
0.0,0.0,0.0,0.0,-0.699,0.183,0.0,-0.4890813,0.1280428,0.0,-0.0,-0.0,-0.1831055,-0.2253418,-0.3664551,0.5655649,0.5025801,0.5643663,-28.78196,22.7896,-141.6425,-28.8142,23.05621,-141.6089,S_UP
0.0,0.0,0.0,0.0,-0.699,0.183,0.0,-0.4888899,0.1279927,0.0,-0.0,-0.0,-0.1806641,-0.2250977,-0.3710938,0.7335038,0.4415114,0.4116948,-28.7684,22.79185,-141.6465,-28.6072,22.59955,-142.1247,S_UP
0.0,0.0,0.0,0.0,-0.699,0.183,0.0,-0.4887024,0.1279436,0.0,-0.0,-0.0,-0.1875,-0.2255859,-0.3710938,0.8251068,0.487313,0.442229,-28.75138,22.80975,-141.641,-28.48295,23.3522,-141.675,S_UP
0.0,0.0,0.0,0.0,-0.699,0.183,0.0,-0.4885187,0.1278955,0.0,-0.0,-0.0,-0.1804199,-0.2272949,-0.3764648,0.9625113,0.6399847,0.2437558,-28.73448,22.80847,-141.6523,-28.56672,22.30683,-142.3733,S_UP
0.0,0.0,0.0,0.0,-0.699,0.183,0.0,-0.4883386,0.1278483,0.0,-0.0,-0.0,-0.1865234,-0.2277832,-0.3884277,0.9167099,0.578916,0.2742901,-28.70446,22.81026,-141.6723,-27.86241,22.50077,-142.8397,S_UP
0.0,0.0,0.0,0.0,-0.699,0.183,0.0,-0.4881621,0.1278021,0.0,-0.0,-0.0,-0.1809082,-0.229248,-0.3708496,0.4739618,0.6857863,0.4574962,-28.70499,22.81417,-141.6682,-29.05602,22.53552,-141.7808,S_UP
0.0,0.0,0.0,0.0,-0.699,0.183,0.0,-0.4879892,0.1277568,0.0,-0.0,-0.0,-0.1818848,-0.2260742,-0.3688965,0.6877022,0.4567786,0.442229,-28.69737,22.82018,-141.665,-28.79581,22.80129,-141.8129,S_UP
0.0,0.0,0.0,0.0,-0.699,0.183,0.0,-0.4878197,0.1277125,0.0,-0.0,-0.0,-0.1794434,-0.2243652,-0.3671875,0.8861756,0.4262443,0.3353589,-28.68659,22.82236,-141.6663,-28.76625,22.63661,-141.9594,S_UP
0.0,0.0,0.0,0.0,-0.699,0.183,0.0,-0.4876536,0.127669,0.0,-0.0,-0.0,-0.1811523,-0.2282715,-0.3613281,0.8709083,0.3499084,0.4727633,-28.69002,22.83011,-141.6487,-29.4558,22.9698,-141.1132,S_UP
0.0,0.0,0.0,0.0,-0.699,0.183,0.0,-0.4874908,0.1276264,0.0,-0.0,-0.0,-0.1879883,-0.2268066,-0.3666992,0.5044961,0.04456491,0.6254351,-28.68587,22.84526,-141.6316,-28.8283,23.55688,-141.2235,S_UP
0.0,0.0,0.0,0.0,-0.699,0.183,0.0,-0.4873313,0.1275846,0.0,-0.0,-0.0,-0.1838379,-0.2307129,-0.3779297,0.4281602,-0.2455115,0.6254351,-28.68158,22.83593,-141.6309,-28.76515,22.54748,-142.0256,S_UP
0.0,0.0,0.0,0.0,-0.699,0.183,0.0,-0.487175,0.1275437,0.0,-0.0,-0.0,-0.1850586,-0.2492676,-0.3730469,0.2144198,-0.06230533,0.7781069,-28.72309,22.82665,-141.5923,-30.90423,22.41453,-140.2325,S_UP
0.0,0.0,0.0,0.0,-0.699,0.183,0.0,-0.4870218,0.1275036,0.0,-0.0,-0.0,-0.1882324,-0.2231445,-0.3735352,0.06174803,-0.001236677,0.3658931,-28.7093,22.83797,-141.5949,-28.07896,23.39366,-141.9909,S_UP
0.0,0.0,0.0,0.0,-0.699,0.183,0.0,-0.4875566,0.1276436,0.0,-0.0,-0.0,-0.1899414,-0.2272949,-0.3688965,0.1075497,-0.09283972,0.2895572,-28.70791,22.85336,-141.5837,-28.71385,23.6708,-141.2368,S_UP
0.0,0.0,0.0,0.0,-0.699,0.183,0.0,-0.4873958,0.1276015,0.0,-0.0,-0.0,-0.1831055,-0.2272949,-0.3759766,0.3060229,0.1819695,0.2895572,-28.70005,22.85129,-141.5916,-28.52478,22.62501,-142.1775,S_UP
0.0,0.0,0.0,0.0,-0.699,0.183,0.0,-0.4872382,0.1275602,0.0,-0.0,-0.0,-0.1762695,-0.2277832,-0.3671875,0.1228168,0.1361679,0.1674199,-28.70868,22.83997,-141.5953,-29.21586,22.19228,-141.8895,S_UP
0.0,0.0,0.0,0.0,-0.699,0.183,0.0,-0.4870837,0.1275198,0.0,-0.0,-0.0,-0.185791,-0.223877,-0.3737793,0.1075497,0.3346412,-0.0005190372,-28.69718,22.84966,-141.6055,-28.20691,23.09449,-142.1049,S_UP
0.0,0.0,0.0,0.0,-0.699,0.183,0.0,-0.4869324,0.1274801,0.0,-0.0,-0.0,-0.1806641,-0.2263184,-0.3728027,-0.1061909,0.1514351,0.07581687,-28.69775,22.84492,-141.6155,-28.64794,22.50187,-142.1607,S_UP
0.0,0.0,0.0,0.0,-0.699,0.183,0.0,-0.487469,0.1276206,0.0,-0.0,-0.0,-0.1877441,-0.2302246,-0.3701172,-0.07565641,0.319374,0.3964274,-28.70521,22.85846,-141.6027,-29.019,23.30279,-141.248,S_UP
0.0,0.0,0.0,0.0,-0.699,0.183,0.0,-0.4873099,0.127579,0.0,-0.0,-0.0,-0.1796875,-0.2224121,-0.3713379,-0.1367252,0.2430381,-0.01578617,-28.69961,22.85552,-141.6189,-28.33107,22.54464,-142.4039,S_UP
0.0,0.0,0.0,0.0,-0.699,0.183,0.0,-0.4871541,0.1275382,0.0,-0.0,-0.0,-0.1860352,-0.2272949,-0.3684082,-0.01458788,0.2430381,0.1979542,-28.70267,22.86687,-141.6125,-28.84294,23.25603,-141.4357,S_UP
0.0,0.0,0.0,0.0,-0.699,0.183,0.0,-0.4870012,0.1274982,0.0,-0.0,-0.0,-0.1853027,-0.2275391,-0.3654785,0.229687,0.3499084,0.1521528,-28.7061,22.88043,-141.6028,-29.04274,23.28776,-141.2386,S_UP
0.0,0.0,0.0,0.0,-0.699,0.183,0.0,-0.4875365,0.1276383,0.0,-0.0,-0.0,-0.1848145,-0.2236328,-0.3706055,0.32129,0.4567786,0.091084,-28.69496,22.89151,-141.6084,-28.36924,23.12103,-141.9455,S_UP
0.0,0.0,0.0,0.0,-0.699,0.183,0.0,-0.4873761,0.1275963,0.0,-0.0,-0.0,-0.1818848,-0.2258301,-0.362793,0.3365571,0.5025801,0.2132213,-28.69832,22.90169,-141.6006,-29.09419,23.05569,-141.3659,S_UP
0.0,0.0,0.0,0.0,-0.699,0.183,0.0,-0.4872189,0.1275552,0.0,-0.0,-0.0,-0.1804199,-0.2294922,-0.3620605,0.4586947,0.3804427,0.3200917,-28.7094,22.90538,-141.5866,-29.56689,22.82559,-141.1215,S_UP
0.0,0.0,0.0,0.0,-0.699,0.183,0.0,-0.4870648,0.1275148,0.0,-0.0,-0.0,-0.1853027,-0.2312012,-0.3737793,0.4586947,-0.06230533,0.4880307,-28.70881,22.90364,-141.5801,-28.9946,22.8611,-141.5961,S_UP
0.0,0.0,0.0,0.0,-0.699,0.183,0.0,-0.4869138,0.1274753,0.0,-0.0,-0.0,-0.1845703,-0.2302246,-0.3720703,0.1838853,0.1667023,0.1368854,-28.71211,22.9053,-141.5783,-29.00012,22.87187,-141.5833,S_UP
0.0,0.0,0.0,0.0,-0.699,0.183,0.0,-0.4867658,0.1274366,0.0,-0.0,-0.0,-0.1799316,-0.2280273,-0.3640137,0.229687,0.09036642,0.04528236,-28.72106,22.903,-141.5743,-29.3171,22.72863,-141.4115,S_UP
0.0,0.0,0.0,0.0,-0.699,0.183,0.0,-0.4866208,0.1273986,0.0,-0.0,-0.0,-0.1818848,-0.2331543,-0.3847656,0.07701516,0.227771,0.1216183,-28.7199,22.88832,-141.5903,-28.71561,22.01263,-142.4563,S_UP
0.0,0.0,0.0,0.0,-0.699,0.183,0.0,-0.4864787,0.1273614,0.0,-0.0,-0.0,-0.185791,-0.2282715,-0.3647461,0.1228168,-0.0470382,0.1063511,-28.72663,22.89694,-141.5789,-29.14664,23.35387,-141.099,S_UP
0.0,0.0,0.0,0.0,-0.699,0.183,0.0,-0.4870244,0.1275043,0.0,-0.0,-0.0,-0.1813965,-0.2285156,-0.3706055,0.1838853,0.1361679,-0.06158781,-28.7277,22.8943,-141.5844,-28.97855,22.61789,-141.7883,S_UP
0.0,0.0,0.0,0.0,-0.699,0.183,0.0,-0.4923544,0.1288996,0.0,-0.0,-0.0,-0.1911621,-0.2246094,-0.3613281,0.06174803,0.3651755,-0.3211298,-28.72804,22.92533,-141.5727,-28.78716,24.19523,-140.776,S_UP
0.0,0.0,0.0,0.0,-0.699,0.183,0.0,-0.4972767,0.1301884,0.0,-0.0,-0.0,-0.0144043,-0.09838867,-0.4616699,0.1228168,0.4415114,0.3353589,-13.75808,1.701486,-165.9534,-12.02491,1.747847,-167.845,LL
0.0,0.0,0.0,0.0,-0.699,0.183,0.0,-0.4976066,0.1302747,0.0,-0.0,-0.0,-0.01416016,-0.1096191,-0.4460449,0.1533511,0.227771,0.2284887,-13.75683,1.705897,-165.9528,-13.80058,1.765795,-166.0825,LL
0.0,0.0,0.0,0.0,-0.699,0.183,0.0,-0.4972447,0.13018,0.0,-0.0,-0.0,-0.01489258,-0.112793,-0.458252,0.4128931,0.2430381,-0.07685494,-13.75244,1.711263,-165.956,-13.82075,1.807472,-166.0569,LL
0.0,0.0,0.0,0.0,-0.699,0.183,0.0,-0.4968901,0.1300871,0.0,-0.0,-0.0,-0.01635742,-0.1137695,-0.4633789,0.2602212,0.1819695,-0.1531909,-13.74929,1.718982,-165.9605,-13.78623,1.963454,-166.0692,LL
0.0,0.0,0.0,0.0,-0.699,0.183,0.0,-0.4972276,0.1301755,0.0,-0.0,-0.0,-0.01635742,-0.1103516,-0.4577637,0.2144198,0.01403052,-0.2295268,-13.74227,1.724586,-165.9705,-13.54518,1.989553,-166.3039,LL
0.0,0.0,0.0,0.0,-0.699,0.183,0.0,-0.4968733,0.1300828,0.0,-0.0,-0.0,-0.01391602,-0.1088867,-0.4387207,0.3365571,0.227771,-0.3821983,-13.74144,1.728486,-165.9754,-13.93194,1.763324,-165.9524,LL
0.0,0.0,0.0,0.0,-0.699,0.183,0.0,-0.4965261,0.1299919,0.0,-0.0,-0.0,-0.01831055,-0.1086426,-0.4604492,0.4128931,0.2735725,0.06054974,-13.72627,1.741999,-165.9859,-13.26596,2.216466,-166.5434,LL
0.0,0.0,0.0,0.0,-0.699,0.183,0.0,-0.4961858,0.1299028,0.0,-0.0,-0.0,-0.02734375,-0.1120605,-0.4628906,0.489229,0.2430381,0.0,-13.71627,1.77645,-165.9863,-13.58603,3.285931,-166.0074,LL
0.0,0.0,0.0,0.0,-0.699,0.183,0.0,-0.4965374,0.1299948,0.0,-0.0,-0.0,-0.0168457,-0.1083984,-0.4587402,0.6266336,0.2125039,0.1674199,-13.69907,1.784771,-165.9953,-13.28626,2.046736,-166.5513,LL
0.0,0.0,0.0,0.0,-0.699,0.183,0.0,-0.4961969,0.1299057,0.0,-0.0,-0.0,-0.01806641,-0.1132813,-0.4602051,0.2754886,-0.01650381,-0.0005190372,-13.69768,1.79251,-165.9955,-13.81842,2.183025,-166.0034,LL
0.0,0.0,0.0,0.0,-0.699,0.183,0.0,-0.4958633,0.1298183,0.0,-0.0,-0.0,-0.001953125,-0.1088867,-0.4709473,0.229687,-0.3676488,0.182687,-13.68072,1.755886,-166.0125,-13.01837,0.2315099,-166.9795,LL
0.0,0.0,0.0,0.0,-0.699,0.183,0.0,-0.4962214,0.1299121,0.0,-0.0,-0.0,-0.01855469,-0.1123047,-0.4575195,0.1991527,-0.1081069,0.182687,-13.67998,1.764394,-166.0103,-13.7805,2.255472,-166.0289,LL
0.0,0.0,0.0,0.0,-0.699,0.183,0.0,-0.4958872,0.1298246,0.0,-0.0,-0.0,-0.01464844,-0.111084,-0.4631348,0.1533511,-0.550855,0.5338321,-13.6739,1.756782,-166.0108,-13.48124,1.761666,-166.3998,LL
0.0,0.0,0.0,0.0,-0.699,0.183,0.0,-0.4955598,0.1297389,0.0,-0.0,-0.0,-0.02001953,-0.1120605,-0.4643555,0.1075497,0.01403052,0.2132213,-13.66995,1.769849,-166.0119,-13.55536,2.399829,-166.2258,LL
0.0,0.0,0.0,0.0,-0.699,0.183,0.0,-0.4959239,0.1298342,0.0,-0.0,-0.0,-0.01806641,-0.1125488,-0.4543457,0.06174803,-0.4745191,0.3811603,-13.67375,1.772148,-166.0048,-13.90247,2.210347,-165.9159,LL
0.0,0.0,0.0,0.0,-0.699,0.183,0.0,-0.4955957,0.1297483,0.0,-0.0,-0.0,-0.02294922,-0.1066895,-0.4655762,0.01594663,-0.07757253,0.6254351,-13.6579,1.790656,-166.0123,-12.89169,2.750757,-166.8082,LL
0.0,0.0,0.0,0.0,-0.699,0.183,0.0,-0.4952741,0.1296641,0.0,-0.0,-0.0,-0.02026367,-0.1103516,-0.4594727,0.1686182,-0.3065802,0.5490992,-13.6521,1.799446,-166.0095,-13.49231,2.455487,-166.2777,LL
0.0,0.0,0.0,0.0,-0.699,0.183,0.0,-0.4956439,0.1297609,0.0,-0.0,-0.0,-0.01733398,-0.1186523,-0.4587402,0.3060229,-0.3371145,0.610168,-13.6647,1.800733,-165.9879,-14.49174,2.095072,-165.351,LL
0.0,0.0,0.0,0.0,-0.699,0.183,0.0,-0.4953213,0.1296764,0.0,-0.0,-0.0,-0.01806641,-0.112793,-0.4614258,0.3518243,0.04456491,0.3811603,-13.6611,1.808892,-165.9848,-13.72615,2.178115,-166.0954,LL
0.0,0.0,0.0,0.0,-0.699,0.183,0.0,-0.4950052,0.1295937,0.0,-0.0,-0.0,-0.01342773,-0.1113281,-0.4570313,0.2907557,0.04456491,0.6712368,-13.65758,1.806028,-165.9802,-13.68437,1.635101,-166.2145,LL
0.0,0.0,0.0,0.0,-0.699,0.183,0.0,-0.4946953,0.1295126,0.0,-0.0,-0.0,-0.003417969,-0.1118164,-0.4655762,0.2907557,-0.2607787,0.3811603,-13.65024,1.774254,-165.9848,-13.50447,0.4089925,-166.4891,LL
0.0,0.0,0.0,0.0,-0.699,0.183,0.0,-0.4950768,0.1296124,0.0,-0.0,-0.0,-0.01928711,-0.1123047,-0.456543,0.3060229,-0.2302443,0.4727633,-13.6492,1.782592,-165.9783,-13.80792,2.34913,-165.9858,LL
0.0,0.0,0.0,0.0,-0.699,0.183,0.0,-0.4947656,0.129531,0.0,-0.0,-0.0,-0.02099609,-0.1149902,-0.4562988,0.2754886,-0.3676488,0.4574962,-13.65504,1.792992,-165.9651,-14.13004,2.55478,-165.6314,LL
0.0,0.0,0.0,0.0,-0.699,0.183,0.0,-0.4944605,0.1294511,0.0,-0.0,-0.0,-0.01733398,-0.1118164,-0.4602051,0.5197632,-0.0470382,0.182687,-13.64724,1.798364,-165.9668,-13.64725,2.096142,-166.1865,LL
0.0,0.0,0.0,0.0,-0.699,0.183,0.0,-0.4948466,0.1295522,0.0,-0.0,-0.0,-0.01464844,-0.1120605,-0.456543,0.32129,-0.3676488,0.2895572,-13.64557,1.793048,-165.9655,-13.78405,1.784794,-166.0963,LL
0.0,0.0,0.0,0.0,-0.699,0.183,0.0,-0.4945399,0.1294719,0.0,-0.0,-0.0,-0.01782227,-0.1130371,-0.4570313,0.01594663,-0.01650381,0.2742901,-13.65008,1.800319,-165.9612,-13.88198,2.167901,-165.943,LL
0.0,0.0,0.0,0.0,-0.699,0.183,0.0,-0.4942394,0.1293932,0.0,-0.0,-0.0,-0.02954102,-0.111084,-0.4645996,0.1991527,-0.291313,0.1216183,-13.64256,1.830804,-165.9623,-13.42064,3.538708,-166.1037,LL
0.0,0.0,0.0,0.0,-0.699,0.183,0.0,-0.49463,0.1294955,0.0,-0.0,-0.0,-0.02075195,-0.1103516,-0.4667969,0.4281602,-0.2302443,0.182687,-13.6296,1.840574,-165.97,-13.28798,2.477276,-166.4747,LL
0.0,0.0,0.0,0.0,-0.699,0.183,0.0,-0.4943276,0.1294163,0.0,-0.0,-0.0,-0.0234375,-0.1081543,-0.4597168,0.3060229,-0.2455115,0.1521528,-13.61725,1.857217,-165.9778,-13.22225,2.841119,-166.4651,LL
0.0,0.0,0.0,0.0,-0.699,0.183,0.0,-0.4940313,0.1293388,0.0,-0.0,-0.0,-0.01928711,-0.1101074,-0.4604492,0.7029693,-0.1997099,-0.04632068,-13.60401,1.86399,-165.986,-13.43726,2.332882,-166.3542,LL
0.0,0.0,0.0,0.0,-0.699,0.183,0.0,-0.493741,0.1292628,0.0,-0.0,-0.0,-0.02124023,-0.1132813,-0.4597168,0.7945726,0.3804427,0.2132213,-13.5976,1.883302,-165.9819,-13.82859,2.568621,-165.9255,LL
0.0,0.0,0.0,0.0,-0.699,0.183,0.0,-0.4934565,0.1291883,0.0,-0.0,-0.0,-0.01586914,-0.112793,-0.4609375,0.5655649,-0.2302443,0.2284887,-13.59218,1.880558,-165.9813,-13.74243,1.915331,-166.1195,LL
0.0,0.0,0.0,0.0,-0.699,0.183,0.0,-0.4938627,0.1292946,0.0,-0.0,-0.0,-0.01782227,-0.1154785,-0.4682617,0.1533511,-0.3371145,0.0147481,-13.59511,1.880648,-165.9812,-13.84371,2.116309,-165.9891,LL
0.0,0.0,0.0,0.0,-0.699,0.183,0.0,-0.4935757,0.1292195,0.0,-0.0,-0.0,-0.02099609,-0.1186523,-0.4641113,-0.07565641,-0.5050534,0.182687,-13.61078,1.886299,-165.968,-14.32673,2.509649,-165.4458,LL
0.0,0.0,0.0,0.0,-0.699,0.183,0.0,-0.4932944,0.1291458,0.0,-0.0,-0.0,-0.02270508,-0.1149902,-0.4587402,-0.3657329,-0.4439847,0.2742901,-13.62505,1.897019,-165.9579,-14.05559,2.748609,-165.6673,LL
0.0,0.0,0.0,0.0,-0.699,0.183,0.0,-0.4937038,0.129253,0.0,-0.0,-0.0,-0.02416992,-0.1103516,-0.4611816,-0.3657329,-0.2302443,0.3200917,-13.62634,1.914276,-165.9591,-13.43895,2.917832,-166.2363,LL
0.0,0.0,0.0,0.0,-0.699,0.183,0.0,-0.4934201,0.1291787,0.0,-0.0,-0.0,-0.01977539,-0.1142578,-0.4633789,-0.1825268,-0.2760458,0.4269619,-13.63311,1.919657,-165.9531,-13.83931,2.37272,-165.9507,LL
0.0,0.0,0.0,0.0,-0.699,0.183,0.0,-0.4931419,0.1291059,0.0,-0.0,-0.0,-0.02587891,-0.114502,-0.4506836,0.1991527,0.1209008,0.182687,-13.64237,1.946631,-165.9395,-14.23263,3.185418,-165.4005,LL
0.0,0.0,0.0,0.0,-0.699,0.183,0.0,-0.4928694,0.1290346,0.0,-0.0,-0.0,-0.02758789,-0.1157227,-0.4536133,0.32129,0.3957099,0.182687,-13.65084,1.980579,-165.9243,-14.28632,3.372576,-165.3044,LL
0.0,0.0,0.0,0.0,-0.699,0.183,0.0,-0.4926023,0.1289646,0.0,-0.0,-0.0,-0.01904297,-0.111084,-0.456543,0.3060229,0.5483816,0.3048244,-13.6469,1.994909,-165.9243,-13.66378,2.320858,-166.1329,LL
0.0,0.0,0.0,0.0,-0.699,0.183,0.0,-0.4923405,0.1288961,0.0,-0.0,-0.0,-0.0144043,-0.1101074,-0.4577637,0.2144198,0.05983204,0.3200917,-13.64117,1.990937,-165.9284,-13.51818,1.752365,-166.3644,LL
0.0,0.0,0.0,0.0,-0.699,0.183,0.0,-0.4927691,0.1290083,0.0,-0.0,-0.0,-0.01635742,-0.111084,-0.4592285,0.1228168,-0.07757253,0.3048244,-13.63846,1.989711,-165.9309,-13.58992,1.982839,-166.2607,LL
0.0,0.0,0.0,0.0,-0.699,0.183,0.0,-0.492504,0.1289389,0.0,-0.0,-0.0,-0.01733398,-0.1135254,-0.4592285,-0.06038928,-0.001236677,0.3048244,-13.64404,1.991871,-165.9273,-13.87614,2.09854,-165.9598,LL
0.0,0.0,0.0,0.0,-0.699,0.183,0.0,-0.4922441,0.1288709,0.0,-0.0,-0.0,-0.01904297,-0.1120605,-0.463623,-0.04512215,-0.001236677,0.1674199,-13.64337,1.997741,-165.9307,-13.57711,2.286295,-166.2244,LL
0.0,0.0,0.0,0.0,-0.699,0.183,0.0,-0.4926746,0.1289836,0.0,-0.0,-0.0,-0.0234375,-0.1135254,-0.4650879,-0.2588627,0.1361679,0.4727633,-13.64807,2.015709,-165.9257,-13.70062,2.802754,-166.0046,LL
0.0,0.0,0.0,0.0,-0.699,0.183,0.0,-0.4924114,0.1289147,0.0,-0.0,-0.0,-0.01220703,-0.1123047,-0.4587402,0.04648089,0.4262443,0.1521528,-13.64913,2.014197,-165.9272,-13.7514,1.480574,-166.166,LL
0.0,0.0,0.0,0.0,-0.699,0.183,0.0,-0.4976336,0.1302818,0.0,-0.0,-0.0,-0.02270508,-0.1132813,-0.4523926,0.1380839,0.1972366,0.1979542,-13.65508,2.032365,-165.9194,-14.0411,2.787286,-165.6737,LL
0.0,0.0,0.0,0.0,-0.699,0.183,0.0,-0.4972713,0.130187,0.0,-0.0,-0.0,-0.02075195,-0.1137695,-0.465332,0.0922823,0.5483816,0.2895572,-13.65522,2.048851,-165.918,-13.72566,2.480505,-166.0433,LL
0.0,0.0,0.0,0.0,-0.699,0.183,0.0,-0.4969161,0.130094,0.0,-0.0,-0.0,-0.01806641,-0.1142578,-0.4536133,-0.04512215,0.5178473,0.2437558,-13.66532,2.059721,-165.9099,-14.12703,2.211746,-165.6938,LL
0.0,0.0,0.0,0.0,-0.699,0.183,0.0,-0.4972531,0.1301822,0.0,-0.0,-0.0,-0.0222168,-0.1098633,-0.4558105,-0.197794,0.2735725,0.2742901,-13.66545,2.076538,-165.9116,-13.53596,2.712893,-166.1847,LL
0.0,0.0,0.0,0.0,-0.699,0.183,0.0,-0.4968983,0.1300893,0.0,-0.0,-0.0,-0.01660156,-0.1147461,-0.4567871,-0.2435954,0.1667023,0.3658931,-13.67732,2.077671,-165.9035,-14.09214,2.018786,-165.758,LL
0.0,0.0,0.0,0.0,-0.699,0.183,0.0,-0.4965506,0.1299983,0.0,-0.0,-0.0,-0.02514648,-0.111084,-0.4675293,-0.4115343,-0.031771,0.3811603,-13.67636,2.095591,-165.9064,-13.34693,2.995505,-166.3089,LL
0.0,0.0,0.0,0.0,-0.699,0.183,0.0,-0.4962099,0.1299091,0.0,-0.0,-0.0,-0.01928711,-0.1152344,-0.4621582,-0.4878702,0.2888396,0.0147481,-13.68979,2.104302,-165.9043,-13.98893,2.318808,-165.8124,LL
0.0,0.0,0.0,0.0,-0.699,0.183,0.0,-0.496561,0.1300011,0.0,-0.0,-0.0,-0.015625,-0.1245117,-0.4541016,-0.5336719,0.2888396,0.2132213,-13.7298,2.10419,-165.8743,-15.32464,1.900594,-164.5522,LL
0.0,0.0,0.0,0.0,-0.699,0.183,0.0,-0.4962201,0.1299118,0.0,-0.0,-0.0,-0.01513672,-0.1137695,-0.4533691,-0.4878702,0.5331145,-0.07685494,-13.74349,2.106516,-165.8738,-14.07952,1.854769,-165.7938,LL
0.0,0.0,0.0,0.0,-0.699,0.183,0.0,-0.4958859,0.1298243,0.0,-0.0,-0.0,-0.02172852,-0.1179199,-0.4716797,-0.4420686,0.4109771,0.0147481,-13.75556,2.121605,-165.8708,-14.02196,2.558893,-165.737,LL
0.0,0.0,0.0,0.0,-0.699,0.183,0.0,-0.4962436,0.129918,0.0,-0.0,-0.0,-0.01879883,-0.112793,-0.4645996,-0.4420686,0.6857863,-0.1379237,-13.75922,2.133617,-165.8788,-13.63521,2.251725,-166.173,LL
0.0,0.0,0.0,0.0,-0.699,0.183,0.0,-0.495909,0.1298304,0.0,-0.0,-0.0,-0.01489258,-0.1101074,-0.4624023,-0.3657329,0.6705191,-0.1379237,-13.7568,2.136035,-165.8929,-13.38717,1.794545,-166.4886,LL
0.0,0.0,0.0,0.0,-0.699,0.183,0.0,-0.4955811,0.1297445,0.0,-0.0,-0.0,-0.02905273,-0.1066895,-0.4560547,-0.4573359,0.2888396,-0.07685494,-13.75076,2.168267,-165.9035,-13.14127,3.549494,-166.3711,LL
0.0,0.0,0.0,0.0,-0.699,0.183,0.0,-0.4952598,0.1296604,0.0,-0.0,-0.0,-0.01977539,-0.109375,-0.458252,-0.640542,0.3651755,0.1063511,-13.7534,2.178341,-165.9112,-13.4121,2.403575,-166.3663,LL
0.0,0.0,0.0,0.0,-0.699,0.183,0.0,-0.4956299,0.1297573,0.0,-0.0,-0.0,-0.01538086,-0.1132813,-0.4602051,-0.5947404,0.2430381,0.091084,-13.76292,2.175284,-165.9127,-13.82123,1.858769,-166.0494,LL
0.0,0.0,0.0,0.0,-0.699,0.183,0.0,-0.4953075,0.1296729,0.0,-0.0,-0.0,-0.01660156,-0.1135254,-0.4645996,-0.7626796,0.1361679,0.0147481,-13.77258,2.173407,-165.9168,-13.72279,1.988041,-166.1283,LL
0.0,0.0,0.0,0.0,-0.699,0.183,0.0,-0.4949917,0.1295902,0.0,-0.0,-0.0,-0.01782227,-0.1149902,-0.4550781,-0.6100078,0.07509923,0.0147481,-13.7895,2.174532,-165.9114,-14.17038,2.174459,-165.6568,LL
0.0,0.0,0.0,0.0,-0.699,0.183,0.0,-0.4953671,0.1296885,0.0,-0.0,-0.0,-0.01586914,-0.1164551,-0.4597168,-0.5642061,0.1361679,-0.1379237,-13.8056,2.171241,-165.9082,-14.20697,1.916541,-165.6589,LL
0.0,0.0,0.0,0.0,-0.699,0.183,0.0,-0.49505,0.1296055,0.0,-0.0,-0.0,-0.008300781,-0.1064453,-0.4633789,-0.4420686,0.1667023,-0.1226563,-13.79425,2.150108,-165.9322,-12.93528,1.000218,-167.0247,LL
0.0,0.0,0.0,0.0,-0.699,0.183,0.0,-0.4947394,0.1295242,0.0,-0.0,-0.0,-0.01416016,-0.1162109,-0.46875,-0.4878702,0.1361679,-0.260061,-13.8039,2.142697,-165.937,-13.91774,1.679471,-165.9772,LL
0.0,0.0,0.0,0.0,-0.699,0.183,0.0,-0.49512,0.1296238,0.0,-0.0,-0.0,-0.02099609,-0.1147461,-0.4643555,-0.4268017,0.2125039,-0.2753282,-13.811,2.153026,-165.94,-13.86658,2.513399,-165.8985,LL
0.0,0.0,0.0,0.0,-0.699,0.183,0.0,-0.4948078,0.1295421,0.0,-0.0,-0.0,-0.02050781,-0.1149902,-0.456543,-0.5184045,0.227771,-0.2142596,-13.82437,2.162975,-165.9371,-14.12346,2.49419,-165.6489,LL
0.0,0.0,0.0,0.0,-0.699,0.183,0.0,-0.494502,0.129462,0.0,-0.0,-0.0,-0.01806641,-0.1118164,-0.4604492,-0.4115343,0.3499084,0.2132213,-13.82631,2.168187,-165.939,-13.6395,2.183535,-166.1801,LL
0.0,0.0,0.0,0.0,-0.699,0.183,0.0,-0.4942022,0.1293835,0.0,-0.0,-0.0,-0.01953125,-0.1103516,-0.4575195,-0.1367252,0.2735725,0.03001523,-13.82277,2.176372,-165.9445,-13.54859,2.376376,-166.2367,LL
0.0,0.0,0.0,0.0,-0.699,0.183,0.0,-0.4945934,0.129486,0.0,-0.0,-0.0,-0.01660156,-0.1137695,-0.4709473,-0.5947404,-0.123374,0.4269619,-13.82593,2.170402,-165.9454,-13.57296,1.962515,-166.2805,LL
0.0,0.0,0.0,0.0,-0.699,0.183,0.0,-0.4942919,0.129407,0.0,-0.0,-0.0,-0.02197266,-0.1247559,-0.4641113,-0.9458857,-0.550855,0.5490992,-13.86299,2.171792,-165.9136,-15.02972,2.617769,-164.7334,LL
0.0,0.0,0.0,0.0,-0.699,0.183,0.0,-0.4939963,0.1293296,0.0,-0.0,-0.0,-0.02270508,-0.1088867,-0.4650879,-0.9611526,-0.6882596,0.350626,-13.86215,2.173342,-165.9215,-13.16167,2.721424,-166.55,LL
0.0,0.0,0.0,0.0,-0.699,0.183,0.0,-0.4937067,0.1292538,0.0,-0.0,-0.0,-0.02148438,-0.104248,-0.4550781,-0.9153514,-0.5050534,0.350626,-13.85524,2.175641,-165.935,-12.88867,2.634795,-166.8356,LL
0.0,0.0,0.0,0.0,-0.699,0.183,0.0,-0.4934228,0.1291795,0.0,-0.0,-0.0,-0.02490234,-0.105957,-0.46875,-0.9458857,-0.3371145,0.2284887,-13.84643,2.186498,-165.9514,-12.71982,2.966282,-166.9275,LL
0.0,0.0,0.0,0.0,-0.699,0.183,0.0,-0.4938297,0.129286,0.0,-0.0,-0.0,-0.01831055,-0.1218262,-0.4619141,-0.7168779,0.1361679,0.0147481,-13.87461,2.188538,-165.9335,-14.76377,2.195066,-165.0666,LL
0.0,0.0,0.0,0.0,-0.699,0.183,0.0,-0.4935434,0.129211,0.0,-0.0,-0.0,-0.02392578,-0.1062012,-0.4594727,-0.197794,0.4109771,-0.3211298,-13.85979,2.208493,-165.9527,-12.99761,2.904391,-166.6707,LL
0.0,0.0,0.0,0.0,-0.699,0.183,0.0,-0.4932628,0.1291376,0.0,-0.0,-0.0,-0.02490234,-0.1113281,-0.4570313,-0.2283282,0.3651755,-0.07685494,-13.85913,2.229941,-165.9544,-13.67053,3.030365,-165.9848,LL
0.0,0.0,0.0,0.0,-0.699,0.183,0.0,-0.4929879,0.1290656,0.0,-0.0,-0.0,-0.01879883,-0.1079102,-0.4570313,-0.2588627,0.07509923,-0.3821983,-13.85124,2.232295,-165.9714,-13.27404,2.292427,-166.5223,LL
0.0,0.0,0.0,0.0,-0.699,0.183,0.0,-0.4934034,0.1291744,0.0,-0.0,-0.0,-0.01660156,-0.107666,-0.4558105,-0.4268017,-0.01650381,-0.1073892,-13.8457,2.228024,-165.9846,-13.28162,2.030092,-166.5585,LL
0.0,0.0,0.0,0.0,-0.699,0.183,0.0,-0.4931256,0.1291016,0.0,-0.0,-0.0,-0.02172852,-0.1096191,-0.4614258,-0.5489388,0.07509923,-0.0310533,-13.84385,2.237031,-165.9931,-13.34954,2.623163,-166.3858,LL
0.0,0.0,0.0,0.0,-0.699,0.183,0.0,-0.4935384,0.1292097,0.0,-0.0,-0.0,-0.02661133,-0.1108398,-0.4577637,-0.5031376,-0.1691756,-0.01578617,-13.84566,2.254645,-165.9937,-13.58916,3.23381,-166.0169,LL
0.0,0.0,0.0,0.0,-0.699,0.183,0.0,-0.4932579,0.1291363,0.0,-0.0,-0.0,-0.01855469,-0.1142578,-0.4597168,-0.4726033,-0.3218473,-0.04632068,-13.85416,2.249999,-165.9918,-13.94655,2.243098,-165.867,LL
0.0,0.0,0.0,0.0,-0.699,0.183,0.0,-0.492983,0.1290643,0.0,-0.0,-0.0,-0.02270508,-0.1083984,-0.4624023,-0.3962674,0.1361679,0.1979542,-13.84646,2.261741,-165.9997,-13.17798,2.737021,-166.5307,LL
0.0,0.0,0.0,0.0,-0.699,0.183,0.0,-0.4933987,0.1291732,0.0,-0.0,-0.0,-0.01879883,-0.1096191,-0.4645996,-0.381,0.1819695,0.07581687,-13.84006,2.264107,-166.0094,-13.26529,2.255206,-166.5374,LL
0.0,0.0,0.0,0.0,-0.699,0.183,0.0,-0.493121,0.1291005,0.0,-0.0,-0.0,-0.01733398,-0.1125488,-0.4621582,-0.289397,0.3041069,-0.07685494,-13.84078,2.264737,-166.0134,-13.6775,2.087024,-166.158,LL
0.0,0.0,0.0,0.0,-0.699,0.183,0.0,-0.4928488,0.1290292,0.0,-0.0,-0.0,-0.02075195,-0.1159668,-0.4599609,-0.289397,0.1361679,-0.0005190372,-13.85096,2.271543,-166.0058,-14.13687,2.504965,-165.6338,LL
0.0,0.0,0.0,0.0,-0.699,0.183,0.0,-0.4932672,0.1291387,0.0,-0.0,-0.0,-0.02026367,-0.1096191,-0.4680176,-0.381,0.2125039,-0.2753282,-13.84257,2.277307,-166.0216,-13.17029,2.413928,-166.6024,LL
0.0,0.0,0.0,0.0,-0.699,0.183,0.0,-0.4929921,0.1290667,0.0,-0.0,-0.0,-0.01855469,-0.1113281,-0.4560547,-0.5947404,-0.1081069,-0.01578617,-13.84803,2.275546,-166.0233,-13.70735,2.263416,-166.0998,LL
0.0,0.0,0.0,0.0,-0.699,0.183,0.0,-0.4927226,0.1289961,0.0,-0.0,-0.0,-0.01879883,-0.1113281,-0.440918,-0.5184045,-0.3371145,0.1368854,-13.86185,2.272423,-166.0136,-14.15818,2.367163,-165.6371,LL
0.0,0.0,0.0,0.0,-0.699,0.183,0.0,-0.4931434,0.1291063,0.0,-0.0,-0.0,-0.02416992,-0.1137695,-0.4602051,-0.4726033,-0.2455115,0.1063511,-13.86845,2.28198,-166.0082,-13.86758,2.918699,-165.8165,LL
0.0,0.0,0.0,0.0,-0.699,0.183,0.0,-0.4928708,0.129035,0.0,-0.0,-0.0,-0.02197266,-0.1130371,-0.4543457,-0.640542,-0.06230533,-0.04632068,-13.87898,2.289224,-166.0042,-13.95536,2.686946,-165.778,LL
0.0,0.0,0.0,0.0,-0.699,0.183,0.0,-0.4926037,0.128965,0.0,-0.0,-0.0,-0.01953125,-0.107666,-0.4599609,-0.4115343,0.2583054,0.03001523,-13.8703,2.294335,-166.0161,-13.16295,2.36756,-166.6183,LL
0.0,0.0,0.0,0.0,-0.699,0.183,0.0,-0.4923419,0.1288965,0.0,-0.0,-0.0,-0.02001953,-0.1049805,-0.465332,-0.3351984,0.2888396,0.2284887,-13.85186,2.300757,-166.0337,-12.70191,2.403138,-167.0652,LL
0.0,0.0,0.0,0.0,-0.699,0.183,0.0,-0.4927703,0.1290087,0.0,-0.0,-0.0,-0.0222168,-0.107666,-0.4643555,-0.3351984,0.2125039,0.2437558,-13.84022,2.311027,-166.0433,-13.0396,2.668508,-166.6807,LL
0.0,0.0,0.0,0.0,-0.699,0.183,0.0,-0.4925052,0.1289393,0.0,-0.0,-0.0,-0.02050781,-0.1103516,-0.4560547,-0.197794,0.1361679,0.1521528,-13.83791,2.316727,-166.0438,-13.58919,2.50261,-166.1736,LL
