xa_S1,ya_S1,za_S1,xgb_S1,ybg_S1,zbg_S1,tilt_x_S1,tilt_y_S1,tilt_z_S1,tilt_accx_S1,tilt_accy_S1,tilt_accz_S1,xa_S2,ya_S2,za_S2,xgb_S2,ybg_S2,zbg_S2,tilt_x_S2,tilt_y_S2,tilt_z_S2,tilt_accx_S2,tilt_accy_S2,tilt_accz_S2,Posture
-0.357666,-0.9450684,0.2910156,1.441145,-2.134115,0.5188779,-64.80822,18.97897,-73.98185,-63.9921,19.88482,-73.9338,-0.1013184,-0.2451172,-0.4016113,0.7945726,0.2735725,-0.2295268,-30.14599,12.45181,-146.8186,-30.61672,12.1525,-146.5585,LR
-0.3308105,-0.9414063,0.2944336,1.670153,-2.821137,1.114298,-64.78363,18.92873,-73.95703,-64.80649,18.54042,-73.56017,-0.107666,-0.2380371,-0.3974609,0.3060229,0.3041069,-0.7028093,-30.13948,12.4686,-146.8255,-30.03054,13.08302,-146.6828,LR
-0.3251953,-0.9355469,0.3029785,1.319008,-2.668466,1.404374,-64.76163,18.87951,-73.91845,-64.58833,18.29854,-72.9912,-0.1032715,-0.232666,-0.395752,0.2602212,0.3651755,-0.7944121,-30.12555,12.47816,-146.8456,-29.63379,12.67787,-147.2501,LR
-0.3273926,-0.9326172,0.2956543,1.135802,-1.88984,1.282237,-64.74341,18.84418,-73.88818,-64.68565,18.50201,-73.34702,-0.1103516,-0.2358398,-0.4008789,0.580832,0.8079236,-0.9928856,-30.10574,12.50742,-146.8632,-29.56229,13.34724,-146.9953,LR
-0.3242188,-0.9328613,0.2922363,0.479313,-1.29442,0.9158244,-64.74,18.81524,-73.86727,-64.92511,18.3486,-73.51617,-0.104248,-0.2351074,-0.3964844,0.0,0.0,-0.7486105,-30.1003,12.51214,-146.8768,-29.83376,12.74357,-147.0302,LR
-0.3347168,-0.947998,0.2966309,0.2655725,-0.5768626,0.3662061,-64.73642,18.80346,-73.85612,-64.74323,18.62211,-73.56123,-0.1035156,-0.2409668,-0.3950195,1.176252,1.372809,-0.8096795,-30.09189,12.53428,-146.8796,-30.54433,12.6102,-146.4191,LR
-0.3374023,-0.9313965,0.2871094,-0.1466411,-0.2715191,-0.06127481,-64.73508,18.8053,-73.85664,-64.56153,19.09483,-73.83702,-0.105957,-0.2355957,-0.3935547,1.328924,1.052198,-0.7638779,-30.07242,12.55818,-146.8869,-30.03013,13.0073,-146.7195,LR
-0.3381348,-0.9313965,0.2902832,-0.558855,0.262832,-0.1376107,-64.73665,18.81512,-73.85483,-64.43029,19.11618,-73.67172,-0.09863281,-0.2373047,-0.390625,1.359458,1.113267,-0.7028093,-30.06096,12.56693,-146.8927,-30.49866,12.17766,-146.6597,LR
-0.3339844,-0.939209,0.2875977,-0.833664,0.2780993,-0.3208168,-64.75138,18.81849,-73.86058,-64.86052,18.77895,-73.90641,-0.1000977,-0.2456055,-0.3991699,0.9014427,0.6247175,0.0,-30.06308,12.56589,-146.8828,-30.82926,12.0558,-146.3988,LR
-0.3349609,-0.939209,0.2939453,-0.8489313,0.1406947,-0.3666183,-64.76115,18.82012,-73.86027,-64.61596,18.7966,-73.57528,-0.1000977,-0.2460938,-0.3945313,0.6419008,0.6399847,-1.053954,-30.07616,12.56633,-146.8805,-31.15743,12.14854,-146.0442,LR
-0.3300781,-0.9445801,0.2993164,-0.8183969,0.1559618,-0.1070763,-64.77207,18.81433,-73.85145,-64.74566,18.42394,-73.34599,-0.1081543,-0.244873,-0.3879395,0.3060229,0.227771,-1.298229,-30.09615,12.58366,-146.8698,-31.30075,13.26549,-145.3927,LR
-0.3295898,-0.9404297,0.2912598,-0.6962595,-0.1493817,-0.1376107,-64.78555,18.80604,-73.8506,-64.93431,18.50946,-73.70747,-0.09960938,-0.2421875,-0.3933105,0.1533511,0.4109771,-1.389832,-30.1088,12.58102,-146.8784,-30.83386,12.16965,-146.3438,LR
-0.328125,-0.9414063,0.2885742,-0.833664,-0.3020534,-0.01547329,-64.8033,18.79438,-73.85093,-65.10091,18.43028,-73.85656,-0.1032715,-0.2421875,-0.3947754,0.1533511,0.578916,-1.069221,-30.11816,12.58931,-146.8825,-30.68956,12.57013,-146.2996,LR
-0.3317871,-0.9399414,0.2893066,-0.9558016,-0.04251146,-0.168145,-64.81937,18.79072,-73.85269,-64.90475,18.64275,-73.81511,-0.09790039,-0.2453613,-0.3928223,0.01594663,0.5636489,-0.8402138,-30.13994,12.58451,-146.8788,-31.21892,11.93536,-146.0793,LR
-0.3300781,-0.9443359,0.2910156,-0.8183969,0.3697023,-0.09180916,-64.83532,18.78976,-73.85258,-65.01513,18.47102,-73.77972,-0.09643555,-0.2397461,-0.4018555,0.2449541,0.2735725,-0.8554807,-30.13593,12.56974,-146.8989,-30.11919,11.64483,-147.2568,LR
-0.328125,-0.949707,0.2861328,-0.7725954,0.3086336,-0.1070763,-64.85742,18.7846,-73.85921,-65.37258,18.30488,-74.10475,-0.1010742,-0.2404785,-0.388916,0.1228168,0.5941832,-0.6112061,-30.14937,12.57637,-146.8929,-30.89842,12.46445,-146.1492,LR
-0.3300781,-0.9421387,0.2893066,-0.6657251,0.6597786,-0.07654199,-64.87047,18.78894,-73.85991,-65.02036,18.51648,-73.83825,-0.09545898,-0.2456055,-0.3945313,-0.09092379,0.227771,-0.3821983,-30.17117,12.56012,-146.8856,-31.17669,11.60745,-146.2614,LR
-0.3334961,-0.9431152,0.2902832,-0.6657251,0.4613054,-0.09180916,-64.87984,18.79296,-73.86034,-64.88264,18.67344,-73.81813,-0.1013184,-0.2397461,-0.3898926,0.04648089,0.5331145,-0.5501375,-30.18223,12.56639,-146.8814,-30.75844,12.4818,-146.2746,LR
-0.3330078,-0.9382324,0.2895508,-0.7267939,0.5834427,-0.09180916,-64.88914,18.80036,-73.86015,-64.8106,18.73425,-73.78361,-0.09863281,-0.2429199,-0.3874512,0.07701516,0.3651755,-0.3974657,-30.2025,12.56672,-146.8711,-31.28247,12.17125,-145.9146,LR
-0.3283691,-0.9411621,0.2929688,-0.833664,0.7361145,-0.6566947,-64.90896,18.80944,-73.87019,-64.94034,18.42451,-73.62146,-0.09619141,-0.2407227,-0.4008789,0.3670917,0.578916,-0.0005190372,-30.19867,12.55638,-146.8759,-30.28119,11.62429,-147.1111,LR
-0.3283691,-0.9421387,0.2932129,-0.6046565,0.858252,-0.7330306,-64.91877,18.81401,-73.87601,-64.95502,18.407,-73.62289,-0.09716797,-0.2431641,-0.4008789,0.5502977,0.6094504,0.0147481,-30.197,12.54838,-146.8751,-30.51966,11.70833,-146.8469,LR
-0.3398438,-0.9379883,0.2880859,-0.5893893,0.0,-0.9620381,-64.92093,18.81979,-73.8905,-64.59354,19.10322,-73.89323,-0.09619141,-0.237793,-0.4013672,0.9167099,0.5331145,-0.07685494,-30.17855,12.53826,-146.8871,-29.94808,11.6505,-147.4176,LR
-0.3278809,-0.9470215,0.2912598,-0.574122,0.8124504,-0.8093664,-64.93398,18.82155,-73.90048,-65.15125,18.31071,-73.79468,-0.1000977,-0.2416992,-0.4052734,1.313656,0.5636489,-0.4127328,-30.15707,12.53531,-146.8985,-30.07028,11.9765,-147.1575,LR
-0.3300781,-0.9418945,0.2937012,-0.2687786,0.9193206,-0.6566947,-64.93663,18.82859,-73.90417,-64.86946,18.49784,-73.60226,-0.09838867,-0.2416992,-0.404541,1.619,0.7315878,-0.4127328,-30.13287,12.53122,-146.9101,-30.13696,11.79306,-147.1751,LR
-0.3137207,-0.9423828,0.2758789,-0.2535114,0.9803894,-0.5192901,-64.96346,18.8208,-73.92326,-66.09181,17.7183,-74.47687,-0.1005859,-0.2431641,-0.3942871,1.802206,0.0,-0.5501375,-30.12272,12.52561,-146.9051,-30.86167,12.25079,-146.2809,LR
-0.3356934,-0.9399414,0.2841797,-0.1924427,0.9040535,-0.5498245,-64.9653,18.83426,-73.93448,-64.92367,18.87351,-74.10707,-0.09057617,-0.2385254,-0.3984375,1.573198,0.9911298,-0.4738016,-30.10263,12.5104,-146.9213,-30.27459,11.03688,-147.3661,LR
-0.333252,-0.9411621,0.2763672,-0.07030535,0.9803894,-0.7330306,-64.97298,18.84728,-73.95712,-65.29737,18.76473,-74.52768,-0.09472656,-0.239502,-0.4047852,1.420527,0.8537251,-0.1379237,-30.07864,12.50049,-146.9355,-29.94675,11.38724,-147.5324,LR
-0.3347168,-0.9423828,0.284668,-0.05503809,0.9651221,-0.6566947,-64.97437,18.86009,-73.96985,-65.00208,18.77842,-74.11095,-0.09399414,-0.2434082,-0.3994141,1.160985,0.4262443,0.091084,-30.07353,12.484,-146.9324,-30.67678,11.36251,-146.8445,LR
-0.3339844,-0.9416504,0.2758789,-0.1466411,0.8429847,-0.7177633,-64.98295,18.87122,-73.99228,-65.29595,18.79718,-74.56408,-0.09350586,-0.2436523,-0.3996582,0.9167099,0.6399847,0.1216183,-30.07247,12.46967,-146.929,-30.69426,11.29711,-146.8553,LR
-0.3408203,-0.9445801,0.2824707,-0.05503809,0.0,-0.7940992,-64.98191,18.87519,-74.00989,-64.89071,19.06979,-74.28907,-0.09619141,-0.2470703,-0.4020996,0.0,0.6857863,0.2895572,-30.08827,12.46076,-146.9182,-30.86208,11.52029,-146.6001,LR
-0.3369141,-0.9467773,0.2851563,0.2045038,0.8124504,-0.6414275,-64.97936,18.88595,-74.02229,-65.00494,18.81574,-74.15842,-0.09277344,-0.2443848,-0.3981934,0.9167099,0.227771,0.6254351,-30.09128,12.43929,-146.9056,-30.86783,11.23116,-146.7163,LR
-0.3300781,-0.9389648,0.2890625,0.5098474,0.6445115,-0.6261602,-64.97186,18.88849,-74.02654,-64.95432,18.571,-73.80512,-0.09570313,-0.2424316,-0.3942871,-0.06038928,-0.4287176,0.442229,-30.10752,12.41785,-146.8916,-30.85879,11.68223,-146.5338,LR
-0.3320313,-0.9438477,0.2885742,0.3724428,0.8887863,-0.1834122,-64.96716,18.89566,-74.02694,-65.0107,18.59358,-73.91156,-0.09716797,-0.2431641,-0.4033203,-0.2130611,0.1514351,0.442229,-30.11602,12.40487,-146.8874,-30.37607,11.65781,-147.006,LR
-0.3425293,-0.9472656,0.2873535,0.2503054,0.8124504,-0.3818855,-64.9588,18.91143,-74.03358,-64.73315,19.08702,-74.07797,-0.09667969,-0.2458496,-0.4023438,0.03121376,-0.0470382,0.6254351,-30.12759,12.38788,-146.8753,-30.71589,11.58745,-146.7114,LR
-0.3395996,-0.9399414,0.2800293,-0.131374,0.4460382,-0.6261602,-64.95956,18.9213,-74.04845,-64.90684,19.09886,-74.34739,-0.09960938,-0.237793,-0.3972168,0.2449541,-0.3218473,0.6254351,-30.12429,12.37824,-146.8689,-30.14239,12.14266,-147.0145,LR
-0.3415527,-0.9448242,0.2844238,0.02129769,0.07962596,-0.5803587,-64.95618,18.92591,-74.05987,-64.80639,19.09352,-74.19301,-0.09936523,-0.2458496,-0.4040527,-0.1367252,-0.6271908,0.4574962,-30.13535,12.35875,-146.8593,-30.57692,11.8646,-146.724,LR
-0.3361816,-0.9406738,0.2924805,0.4182443,-0.08831299,-0.3666183,-64.94397,18.92296,-74.05767,-64.65275,18.84314,-73.68048,-0.09912109,-0.2436523,-0.401123,-0.04512215,-0.7798626,0.7323053,-30.14385,12.33862,-146.8462,-30.52735,11.92557,-146.7445,LR
-0.333252,-0.9450684,0.2839355,0.5861833,-0.3173206,-0.1986794,-64.93935,18.91304,-74.06305,-65.14379,18.66033,-74.18047,-0.1010742,-0.2402344,-0.3881836,-0.3046641,-0.5813893,0.350626,-30.1638,12.33299,-146.8266,-30.91736,12.48432,-146.1221,LR
-0.3254395,-0.9423828,0.295166,0.5861833,-0.3631221,-0.0002061129,-64.93204,18.89423,-74.05195,-65.0042,18.23964,-73.50829,-0.09741211,-0.2424316,-0.3908691,-0.1214581,-0.5050534,0.3048244,-30.18301,12.31856,-146.8106,-31.04075,11.95795,-146.2399,LR
-0.3308105,-0.9279785,0.2983398,0.3571756,-0.2257175,-0.03074045,-64.91564,18.88817,-74.03437,-64.35704,18.74606,-73.15222,-0.1022949,-0.2426758,-0.3962402,0.07701516,-0.1691756,0.0147481,-30.19158,12.31802,-146.802,-30.66809,12.41593,-146.3906,LR
-0.3300781,-0.9355469,0.2941895,0.4029771,-0.1493817,0.09139694,-64.90549,18.88025,-74.02199,-64.70392,18.60169,-73.48272,-0.1035156,-0.2385254,-0.3950195,0.0922823,-0.09283972,-0.168458,-30.19218,12.32317,-146.8014,-30.28959,12.6437,-146.6454,LR
-0.333252,-0.9362793,0.2961426,0.1434351,0.1101603,0.03032825,-64.89603,18.87917,-74.00923,-64.53791,18.74522,-73.40675,-0.1005859,-0.2429199,-0.3911133,0.2602212,-0.001236677,-0.168458,-30.20507,12.32316,-146.7896,-31.02794,12.32373,-146.0895,LR
-0.3259277,-0.9455566,0.2878418,-0.03977096,0.2475649,-0.0002061129,-64.90476,18.87023,-74.00793,-65.3036,18.25016,-73.94429,-0.09594727,-0.2375488,-0.4008789,0.3060229,0.02929771,0.06054974,-30.19556,12.30983,-146.8013,-29.95457,11.63494,-147.4181,LR
-0.3405762,-0.9348145,0.307373,-0.03977096,0.2933664,-0.1834122,-64.88445,18.87894,-73.98711,-63.85999,19.09053,-72.83189,-0.09985352,-0.2443848,-0.4030762,0.229687,-0.1386412,-0.2905953,-30.19782,12.30081,-146.8051,-30.47723,11.96042,-146.7769,LR
-0.3254395,-0.9406738,0.2929688,0.02129769,0.2322977,-0.1223435,-64.88721,18.87037,-73.98116,-65.03805,18.27916,-73.59931,-0.09716797,-0.2436523,-0.3935547,0.04648089,-0.2302443,0.1979542,-30.21335,12.28852,-146.7924,-31.0083,11.85558,-146.3156,LR
-0.331543,-0.9365234,0.2932129,0.05183208,0.262832,-0.07654199,-64.8828,18.87017,-73.97379,-64.70464,18.6672,-73.55666,-0.09960938,-0.2460938,-0.3901367,-0.02985501,-0.2149771,0.1216183,-30.23817,12.2833,-146.77,-31.43253,12.18571,-145.7647,LR
-0.3310547,-0.9433594,0.2932129,-0.08557248,0.1864962,-0.168145,-64.88406,18.86604,-73.96988,-64.88345,18.52689,-73.6545,-0.1020508,-0.2453613,-0.4035645,-0.1672597,-0.123374,-0.3363969,-30.24619,12.27967,-146.7723,-30.51645,12.19259,-146.636,LR
-0.3305664,-0.9375,0.2937012,-0.3451145,0.1864962,-0.1986794,-64.88642,18.8634,-73.96421,-64.74804,18.59699,-73.54009,-0.1088867,-0.2385254,-0.3879395,-0.06038928,-0.2149771,-0.06158781,-30.25465,12.29986,-146.7567,-30.62451,13.44697,-145.9457,LR
-0.3291016,-0.9401855,0.2932129,-0.222977,0.3544351,-0.09180916,-64.88961,18.8609,-73.95824,-64.88207,18.47784,-73.59796,-0.09985352,-0.2436523,-0.3969727,-0.2435954,0.1209008,-0.09212208,-30.26839,12.29763,-146.7518,-30.76256,12.0998,-146.4429,LR
-0.3364258,-0.9438477,0.2954102,-0.2687786,0.2780993,-0.2139466,-64.88822,18.86351,-73.9537,-64.62259,18.78669,-73.57361,-0.09692383,-0.2431641,-0.3925781,0.3060229,0.04456491,0.04528236,-30.27893,12.28941,-146.7422,-31.02045,11.85369,-146.3049,LR
-0.338623,-0.9423828,0.2922363,-0.4825191,0.3544351,-0.2444809,-64.88974,18.87029,-73.95284,-64.60928,18.94238,-73.73089,-0.09863281,-0.2390137,-0.3937988,0.3365571,0.05983204,0.2284887,-30.27816,12.28621,-146.7382,-30.48776,12.08531,-146.7114,LR
-0.3310547,-0.9460449,0.291748,-0.4672519,0.3086336,-0.427687,-64.8987,18.86722,-73.95548,-64.99422,18.48971,-73.7708,-0.09667969,-0.2438965,-0.3908691,0.2602212,-0.0470382,-0.3058627,-30.29286,12.27682,-146.7305,-31.20458,11.85123,-146.1297,LR
-0.3300781,-0.9360352,0.2924805,-0.4061831,0.339168,-0.0002061129,-64.90215,18.86691,-73.94798,-64.7723,18.60249,-73.5807,-0.09472656,-0.2438965,-0.3916016,0.2449541,0.1819695,-0.07685494,-30.30718,12.26602,-146.7221,-31.18899,11.60315,-146.2514,LR
-0.3342285,-0.9370117,0.2885742,-0.1771755,0.03382444,-0.1223435,-64.90205,18.86655,-73.9473,-64.76769,18.82403,-73.82404,-0.09838867,-0.2407227,-0.3996582,0.2449541,0.09036642,-0.06158781,-30.30387,12.26019,-146.7275,-30.32162,11.90823,-146.9484,LR
-0.3308105,-0.9375,0.2919922,-0.3756489,0.171229,0.09139694,-64.90545,18.86411,-73.93965,-64.79556,18.61877,-73.632,-0.1027832,-0.2365723,-0.3911133,0.1228168,0.1972366,-0.1531909,-30.30255,12.27134,-146.7271,-30.32786,12.67284,-146.5955,LR
-0.3220215,-0.9428711,0.2939453,-0.4519846,0.4155039,-0.1223435,-64.91765,18.85411,-73.93391,-65.18302,18.05883,-73.56269,-0.09643555,-0.2426758,-0.3991699,0.1991527,0.2430381,-0.5501375,-30.30519,12.26277,-146.7368,-30.58096,11.66397,-146.8075,LR
-0.329834,-0.9379883,0.2871094,-0.3756489,0.1559618,-0.2139466,-64.92492,18.85102,-73.93625,-65.00509,18.58475,-73.89349,-0.09448242,-0.2412109,-0.4008789,0.3976259,0.07509923,-0.5348701,-30.30074,12.24689,-146.752,-30.35575,11.41726,-147.1287,LR
-0.3300781,-0.9370117,0.2888184,-0.4061831,0.2322977,-0.1223435,-64.93032,18.84929,-73.935,-64.9166,18.60519,-73.78965,-0.1025391,-0.2409668,-0.3986816,0.2449541,0.2430381,-0.5043359,-30.29799,12.2538,-146.7584,-30.34293,12.41364,-146.7009,LR
-0.326416,-0.9396973,0.293457,-0.558855,0.5071069,-0.2750153,-64.93918,18.84664,-73.93163,-64.96257,18.34402,-73.56403,-0.09936523,-0.2416992,-0.3947754,0.2449541,0.487313,-0.2753282,-30.3024,12.25819,-146.7572,-30.69873,12.11544,-146.4968,LR
-0.3312988,-0.9387207,0.3015137,-0.8794656,0.4460382,-0.3208168,-64.94311,18.84773,-73.92069,-64.48933,18.57329,-73.14915,-0.09912109,-0.2451172,-0.3896484,0.3060229,0.1819695,-0.4585342,-30.31953,12.25856,-146.7452,-31.36881,12.15161,-145.8407,LR
-0.3278809,-0.9448242,0.2851563,-0.6351909,0.3544351,-0.2750153,-64.959,18.84319,-73.92776,-65.30182,18.37789,-74.08567,-0.09790039,-0.2463379,-0.3986816,0.3670917,0.3346412,-0.5806718,-30.32706,12.25429,-146.7464,-30.96605,11.79942,-146.3805,LR
-0.3300781,-0.9431152,0.2868652,-0.8031298,0.4918396,-0.3055496,-64.97409,18.84381,-73.93333,-65.12328,18.51262,-73.98163,-0.09448242,-0.2399902,-0.4003906,0.229687,0.2583054,-0.09212208,-30.32231,12.24185,-146.7571,-30.25792,11.44219,-147.2116,LR
-0.315918,-0.9450684,0.2988281,-0.7725954,0.4002366,-0.3818855,-64.99179,18.82639,-73.92641,-65.29118,17.67847,-73.30675,-0.09814453,-0.2414551,-0.4018555,0.4739618,0.4262443,-0.3363969,-30.31479,12.23934,-146.7672,-30.27188,11.82386,-147.033,LR
-0.3374023,-0.9431152,0.2895508,-0.7573281,0.262832,-0.3971527,-64.99754,18.83108,-73.93088,-64.75944,18.88058,-73.87683,-0.09667969,-0.2419434,-0.3984375,0.4586947,0.3651755,-0.3516641,-30.31266,12.23426,-146.7735,-30.54514,11.71723,-146.8187,LR
-0.3334961,-0.9462891,0.2924805,-0.6809924,0.09489316,-0.3818855,-65.00529,18.82803,-73.93284,-64.88474,18.60884,-73.74817,-0.09692383,-0.2436523,-0.401123,0.3060229,0.1209008,0.0,-30.31309,12.22473,-146.7745,-30.55903,11.66854,-146.8265,LR
-0.331543,-0.9416504,0.2907715,-0.4519846,0.1559618,-0.4734885,-65.00994,18.82564,-73.93636,-64.90574,18.59364,-73.76109,-0.09887695,-0.2441406,-0.4025879,0.32129,0.07509923,-0.3058627,-30.312,12.21854,-146.7796,-30.49493,11.86007,-146.8043,LR
-0.3325195,-0.9414063,0.2880859,-0.4825191,0.2780993,-0.2292137,-65.01587,18.82646,-73.9391,-64.95139,18.66265,-73.90472,-0.09790039,-0.2419434,-0.4091797,0.3976259,0.3346412,-0.4432673,-30.29833,12.21151,-146.7995,-29.9014,11.63741,-147.4677,LR
-0.3327637,-0.9411621,0.286377,-0.4825191,0.2017633,-0.3666183,-65.02202,18.82647,-73.94521,-64.99228,18.68834,-73.99303,-0.1008301,-0.2426758,-0.394043,0.2602212,0.2430381,-0.428,-30.30498,12.21668,-146.7958,-30.82189,12.29157,-146.3005,LR
-0.3356934,-0.9453125,0.286377,-0.5893893,0.430771,-0.2902825,-65.0298,18.83169,-73.95192,-64.97791,18.77087,-74.0671,-0.09741211,-0.2480469,-0.3974609,0.4281602,0.1667023,-0.3669312,-30.31702,12.20971,-146.7884,-31.22171,11.74551,-146.159,LR
-0.3327637,-0.9411621,0.2885742,-0.5130534,0.3697023,-0.4429542,-65.03516,18.83403,-73.95692,-64.9205,18.677,-73.87658,-0.09472656,-0.2446289,-0.40625,0.3823588,0.3804427,-0.01578617,-30.31321,12.19666,-146.7958,-30.38874,11.29634,-147.1483,LR
-0.3361816,-0.9394531,0.2844238,-0.6351909,0.4002366,-0.5650916,-65.04089,18.84096,-73.96733,-64.8857,18.90611,-74.08964,-0.09863281,-0.2429199,-0.4023438,0.2449541,-0.1386412,-0.1073892,-30.31109,12.18773,-146.7997,-30.38731,11.85218,-146.9104,LR
-0.3320313,-0.9406738,0.2927246,-0.390916,0.2322977,-0.3055496,-65.04183,18.84007,-73.9654,-64.80024,18.62537,-73.64606,-0.09594727,-0.2463379,-0.3962402,0.2602212,0.05983204,-0.1073892,-30.32183,12.17774,-146.7919,-31.14149,11.6205,-146.2896,LR
-0.328125,-0.9387207,0.2800293,-0.5130534,0.2475649,-0.3818855,-65.05895,18.83922,-73.98015,-65.31968,18.51872,-74.27267,-0.09399414,-0.2446289,-0.3989258,0.4739618,-0.001236677,-0.3211298,-30.32553,12.16131,-146.7945,-30.83191,11.3573,-146.698,LR
-0.3254395,-0.9414063,0.2893066,-0.6199236,0.2170305,-0.2597481,-65.06983,18.83113,-73.98019,-65.1774,18.28579,-73.80417,-0.1000977,-0.2363281,-0.3979492,0.3976259,0.1209008,-0.3974657,-30.31195,12.16393,-146.808,-29.93872,12.2035,-147.1805,LR
-0.3305664,-0.9433594,0.2895508,-0.4519846,0.2475649,-0.5345572,-65.07553,18.82855,-73.98536,-65.02238,18.52031,-73.84547,-0.09619141,-0.2416992,-0.3901367,0.5197632,0.1361679,-0.2142596,-30.31861,12.15941,-146.8011,-31.02737,11.83756,-146.3053,LR
-0.3317871,-0.9421387,0.2858887,-0.650458,0.3849695,-0.4734885,-65.08495,18.83011,-73.99317,-65.06796,18.62332,-74.02798,-0.09814453,-0.2436523,-0.3984375,0.2602212,0.319374,-0.1226563,-30.32269,12.15795,-146.7989,-30.70062,11.86775,-146.6045,LR
-0.3300781,-0.9453125,0.2873535,-0.4061831,0.430771,-0.504023,-65.09198,18.82889,-73.99997,-65.15813,18.47342,-73.98729,-0.09936523,-0.2421875,-0.3896484,0.5350306,0.2430381,-0.2753282,-30.32956,12.16278,-146.7891,-31.05966,12.22065,-146.1055,LR
-0.3249512,-0.9416504,0.2885742,-0.299313,0.3849695,-0.4429542,-65.09905,18.82316,-74.00336,-65.22576,18.25985,-73.84412,-0.09594727,-0.2392578,-0.4033203,0.6113663,0.2125039,-0.2142596,-30.31378,12.15391,-146.8048,-29.98987,11.56321,-147.4156,LR
-0.3356934,-0.9487305,0.2819824,-0.3145801,0.690313,-0.7482977,-65.10566,18.83156,-74.02124,-65.19821,18.7354,-74.34724,-0.09399414,-0.2487793,-0.4016113,0.0,0.5178473,-0.1226563,-30.32943,12.14299,-146.8001,-31.09645,11.25274,-146.4878,LR
-0.3347168,-0.9458008,0.2768555,-0.3603816,0.6597786,-0.7482977,-65.11513,18.83917,-74.04254,-65.33208,18.75982,-74.57317,-0.09619141,-0.2434082,-0.3959961,0.0,0.1972366,0.0147481,-30.33984,12.13687,-146.7947,-30.85003,11.69186,-146.5381,LR
-0.3381348,-0.9423828,0.2873535,-0.1619084,0.5223741,-0.7177633,-65.11092,18.84892,-74.05196,-64.78554,18.94261,-73.98618,-0.09326172,-0.2460938,-0.3955078,0.3365571,-0.4592519,-0.0005190372,-30.35209,12.11381,-146.786,-31.19965,11.32148,-146.36,LR
-0.3222656,-0.9433594,0.2797852,-0.05503809,0.59871,-0.6414275,-65.12267,18.84343,-74.0668,-65.65816,18.13435,-74.32275,-0.09643555,-0.2456055,-0.3969727,0.06174803,-0.1386412,-0.168458,-30.36444,12.10294,-146.7805,-31.01473,11.67226,-146.3888,LR
-0.3342285,-0.9516602,0.2800293,-0.299313,0.690313,-0.5192901,-65.13228,18.84911,-74.08278,-65.38361,18.61982,-74.4838,-0.09619141,-0.2495117,-0.4101563,1.893809,0.9453281,-0.6570077,-30.34204,12.10138,-146.7925,-30.63672,11.32988,-146.8967,LR
-0.3317871,-0.9499512,0.2873535,0.7235878,-0.2104504,-0.5498245,-65.12301,18.83873,-74.09045,-65.20072,18.48516,-74.06194,-0.09741211,-0.2441406,-0.3942871,3.298389,1.479679,-1.847847,-30.30693,12.11835,-146.81,-31.01096,11.86261,-146.3101,LR
-0.3364258,-0.9396973,0.2980957,0.647252,-0.4547252,-0.3055496,-65.09976,18.83212,-74.08056,-64.43647,18.84251,-73.37112,-0.0949707,-0.2436523,-0.3950195,3.435794,1.052198,-1.099756,-30.26933,12.12275,-146.8199,-30.95204,11.56454,-146.495,LR
-0.3317871,-0.9406738,0.2929688,0.6777863,-0.6226641,-0.168145,-65.08382,18.81856,-74.07406,-64.80132,18.61135,-73.63188,-0.09814453,-0.2451172,-0.3894043,3.206786,0.5331145,-1.13029,-30.24792,12.12842,-146.8162,-31.39901,12.04065,-145.8608,LR
-0.3256836,-0.9370117,0.2905273,0.8304581,-0.439458,-0.2292137,-65.07126,18.80346,-74.06925,-65.02513,18.3654,-73.67623,-0.1027832,-0.2414551,-0.3969727,2.901443,0.9147939,-1.359298,-30.21013,12.14877,-146.8306,-30.49061,12.47362,-146.533,LR
-0.3186035,-0.9372559,0.2768555,0.219771,0.06435877,-0.2750153,-65.08173,18.78946,-74.07941,-65.75591,18.05632,-74.37515,-0.09619141,-0.2424316,-0.3928223,3.160985,1.143802,-1.282962,-30.17826,12.15803,-146.8411,-30.94029,11.77102,-146.4175,LR
-0.314209,-0.9362793,0.2927246,-0.6657251,0.2475649,-0.7940992,-65.09709,18.77252,-74.0793,-65.36088,17.76045,-73.49011,-0.09643555,-0.2475586,-0.3818359,3.13045,1.281206,-1.756244,-30.17482,12.17174,-146.8318,-32.15346,11.96488,-145.1701,LR
-0.3273926,-0.9338379,0.2854004,-0.4672519,0.6139771,-0.8246336,-65.1027,18.7762,-74.08726,-65.05695,18.53525,-73.91191,-0.09887695,-0.2426758,-0.3962402,2.489229,1.403344,-1.481435,-30.14912,12.1892,-146.8474,-30.71982,12.01332,-146.5221,LR
-0.3273926,-0.942627,0.2893066,-0.7267939,0.873519,0.0,-65.11398,18.78088,-74.08215,-65.1325,18.36787,-73.83175,-0.1003418,-0.2426758,-0.3842773,1.817473,1.327008,-1.221893,-30.14795,12.21393,-146.8414,-31.42597,12.44999,-145.6526,LR
-0.3242188,-0.9421387,0.2956543,0.0,0.9498549,-0.9773054,-65.11225,18.78277,-74.08432,-65.02723,18.17723,-73.47264,-0.0949707,-0.2451172,-0.3974609,1.619,1.174336,-0.6722746,-30.14031,12.21683,-146.8449,-30.95626,11.49591,-146.5202,LR
-0.3273926,-0.9431152,0.2956543,-1.184809,0.873519,-1.389519,-65.12607,18.7865,-74.09312,-64.93266,18.32717,-73.50332,-0.09643555,-0.2456055,-0.3911133,1.222053,0.9147939,-0.7638779,-30.14696,12.22183,-146.8391,-31.37087,11.79443,-145.9949,LR
-0.3186035,-0.9416504,0.2927246,-1.01687,0.7055801,-1.084176,-65.14494,18.77925,-74.09904,-65.32257,17.90536,-73.59213,-0.1018066,-0.2451172,-0.3896484,0.9472442,1.128534,-0.4432673,-30.15663,12.24339,-146.8236,-31.3264,12.47067,-145.7383,LR
-0.3215332,-0.9472656,0.2880859,-0.8489313,0.781916,-1.175779,-65.1645,18.77498,-74.11304,-65.49898,17.99104,-73.93435,-0.1008301,-0.248291,-0.3999023,0.748771,1.265939,-0.168458,-30.16421,12.2577,-146.8129,-31.04951,12.09046,-146.1731,LR
-0.3220215,-0.9597168,0.2822266,-0.650458,0.0,-1.389519,-65.18924,18.75635,-74.13828,-65.95516,17.84376,-74.42168,-0.1000977,-0.2539063,-0.3867188,0.9319771,1.327008,0.1674199,-30.19604,12.27624,-146.77,-32.44079,12.20888,-144.7877,LR
-0.3291016,-0.947998,0.2873535,-0.742061,0.0,-1.557458,-65.2015,18.74879,-74.15882,-65.25673,18.37789,-74.02084,-0.09765625,-0.2553711,-0.3972168,0.0,1.067466,0.6712368,-30.23166,12.28008,-146.7339,-31.97696,11.6841,-145.4601,LR
-0.3195801,-0.9423828,0.2788086,-0.4214504,1.209397,-1.435321,-65.21908,18.75186,-74.18371,-65.77056,18.01379,-74.34805,-0.09399414,-0.2492676,-0.3999023,0.4128931,0.838458,0.5490992,-30.24634,12.2716,-146.7183,-31.24877,11.28052,-146.3299,LR
-0.3334961,-0.9382324,0.2849121,-0.4672519,1.835351,-1.206313,-65.21998,18.77769,-74.19724,-64.94369,18.78396,-74.03254,-0.09106445,-0.2470703,-0.3962402,0.7945726,0.0,0.5032978,-30.25546,12.24687,-146.7044,-31.28682,11.0351,-146.3943,LR
-0.3308105,-0.9460449,0.2868652,-0.7115266,1.820084,-1.404786,-65.22931,18.79893,-74.21449,-65.16344,18.50187,-74.02723,-0.08984375,-0.246582,-0.4025879,0.8251068,0.0,0.3658931,-30.25564,12.21743,-146.7029,-30.87045,10.77489,-146.9004,LR
-0.3391113,-0.9365234,0.2841797,-1.062672,1.423137,-1.511657,-65.23459,18.82609,-74.23394,-64.71255,19.11095,-74.07587,-0.09375,-0.2473145,-0.401123,0.7182367,0.8689924,-0.2295268,-30.25956,12.21089,-146.7043,-30.97957,11.25177,-146.6005,LR
-0.3317871,-0.9416504,0.2966309,-1.39855,1.056725,-1.267382,-65.24452,18.83661,-74.23695,-64.70312,18.57576,-73.45287,-0.09179688,-0.2478027,-0.3918457,0.6877022,0.6552519,-0.7486105,-30.27737,12.19965,-146.7005,-31.62178,11.19957,-146.0044,LR
-0.3361816,-0.9345703,0.2827148,-1.093206,0.1254275,-1.129977,-65.25115,18.84159,-74.24994,-64.82607,18.99903,-74.11092,-0.09179688,-0.25,-0.40625,0.4434273,0.5025801,-0.9165497,-30.28479,12.18091,-146.7151,-30.97434,10.89295,-146.7528,LR
-0.3295898,-0.9450684,0.2836914,-1.276412,-0.179916,-0.9009695,-65.27071,18.83152,-74.26169,-65.29073,18.47048,-74.17521,-0.09521484,-0.2460938,-0.3911133,0.4739618,0.5636489,-1.389832,-30.30092,12.17843,-146.7211,-31.43986,11.64287,-145.9938,LR
-0.3203125,-0.9406738,0.2834473,-1.413817,-0.179916,-0.8399009,-65.29707,18.8134,-74.27039,-65.54905,18.05774,-74.07971,-0.09643555,-0.2473145,-0.3916016,0.1228168,0.6094504,-1.496702,-30.32345,12.17906,-146.726,-31.51769,11.76166,-145.8682,LR
-0.3300781,-0.9396973,0.2919922,-1.597023,-0.1951832,-0.763565,-65.3121,18.80513,-74.26942,-64.87463,18.54348,-73.66045,-0.09033203,-0.2460938,-0.3918457,-0.06038928,0.5483816,-1.435634,-30.34713,12.16393,-146.7355,-31.46605,11.04645,-146.2171,LR
-0.3222656,-0.9418945,0.2890625,-1.566489,-0.2867863,-0.6414275,-65.33366,18.78734,-74.269,-65.31565,18.11237,-73.80833,-0.0949707,-0.2355957,-0.3884277,-0.289397,0.1819695,-1.389832,-30.35456,12.15948,-146.7576,-30.50581,11.80775,-146.8168,LR
-0.3171387,-0.940918,0.2814941,-1.50542,-0.3173206,-0.3818855,-65.36393,18.76484,-74.27267,-65.74016,17.89586,-74.172,-0.0871582,-0.2453613,-0.3959961,-0.1061909,-0.001236677,-1.359298,-30.37261,12.12822,-146.7759,-31.17904,10.59726,-146.6736,LR
-0.3203125,-0.9475098,0.2729492,-1.734427,-0.3783893,-0.4582213,-65.40318,18.74391,-74.28867,-66.05171,17.99624,-74.73577,-0.0925293,-0.2490234,-0.4018555,-0.4420686,-0.1997099,-1.23716,-30.3942,12.1042,-146.7892,-31.12705,11.07407,-146.5321,LR
-0.3330078,-0.949707,0.2670898,-1.581756,-0.5768626,-0.336084,-65.43429,18.73359,-74.31057,-65.79647,18.652,-75.1368,-0.08764648,-0.2492676,-0.3967285,-0.6710763,-0.6882596,-1.328763,-30.42677,12.06391,-146.7997,-31.52971,10.59551,-146.3357,LR
-0.3408203,-0.9489746,0.2753906,-1.581756,-0.8822061,-0.1986794,-65.45316,18.72655,-74.32176,-65.2155,19.03012,-74.72404,-0.08862305,-0.2492676,-0.3999023,-0.5947404,-0.6729923,-1.298229,-30.45344,12.02576,-146.813,-31.32288,10.6511,-146.5136,LR
-0.3242188,-0.9501953,0.2792969,-1.261145,-0.7142672,-0.1528779,-65.47775,18.70405,-74.32666,-65.75507,18.12657,-74.45407,-0.09130859,-0.2492676,-0.3979492,-0.9306183,-0.8867329,-1.13029,-30.48523,11.99316,-146.8181,-31.40472,11.00388,-146.2935,LR
-0.3244629,-0.9499512,0.2683105,-0.9558016,-0.8364046,0.1066641,-65.50323,18.68241,-74.33937,-66.09646,18.19559,-75.03547,-0.09643555,-0.2512207,-0.3994141,-0.8695498,-0.3981832,-1.221893,-30.51715,11.97846,-146.8204,-31.44181,11.55087,-146.031,LR
-0.3208008,-0.9521484,0.2802734,-0.9405342,-0.8974732,0.03032825,-65.52492,18.6538,-74.3404,-65.89638,17.91142,-74.41348,-0.09179688,-0.2473145,-0.3955078,-0.4420686,-0.291313,-0.9623513,-30.54023,11.95727,-146.824,-31.34632,11.13309,-146.297,LR
-0.3227539,-0.953125,0.293457,-0.574122,-0.7753359,0.1524656,-65.53101,18.62799,-74.32619,-65.40774,17.93338,-73.7421,-0.09277344,-0.2478027,-0.3891602,-0.6252747,-0.1691756,-0.9012823,-30.5741,11.94303,-146.8165,-31.77428,11.36983,-145.7872,LR
-0.3220215,-0.9555664,0.276123,-0.6046565,-0.4852595,0.01506107,-65.55054,18.60709,-74.33316,-66.06258,17.93935,-74.68599,-0.08032227,-0.2438965,-0.3945313,-0.4268017,-0.01650381,-0.5196033,-30.59301,11.90042,-146.8267,-31.20608,9.82453,-146.9417,LR
-0.3215332,-0.9504395,0.2783203,-0.8947329,-0.1646488,-0.1834122,-65.57057,18.59226,-74.33913,-65.8946,17.98683,-74.49652,-0.09033203,-0.2392578,-0.388916,-0.2435954,-0.001236677,-0.1989923,-30.60313,11.8862,-146.8263,-30.93173,11.19025,-146.672,LR
-0.3217773,-0.9458008,0.2734375,-0.6351909,0.3239008,-0.4887558,-65.5867,18.58684,-74.35291,-65.94094,18.09905,-74.69299,-0.09423828,-0.2514648,-0.3947754,0.03121376,0.09036642,-0.168458,-30.62623,11.87747,-146.8078,-31.78127,11.38358,-145.7748,LR
-0.3283691,-0.9448242,0.2819824,-0.5130534,0.2780993,-0.4582213,-65.59026,18.58758,-74.35771,-65.38726,18.41929,-74.25637,-0.09545898,-0.2468262,-0.3962402,0.1991527,0.2583054,0.07581687,-30.63476,11.87486,-146.7958,-31.19887,11.55674,-146.2617,LR
-0.3222656,-0.9484863,0.2893066,-0.4977863,0.4002366,-0.7940992,-65.59495,18.58178,-74.36005,-65.45879,18.00347,-73.89104,-0.09838867,-0.2351074,-0.3964844,0.1991527,0.4567786,0.1368854,-30.61757,11.88505,-146.8032,-29.92149,12.04883,-147.2667,LR
-0.3261719,-0.9475098,0.2731934,-0.6809924,0.4765725,-0.8857023,-65.60942,18.5832,-74.38087,-65.81812,18.3025,-74.75025,-0.09033203,-0.2558594,-0.3964844,0.3976259,0.7926565,0.1521528,-30.64293,11.87574,-146.7771,-32.17797,10.83719,-145.6139,LR
-0.3212891,-0.9494629,0.2807617,-0.8031298,0.430771,-0.9315039,-65.62506,18.57743,-74.394,-65.8014,17.97825,-74.35226,-0.09106445,-0.2504883,-0.3911133,0.32129,0.7621221,0.1063511,-30.66443,11.8713,-146.7546,-31.95447,11.09322,-145.7272,LR
-0.3222656,-0.9443359,0.2709961,-0.6046565,0.6597786,-0.8704351,-65.64082,18.57879,-74.41502,-65.96873,18.16064,-74.8055,-0.09863281,-0.2487793,-0.3977051,0.32129,0.8689924,0.0147481,-30.67201,11.88327,-146.7405,-31.26378,11.87388,-146.0631,LR
-0.3220215,-0.9475098,0.2729492,-0.4519846,0.873519,-0.7330306,-65.65392,18.58092,-74.43166,-65.98598,18.08602,-74.74375,-0.09155273,-0.2475586,-0.3913574,0.2754886,0.838458,0.2132213,-30.68713,11.8816,-146.7226,-31.63035,11.18331,-146.0029,LR
-0.3242188,-0.9467773,0.2817383,-0.742061,1.239931,-0.9162367,-65.6637,18.59095,-74.44202,-65.59746,18.1709,-74.27668,-0.09350586,-0.2463379,-0.3962402,0.5655649,0.9453281,0.2742901,-30.68418,11.89192,-146.7096,-31.17683,11.33256,-146.3773,LR
-0.3276367,-0.9458008,0.2709961,-0.574122,1.133061,-0.946771,-65.67924,18.61304,-74.47154,-65.79354,18.41838,-74.85085,-0.08789063,-0.244873,-0.3974609,-0.3504658,-0.1844428,0.5949008,-30.69623,11.86462,-146.7025,-31.02948,10.66215,-146.7922,LR
-0.3273926,-0.9487305,0.2749023,-0.299313,0.7361145,-0.4582213,-65.68492,18.61835,-74.48248,-65.74351,18.33783,-74.68194,-0.0925293,-0.2431641,-0.4033203,-1.235962,-0.6882596,0.442229,-30.70928,11.83952,-146.7054,-30.44016,11.11548,-147.1747,LR
-0.3210449,-0.9499512,0.2687988,-0.299313,0.6750459,-0.336084,-65.69988,18.61619,-74.49765,-66.21327,18.01409,-74.99377,-0.08813477,-0.2399902,-0.3996582,-1.342832,0.01403052,0.7628398,-30.72258,11.81705,-146.7079,-30.38733,10.70587,-147.3929,LR
-0.3254395,-0.9550781,0.2687988,-0.3451145,0.4918396,-0.4429542,-65.7141,18.61429,-74.51587,-66.15709,18.15967,-75.0828,-0.08544922,-0.2434082,-0.4016113,-0.4420686,-0.031771,0.8544428,-30.72739,11.78652,-146.7078,-30.65986,10.31246,-147.2857,LR
-0.3364258,-0.9597168,0.2753906,-0.2840458,0.2322977,-0.4734885,-65.71629,18.61762,-74.52901,-65.62872,18.6212,-74.84804,-0.09326172,-0.2529297,-0.4035645,0.2449541,-0.4134504,0.7475727,-30.73745,11.7663,-146.6878,-31.41014,11.07918,-146.2576,LR
-0.3327637,-0.9472656,0.2770996,0.2503054,-0.347855,-0.3971527,-65.70695,18.61279,-74.53568,-65.43306,18.632,-74.57092,-0.09472656,-0.2509766,-0.4025879,-0.1367252,0.0,0.5490992,-30.74973,11.75681,-146.6724,-31.25089,11.29185,-146.3231,LR
-0.3293457,-0.9448242,0.2734375,0.9831298,-0.347855,0.1524656,-65.6909,18.60567,-74.53703,-65.62665,18.51253,-74.71546,-0.08959961,-0.2487793,-0.4077148,-0.2130611,-0.7187939,0.04528236,-30.75373,11.72361,-146.679,-30.79319,10.62493,-147.0347,LR
-0.3283691,-0.9394531,0.2705078,0.7693894,-0.3325878,0.0,-65.67849,18.6,-74.54216,-65.63607,18.56644,-74.79349,-0.09179688,-0.2473145,-0.3942871,-0.07565641,-0.5813893,0.04528236,-30.76819,11.70373,-146.669,-31.42102,11.15722,-146.2151,LR
-0.3273926,-0.9470215,0.2746582,0.3266413,-0.1493817,0.2135344,-65.67438,18.59315,-74.5416,-65.71268,18.36749,-74.67139,-0.08911133,-0.2487793,-0.3913574,-0.2741299,-0.3676488,-0.06158781,-30.79268,11.6818,-146.656,-31.7914,10.87733,-145.9715,LR
-0.3261719,-0.9389648,0.2878418,0.1892367,-0.2715191,0.7173512,-65.66094,18.58475,-74.51723,-65.14191,18.3723,-73.85014,-0.09936523,-0.2438965,-0.3979492,-0.5336719,-0.642458,-0.1226563,-30.79941,11.67909,-146.6548,-30.73687,12.01831,-146.5036,LR
-0.3137207,-0.9372559,0.2880859,0.08236647,-0.4547252,0.3814733,-65.65773,18.56121,-74.49628,-65.561,17.74205,-73.74982,-0.09741211,-0.2470703,-0.3935547,-0.8695498,-0.382916,0.0,-30.82337,11.67667,-146.6414,-31.35818,11.83958,-145.9876,LR
-0.3200684,-0.9379883,0.2775879,-0.08557248,-0.1646488,0.183,-65.65968,18.54993,-74.49074,-65.69214,18.11815,-74.35336,-0.09765625,-0.2358398,-0.3913574,0.0,-0.2455115,-0.2905953,-30.81319,11.68081,-146.6506,-30.31447,12.06402,-146.886,LR
-0.3212891,-0.9372559,0.2797852,0.02129769,-0.347855,0.01506107,-65.65728,18.53749,-74.48532,-65.55553,18.18403,-74.23115,-0.1005859,-0.2485352,-0.3859863,-0.2283282,-0.382916,0.06054974,-30.83881,11.68873,-146.621,-31.9265,12.35838,-145.215,LR
-0.3234863,-0.9436035,0.2966309,0.3266413,-0.179916,-0.04600763,-65.64044,18.5263,-74.46507,-65.05536,18.10989,-73.43906,-0.09350586,-0.2424316,-0.3894043,-0.3199313,-0.2760458,0.091084,-30.85052,11.68133,-146.613,-31.18914,11.52178,-146.2859,LR
-0.3195801,-0.9440918,0.282959,0.4335115,0.2170305,-0.1376107,-65.63469,18.51827,-74.46082,-65.67117,17.96553,-74.15119,-0.09350586,-0.2436523,-0.4055176,-0.381,-0.1691756,0.4116948,-30.8457,11.66899,-146.6198,-30.34811,11.18044,-147.2359,LR
-0.3244629,-0.9462891,0.2871094,0.00603056,0.3697023,-0.336084,-65.62991,18.51628,-74.45595,-65.3996,18.16516,-73.98634,-0.09545898,-0.2434082,-0.40625,-0.2283282,-0.031771,0.2895572,-30.83722,11.66307,-146.6278,-30.25384,11.39612,-147.2352,LR
-0.3283691,-0.9448242,0.2841797,-0.1466411,0.5834427,-0.2444809,-65.62577,18.5227,-74.45322,-65.3154,18.40831,-74.13983,-0.09155273,-0.2470703,-0.3933105,-0.01458788,0.09036642,0.3200917,-30.84988,11.65415,-146.6142,-31.45931,11.15064,-146.181,LR
-0.3254395,-0.9436035,0.2856445,0.00603056,0.5834427,-0.2597481,-65.62016,18.52618,-74.44859,-65.34975,18.2679,-74.03022,-0.08959961,-0.251709,-0.3886719,-0.4268017,-0.291313,0.2437558,-30.88424,11.63581,-146.5882,-32.25446,10.95112,-145.4946,LR
-0.3186035,-0.942627,0.2746582,-0.03977096,0.7361145,-0.2597481,-65.62736,18.52604,-74.4548,-65.95111,17.9783,-74.56866,-0.09790039,-0.2512207,-0.3942871,-0.5336719,0.4109771,0.1674199,-30.90904,11.64567,-146.5666,-31.7316,11.82707,-145.6348,LR
-0.3237305,-0.9501953,0.2824707,-0.1924427,0.8429847,-0.336084,-65.63102,18.52963,-74.45632,-65.6694,18.0857,-74.28375,-0.09155273,-0.2468262,-0.3999023,-0.1825268,0.5331145,0.182687,-30.91421,11.64108,-146.5655,-31.03324,11.02412,-146.6428,LR
-0.3188477,-0.9453125,0.2849121,-0.6657251,0.8277176,-0.6261602,-65.64141,18.52916,-74.45763,-65.66117,17.89756,-74.06136,-0.09106445,-0.244873,-0.3901367,-0.06038928,0.5178473,0.2742901,-30.9255,11.63953,-146.5539,-31.4345,11.18318,-146.1915,LR
-0.3269043,-0.9489746,0.2763672,-0.5435878,0.690313,-0.6719618,-65.65099,18.53474,-74.47046,-65.72041,18.30119,-74.60523,-0.09204102,-0.2453613,-0.4020996,-0.1672597,0.3804427,0.1979542,-30.92435,11.63345,-146.5581,-30.74487,11.05608,-146.9069,LR
-0.3251953,-0.9492188,0.2824707,-0.299313,0.6445115,-0.8246336,-65.6542,18.53709,-74.47871,-65.59195,18.17821,-74.27705,-0.09521484,-0.2416992,-0.3979492,0.2754886,0.578916,0.3200917,-30.91348,11.63988,-146.5598,-30.56991,11.55762,-146.8639,LR
-0.3208008,-0.9492188,0.2836914,-0.1924427,0.7971831,-0.7177633,-65.6581,18.53613,-74.48281,-65.71722,17.9425,-74.19128,-0.09521484,-0.2463379,-0.4013672,0.3060229,0.1972366,0.3200917,-30.9076,11.63859,-146.557,-30.84453,11.43017,-146.6552,LR
-0.3208008,-0.9445801,0.2685547,-0.1924427,0.7361145,-0.6719618,-65.66998,18.53805,-74.50169,-66.11058,18.09098,-74.93267,-0.09399414,-0.2492676,-0.4060059,0.1075497,0.4567786,0.1674199,-30.90556,11.63574,-146.558,-30.88495,11.16072,-146.7291,LR
-0.3254395,-0.9416504,0.2851563,-0.1008396,0.8887863,-0.6872291,-65.66448,18.54641,-74.50231,-65.32088,18.30275,-74.02808,-0.08911133,-0.2490234,-0.3947754,0.1075497,0.4720459,-0.09212208,-30.91807,11.62568,-146.5517,-31.60468,10.80865,-146.1792,LR
-0.324707,-0.951416,0.2683105,-0.1924427,0.0,-0.7330306,-65.67623,18.53917,-74.52345,-66.11967,18.18411,-75.0563,-0.09716797,-0.2468262,-0.3930664,0.07701516,0.9605954,0.4574962,-30.92591,11.64377,-146.5336,-31.36649,11.82418,-145.9863,LR
-0.3293457,-0.9406738,0.2854004,-0.299313,0.0,-0.6414275,-65.66995,18.53884,-74.52281,-65.1424,18.5227,-74.02061,-0.0949707,-0.2438965,-0.394043,-0.1825268,0.6399847,0.2895572,-30.9308,11.65193,-146.5268,-31.03654,11.58159,-146.4068,LR
-0.3215332,-0.9472656,0.2756348,-0.4672519,1.19413,-0.6872291,-65.68166,18.54665,-74.53436,-65.91136,18.05161,-74.59504,-0.09057617,-0.2614746,-0.3984375,-0.2588627,0.4262443,0.3353589,-30.96832,11.64038,-146.4958,-32.61612,10.76114,-145.2197,LR
-0.3237305,-0.9472656,0.2844238,-0.6657251,1.041458,-0.6108932,-65.68858,18.5535,-74.53542,-65.53841,18.12412,-74.13889,-0.09716797,-0.2431641,-0.3947754,-0.4115343,0.4262443,-0.260061,-30.97267,11.65056,-146.4985,-30.88384,11.83614,-146.4432,LR
-0.3269043,-0.9499512,0.2702637,-0.8031298,1.010924,-0.5803587,-65.70539,18.56358,-74.5521,-65.93906,18.31416,-74.94282,-0.08691406,-0.248291,-0.4018555,-0.2741299,0.4567786,0.03001523,-30.97953,11.63233,-146.504,-31.12771,10.42551,-146.7903,LR
-0.3234863,-0.9523926,0.2680664,-0.6657251,0.8887863,-0.6566947,-65.72435,18.56661,-74.5716,-66.1966,18.10527,-75.07683,-0.09106445,-0.2509766,-0.3959961,-0.2435954,0.5178473,-0.2447939,-30.99757,11.62714,-146.4977,-31.70213,10.99211,-146.0115,LR
-0.3208008,-0.9545898,0.2810059,-0.558855,0.5376411,-0.7788321,-65.73662,18.56055,-74.5798,-65.9269,17.86846,-74.40887,-0.09350586,-0.248291,-0.3884277,-0.3199313,0.1056336,0.1063511,-31.01951,11.62546,-146.4795,-31.85959,11.46581,-145.6651,LR
-0.3208008,-0.9528809,0.2724609,-0.2840458,0.3849695,-0.6108932,-65.74943,18.55372,-74.59393,-66.16884,17.93634,-74.83764,-0.09594727,-0.2460938,-0.3962402,0.1075497,0.2125039,0.4116948,-31.01987,11.62855,-146.4701,-31.11634,11.62362,-146.3123,LR
-0.3232422,-0.9484863,0.2702637,0.08236647,0.2475649,-0.5803587,-65.75419,18.54922,-74.6087,-66.04804,18.14667,-74.90593,-0.09521484,-0.2470703,-0.4047852,-0.04512215,-0.2607787,0.3658931,-31.01443,11.61946,-146.4719,-30.717,11.35276,-146.8101,LR
-0.322998,-0.9489746,0.2766113,0.3419085,0.4613054,-0.5192901,-65.75166,18.54648,-74.61513,-65.86189,18.09567,-74.57375,-0.07958984,-0.2453613,-0.3942871,-0.3199313,-0.2607787,0.5490992,-31.0265,11.57774,-146.4705,-31.38268,9.725055,-146.8068,LR
-0.3212891,-0.9411621,0.2739258,0.4182443,0.3239008,-0.3666183,-65.74725,18.54326,-74.62022,-65.83871,18.1478,-74.60014,-0.09155273,-0.2458496,-0.4050293,-0.5184045,-0.5813893,0.6559694,-31.02614,11.55636,-146.4728,-30.62788,10.93642,-147.0683,LR
-0.3254395,-0.9440918,0.2817383,0.4945802,0.430771,-0.07654199,-65.73483,18.54432,-74.61384,-65.48981,18.27926,-74.24461,-0.09521484,-0.2458496,-0.3886719,-0.5947404,-0.4897862,0.7933741,-31.04567,11.55197,-146.4487,-31.56537,11.69691,-145.8502,LR
-0.3234863,-0.9416504,0.2763672,0.6930535,0.430771,-0.1070763,-65.72365,18.54464,-74.61288,-65.68506,18.24365,-74.48691,-0.09082031,-0.2441406,-0.3994141,-0.7626796,-0.6119237,0.9918472,-31.05115,11.53213,-146.4439,-30.79632,10.9796,-146.8888,LR
-0.3178711,-0.9477539,0.2797852,0.6319848,0.4613054,0.04559542,-65.71899,18.5367,-74.60727,-65.92453,17.83145,-74.36381,-0.09375,-0.2441406,-0.3789063,-0.8542824,-0.5813893,0.0,-31.08401,11.52736,-146.4227,-32.02472,11.74928,-145.3865,LR
-0.3151855,-0.9404297,0.2756348,0.6777863,0.6750459,0.01506107,-65.71399,18.53313,-74.60427,-65.9999,17.82887,-74.46928,-0.08129883,-0.2458496,-0.3994141,0.0,-0.291313,1.251389,-31.08426,11.48949,-146.418,-31.09661,9.833939,-147.0443,LR
-0.3151855,-0.951416,0.2844238,0.5098474,0.9498549,-0.1376107,-65.71176,18.52769,-74.59722,-65.95238,17.60948,-74.15706,-0.09008789,-0.2460938,-0.3925781,0.0,-0.09283972,1.35826,-31.09106,11.4784,-146.3952,-31.4243,11.00293,-146.275,LR
-0.3276367,-0.9472656,0.267334,0.4945802,0.7208474,-0.2902825,-65.70914,18.53596,-74.61087,-65.94382,18.41127,-75.06607,-0.09472656,-0.2485352,-0.3916016,-0.9764199,-1.024137,1.572,-31.11698,11.46464,-146.3605,-31.66928,11.54305,-145.8157,LR
-0.3237305,-0.9433594,0.2746582,0.8609924,0.6292443,-0.1376107,-65.6977,18.53922,-74.61275,-65.77056,18.23637,-74.60323,-0.09912109,-0.2441406,-0.3825684,-2.182527,-1.314214,1.572,-31.16085,11.46243,-146.319,-31.70627,12.32046,-145.4427,LR
-0.3222656,-0.9428711,0.2785645,0.5556489,1.102527,-0.1986794,-65.68932,18.54761,-74.61104,-65.68734,18.14839,-74.38091,-0.09155273,-0.2460938,-0.3969727,-2.961153,-1.329481,1.831542,-31.20386,11.43545,-146.2961,-31.13489,11.09035,-146.5179,LR
-0.3283691,-0.9509277,0.2697754,0.06709921,1.346802,-0.3055496,-65.69295,18.56399,-74.62309,-65.91978,18.37672,-74.98877,-0.0925293,-0.2458496,-0.3986816,-2.16726,-1.207344,1.694137,-31.2315,11.41249,-146.2776,-30.99284,11.17476,-146.6197,LR
-0.324707,-0.949707,0.2753906,-0.1161069,1.102527,-0.4887558,-65.69785,18.5725,-74.63094,-65.85281,18.1789,-74.65677,-0.09863281,-0.2478027,-0.3947754,-1.907718,-1.283679,1.663603,-31.26173,11.40433,-146.2468,-31.34083,11.94814,-145.957,LR
-0.34375,-0.9465332,0.2839355,0.479313,0.6292443,-0.7788321,-65.6724,18.59391,-74.63485,-64.77787,19.18042,-74.25387,-0.09423828,-0.2460938,-0.4030762,-1.129092,-1.375283,1.236122,-31.26662,11.38307,-146.2414,-30.73178,11.28492,-146.8244,LR
-0.3308105,-0.9511719,0.277832,0.738855,0.430771,-0.8857023,-65.66029,18.59716,-74.64584,-65.57343,18.4612,-74.57661,-0.08129883,-0.2438965,-0.4008789,-1.205428,-1.268412,1.205588,-31.27513,11.33335,-146.2454,-30.80619,9.829213,-147.3274,LR
-0.3190918,-0.9475098,0.2807617,0.8457253,0.2475649,-0.1834122,-65.65145,18.58676,-74.6419,-65.84037,17.89483,-74.31427,-0.09106445,-0.2502441,-0.3901367,-0.9764199,-1.085206,0.6712368,-31.30379,11.31304,-146.2243,-31.99039,11.11549,-145.6834,LR
-0.3154297,-0.9421387,0.2885742,0.5403817,0.2475649,-0.1070763,-65.64233,18.57368,-74.62672,-65.59273,17.751,-73.80402,-0.1000977,-0.244873,-0.394043,-0.640542,-0.9783359,0.3964274,-31.30835,11.31591,-146.2165,-31.06088,12.17546,-146.1245,LR
-0.3134766,-0.9418945,0.28125,0.02129769,0.1101603,-0.1834122,-65.64735,18.55758,-74.62051,-65.909,17.68756,-74.18145,-0.09814453,-0.2460938,-0.3781738,-0.5642061,-0.4592519,-0.1837251,-31.33404,11.32872,-146.1944,-32.20586,12.27187,-144.9855,LR
-0.3208008,-0.9411621,0.2834473,-0.1466411,0.07962596,-0.1376107,-65.64725,18.54903,-74.61178,-65.54179,18.07543,-74.08913,-0.09765625,-0.2480469,-0.4030762,-0.3351984,-0.1844428,-0.2447939,-31.33257,11.33117,-146.2064,-30.88287,11.65865,-146.521,LR
-0.3183594,-0.9467773,0.2868652,-0.3298473,0.1406947,-0.2597481,-65.65469,18.53799,-74.60493,-65.64718,17.83862,-73.97646,-0.09912109,-0.2480469,-0.3994141,-0.04512215,-0.123374,-0.3211298,-31.32817,11.34082,-146.2115,-31.07921,11.90478,-146.2264,LR
-0.3193359,-0.9453125,0.2878418,-0.2840458,0.01855725,-0.1223435,-65.65665,18.52568,-74.5928,-65.54453,17.9088,-73.90829,-0.09375,-0.2478027,-0.4033203,-0.1519923,-0.382916,0.0,-31.32181,11.33243,-146.2213,-30.89849,11.20249,-146.6988,LR
-0.3168945,-0.9487305,0.276123,-0.2535114,-0.179916,-0.2139466,-65.66935,18.50815,-74.59544,-66.10519,17.78169,-74.5677,-0.1079102,-0.2478027,-0.3884277,0.0,-0.3065802,-0.4432673,-31.32694,11.3649,-146.2068,-31.57836,13.18165,-145.1687,LR
-0.324707,-0.9506836,0.2861328,-0.5893893,-0.2257175,-0.0002061129,-65.67509,18.49689,-74.58558,-65.52306,18.11078,-74.10194,-0.09619141,-0.2436523,-0.3947754,-0.381,-0.2455115,-0.3821983,-31.32498,11.36828,-146.2169,-30.94893,11.7142,-146.4338,LR
-0.3154297,-0.9487305,0.2792969,-0.6809924,-0.07304579,-0.2597481,-65.6927,18.47967,-74.58553,-66.05503,17.68967,-74.39204,-0.09765625,-0.2456055,-0.4050293,-0.2283282,-0.07757253,-0.2447939,-31.31222,11.37276,-146.2337,-30.51921,11.64922,-146.8729,LR
-0.3154297,-0.9506836,0.2875977,-0.5435878,-0.02724427,-0.07654199,-65.70324,18.46205,-74.57454,-65.81983,17.61874,-73.9799,-0.1013184,-0.2475586,-0.3952637,-0.1825268,-0.3218473,-0.3363969,-31.31356,11.3857,-146.2322,-31.2451,12.2565,-145.9123,LR
-0.3132324,-0.9487305,0.2912598,-0.5435878,-0.02724427,-0.1834122,-65.71181,18.44275,-74.56069,-65.73239,17.51679,-73.74745,-0.09814453,-0.2470703,-0.392334,-0.2741299,-0.1539084,-0.3974657,-31.31975,11.39476,-146.2309,-31.42159,11.95188,-145.878,LR
-0.3103027,-0.9436035,0.2775879,-0.6351909,0.4002366,-0.1070763,-65.73075,18.42997,-74.55879,-66.19157,17.50949,-74.38667,-0.1030273,-0.2458496,-0.395752,0.0,0.3041069,0.1674199,-31.31363,11.42073,-146.2246,-31.01358,12.46953,-146.0372,LR
-0.3056641,-0.9521484,0.2844238,-0.650458,0.9345879,-0.2902825,-65.75214,18.41706,-74.55434,-66.32214,17.09764,-74.12311,-0.1035156,-0.2475586,-0.3901367,-0.01458788,0.6399847,-0.01578617,-31.31799,11.45365,-146.2099,-31.52167,12.62773,-145.4805,LR
-0.3117676,-0.9489746,0.2675781,-0.9710688,0.0,-0.5192901,-65.78222,18.39966,-74.57046,-66.59027,17.54704,-75.00373,-0.09399414,-0.248291,-0.390625,0.6419008,0.746855,0.2437558,-31.3165,11.46514,-146.1981,-31.71548,11.47918,-145.7981,LR
-0.3149414,-0.9487305,0.2822266,-0.8794656,1.209397,-0.9162367,-65.799,18.40245,-74.57719,-65.97517,17.65007,-74.23412,-0.09326172,-0.2458496,-0.40625,0.3670917,0.8231909,0.1979542,-31.29544,11.47017,-146.213,-30.53319,11.11163,-147.0871,LR
-0.3183594,-0.9492188,0.2792969,-0.4672519,1.08726,-0.7330306,-65.80901,18.40709,-74.58468,-65.95523,17.83568,-74.41267,-0.09765625,-0.2419434,-0.3942871,0.2449541,0.4720459,0.5949008,-31.28151,11.48611,-146.2101,-30.77909,11.92029,-146.5065,LR
-0.324707,-0.9489746,0.286377,-0.5435878,1.148328,-0.7482977,-65.81033,18.41858,-74.58528,-65.4761,18.13752,-74.06471,-0.09814453,-0.248291,-0.3952637,0.1991527,0.2125039,0.1216183,-31.28052,11.49679,-146.2035,-31.3687,11.87402,-145.9626,LR
-0.317627,-0.9465332,0.2758789,-0.4367175,0.9651221,-0.7177633,-65.82084,18.4206,-74.59449,-66.03612,17.85706,-74.55347,-0.07910156,-0.244873,-0.3928223,-0.4726033,-0.01650381,0.2284887,-31.29045,11.46055,-146.2115,-31.42918,9.697282,-146.7718,LR
-0.317627,-0.9414063,0.2758789,-0.6351909,0.9345879,-0.6414275,-65.83217,18.42474,-74.60166,-65.92041,17.9409,-74.48156,-0.08984375,-0.2399902,-0.4003906,-0.5184045,-0.1081069,0.1521528,-31.27868,11.44764,-146.2326,-30.32111,10.89421,-147.3801,LR
-0.3259277,-0.9487305,0.2714844,-0.4061831,0.9193206,-0.7024961,-65.83971,18.43531,-74.61709,-65.91022,18.27758,-74.85675,-0.09399414,-0.244873,-0.4018555,-0.6252747,0.02929771,0.06054974,-31.27534,11.445,-146.2445,-30.68241,11.29554,-146.8673,LR
-0.3254395,-0.9431152,0.2741699,-0.650458,0.7666489,-0.8857023,-65.84614,18.44378,-74.62958,-65.71503,18.33268,-74.63409,-0.09008789,-0.2409668,-0.4013672,-0.2588627,0.2125039,0.442229,-31.26111,11.43728,-146.2595,-30.36136,10.89259,-147.3421,LR
-0.3186035,-0.9538574,0.2717285,-0.6809924,0.7055801,-0.855168,-65.86587,18.44214,-74.64799,-66.29861,17.80886,-74.87978,-0.1000977,-0.2416992,-0.4082031,-0.2741299,0.1514351,0.2284887,-31.23769,11.44891,-146.2781,-29.90183,11.91474,-147.3452,LR
-0.3210449,-0.9465332,0.2753906,-0.5283206,0.5834427,-0.6108932,-65.87422,18.44209,-74.65533,-65.92156,18.03916,-74.59557,-0.09130859,-0.2458496,-0.3937988,-0.07565641,0.1972366,-0.09212208,-31.24018,11.44537,-146.2806,-31.30664,11.12711,-146.3376,LR
-0.3310547,-0.9501953,0.2766113,-0.6351909,0.6139771,-0.8093664,-65.8777,18.45219,-74.66669,-65.58109,18.49615,-74.62892,-0.08984375,-0.2412109,-0.3969727,-0.289397,0.07509923,0.06054974,-31.2324,11.43643,-146.295,-30.65258,10.94675,-147.0403,LR
-0.3212891,-0.9460449,0.2683105,-0.9099999,0.2780993,-0.5345572,-65.89528,18.44884,-74.68005,-66.1324,18.0936,-74.96796,-0.08935547,-0.2443848,-0.3950195,-0.1672597,-0.0470382,0.1521528,-31.23252,11.42474,-146.2992,-31.1076,10.88882,-146.6262,LR
-0.3225098,-0.949707,0.2775879,-0.6046565,0.4765725,-0.6414275,-65.90415,18.4484,-74.6871,-65.86503,18.05341,-74.52978,-0.09423828,-0.2497559,-0.3979492,0.03121376,0.1667023,0.1979542,-31.23571,11.42537,-146.2934,-31.41311,11.34182,-146.1464,LR
-0.3249512,-0.9460449,0.2734375,-0.4977863,0.5223741,-0.504023,-65.90938,18.45183,-74.6945,-65.82417,18.26171,-74.71134,-0.09106445,-0.2426758,-0.4160156,0.1686182,0.1361679,0.0,-31.20204,11.413,-146.3291,-29.67626,10.70699,-148.0749,LR
-0.3193359,-0.9458008,0.2756348,-0.390916,0.430771,-0.5803587,-65.91618,18.44833,-74.70043,-65.96241,17.96014,-74.5643,-0.09545898,-0.2460938,-0.4025879,0.2754886,0.1972366,-0.3363969,-31.18882,11.41638,-146.3424,-30.74367,11.43711,-146.7489,LR
-0.3293457,-0.956543,0.2685547,-0.4367175,0.4918396,-0.336084,-65.92521,18.4534,-74.71403,-66.04607,18.33991,-75.13309,-0.08544922,-0.2397461,-0.3974609,0.5044961,0.2888396,-0.06158781,-31.1682,11.40092,-146.3638,-30.52869,10.43082,-147.3661,LR
-0.3205566,-0.9536133,0.2766113,-0.3451145,0.4765725,-0.4124198,-65.93296,18.44918,-74.71835,-66.05883,17.89226,-74.6265,-0.09472656,-0.2438965,-0.4003906,0.3518243,0.1056336,0.1674199,-31.15319,11.40281,-146.3709,-30.65871,11.42285,-146.8363,LR
-0.3198242,-0.9511719,0.28125,-0.1924427,0.5071069,-0.336084,-65.93452,18.44458,-74.71546,-65.87901,17.87149,-74.34348,-0.09228516,-0.2441406,-0.3937988,0.3518243,0.1972366,-0.06158781,-31.14726,11.40294,-146.3737,-31.11559,11.26445,-146.4645,LR
-0.3195801,-0.9487305,0.2797852,-0.390916,0.6292443,-0.5803587,-65.93922,18.44305,-74.71739,-65.88184,17.90531,-74.38564,-0.08984375,-0.2453613,-0.3974609,0.4281602,0.2583054,-0.3211298,-31.13909,11.39643,-146.3846,-31.05342,10.88764,-146.6789,LR
-0.3125,-0.954834,0.2749023,-0.4214504,0.5529084,-0.7177633,-65.95559,18.43149,-74.72754,-66.44791,17.45872,-74.69706,-0.09130859,-0.2453613,-0.4018555,0.3518243,0.3804427,-0.04632068,-31.12687,11.39322,-146.3958,-30.76936,10.97498,-146.9166,LR
-0.3188477,-0.949707,0.2531738,-0.5130534,0.6139771,-0.6566947,-65.97942,18.43075,-74.75834,-66.79529,17.97324,-75.81725,-0.09057617,-0.2460938,-0.4023438,0.8861756,0.4262443,-0.168458,-31.10781,11.38904,-146.4085,-30.82523,10.87106,-146.9052,LR
-0.3168945,-0.9609375,0.2546387,-0.6657251,0.0,-0.7482977,-66.01101,18.41575,-74.79166,-67.06916,17.68094,-75.87434,-0.08984375,-0.2424316,-0.4057617,0.9472442,0.1667023,-0.5043359,-31.07687,11.37896,-146.4376,-30.2569,10.76226,-147.4954,LR
-0.3259277,-0.958252,0.2724609,1.609084,-0.08831299,-0.7330306,-65.98897,18.40846,-74.80527,-66.09142,18.11602,-74.93387,-0.09521484,-0.2446289,-0.4133301,0.6419008,-0.6577252,0.1521528,-31.04538,11.36597,-146.4582,-29.97394,11.21303,-147.5804,LR
-0.322998,-0.9396973,0.293457,5.456412,-0.8516718,-0.7024961,-65.89077,18.39106,-74.79043,-65.08962,18.16461,-73.54657,-0.09887695,-0.2468262,-0.3967285,0.672435,0.0,-0.1379237,-31.03696,11.37762,-146.4545,-31.11883,11.94851,-146.1693,LR
-0.3100586,-0.9396973,0.2944336,4.067099,-0.7600687,-0.6261602,-65.82384,18.36161,-74.77242,-65.5334,17.47723,-73.42966,-0.1030273,-0.2502441,-0.3984375,0.3365571,-0.123374,0.1368854,-31.03765,11.3954,-146.4398,-31.30228,12.35123,-145.8152,LR
-0.3095703,-0.9440918,0.286377,1.57855,-0.8211374,-0.4887558,-65.80431,18.33154,-74.7621,-65.93011,17.42104,-73.92112,-0.09643555,-0.2453613,-0.3896484,0.01594663,0.1056336,-0.2905953,-31.04538,11.40561,-146.4337,-31.43564,11.82854,-145.9181,LR
-0.315918,-0.9526367,0.3085938,1.380076,-0.347855,-0.4734885,-65.7705,18.30999,-74.73199,-65.12833,17.5097,-72.90889,-0.09887695,-0.2419434,-0.3937988,0.2602212,-0.031771,-0.4127328,-31.03645,11.41854,-146.4396,-30.79015,12.0755,-146.4274,LR
-0.3173828,-0.9521484,0.291748,1.028931,0.03382444,-0.4582213,-65.75278,18.29783,-74.71992,-65.64053,17.67748,-73.79157,-0.09301758,-0.2434082,-0.3789063,0.03121376,0.1972366,0.182687,-31.05444,11.42647,-146.4178,-31.95893,11.66999,-145.4835,LR
-0.3134766,-0.9475098,0.2663574,0.5098474,0.1559618,-0.7177633,-65.76087,18.2875,-74.73721,-66.53219,17.66653,-75.05685,-0.09375,-0.2429199,-0.3950195,-0.06038928,-0.2607787,0.091084,-31.05211,11.42269,-146.4203,-30.89363,11.42903,-146.6086,LR
-0.314209,-0.9448242,0.2807617,0.6014504,0.5529084,-0.6414275,-65.7561,18.28351,-74.73695,-65.96411,17.6813,-74.25292,-0.09741211,-0.2473145,-0.3928223,-0.7168779,-0.1691756,0.7475727,-31.07017,11.42878,-146.3992,-31.42806,11.85173,-145.9153,LR
-0.3139648,-0.9526367,0.2817383,0.4945802,0.690313,-0.9009695,-65.75603,18.27876,-74.74167,-66.11552,17.53877,-74.31078,-0.09619141,-0.2434082,-0.3950195,-0.5947404,-0.2607787,0.6712368,-31.07569,11.43062,-146.3908,-30.90886,11.71224,-146.473,LR
-0.3212891,-0.9519043,0.2868652,0.2655725,0.8124504,0.0,-65.75008,18.28331,-74.72812,-65.65416,17.9091,-74.06416,-0.09179688,-0.2456055,-0.3901367,-0.2130611,-0.06230533,0.5338321,-31.0871,11.42638,-146.3776,-31.50005,11.26155,-146.0961,LR
-0.3161621,-0.9458008,0.2893066,0.219771,0.4460382,-0.8704351,-65.74455,18.2783,-74.72194,-65.62423,17.72697,-73.82224,-0.09326172,-0.2443848,-0.4038086,-0.4420686,-0.5661222,0.5032978,-31.08239,11.41307,-146.384,-30.52687,11.17698,-147.066,LR
-0.3151855,-0.9455566,0.2856445,0.3419085,0.06435877,0.0,-65.74022,18.26763,-74.70766,-65.77912,17.69742,-74.00828,-0.09887695,-0.2424316,-0.3937988,-0.7932138,-0.3065802,0.3048244,-31.08922,11.42168,-146.3794,-30.84097,12.06901,-146.3818,LR
-0.3181152,-0.9516602,0.2922363,0.219771,0.09489316,-0.6872291,-65.73391,18.25809,-74.69886,-65.58606,17.72112,-73.76233,-0.08032227,-0.2497559,-0.3898926,-0.6710763,-0.2607787,0.5032978,-31.11939,11.38624,-146.3657,-32.10419,9.841277,-146.0639,LR
-0.3132324,-0.9482422,0.2802734,0.2655725,0.2170305,-0.7940992,-65.73721,18.24767,-74.70301,-66.09416,17.57725,-74.32292,-0.1018066,-0.2441406,-0.3984375,-0.7168779,-0.2149771,0.182687,-31.12077,11.40138,-146.3643,-30.69641,12.29082,-146.4204,LR
-0.3100586,-0.9487305,0.2768555,0.2503054,0.3849695,-0.7482977,-65.74583,18.23636,-74.70915,-66.33997,17.41815,-74.49708,-0.09716797,-0.2441406,-0.3989258,-0.2283282,0.2125039,0.3964274,-31.11643,11.41121,-146.3637,-30.73616,11.73656,-146.6277,LR
-0.3181152,-0.9472656,0.2775879,-0.009236574,0.6750459,-0.5345572,-65.7506,18.23881,-74.71233,-65.97731,17.8627,-74.47498,-0.09350586,-0.2458496,-0.3969727,0.2602212,0.3499084,0.259023,-31.11192,11.41461,-146.3621,-31.08216,11.32393,-146.4718,LR
-0.3161621,-0.9487305,0.2792969,-0.1466411,0.9040535,-0.763565,-65.75829,18.24189,-74.71721,-66.02736,17.72817,-74.39547,-0.08862305,-0.2456055,-0.3974609,0.6571679,0.6705191,0.3658931,-31.10257,11.41032,-146.3638,-31.09524,10.74029,-146.6977,LR
-0.3188477,-0.939209,0.2785645,-0.574122,0.858252,-0.6719618,-65.76569,18.2494,-74.71834,-65.73425,18.02859,-74.31249,-0.09130859,-0.2419434,-0.4006348,0.580832,0.6247175,-0.07685494,-31.08178,11.41209,-146.3808,-30.48965,11.03943,-147.1588,LR
-0.3151855,-0.9462891,0.2763672,-0.6962595,0.9193206,-0.4887558,-65.78276,18.25252,-74.72141,-66.10744,17.73007,-74.5126,-0.08764648,-0.2485352,-0.3981934,0.1991527,0.6094504,0.1979542,-31.08452,11.40434,-146.3803,-31.36503,10.57669,-146.5022,LR
-0.3186035,-0.9477539,0.2741699,-0.9252671,0.9193206,-0.427687,-65.80236,18.25892,-74.72659,-66.08265,17.89663,-74.66611,-0.07836914,-0.2478027,-0.3955078,-0.1214581,0.3346412,-0.2753282,-31.0961,11.37181,-146.3905,-31.57463,9.531773,-146.6899,LR
-0.2990723,-0.9482422,0.2817383,-0.9558016,0.6445115,-0.2139466,-65.83182,18.23965,-74.7188,-66.57268,16.82185,-74.17955,-0.09179688,-0.2495117,-0.4018555,-0.1519923,0.487313,-0.1531909,-31.1,11.37071,-146.3951,-31.18681,10.98272,-146.5119,LR
-0.3139648,-0.9536133,0.2775879,-0.833664,0.6292443,-0.2444809,-65.85214,18.23435,-74.71866,-66.27612,17.5426,-74.54437,-0.09667969,-0.2468262,-0.3950195,-0.1825268,-0.123374,-0.2295268,-31.10722,11.37503,-146.3951,-31.2549,11.72577,-146.1357,LR
-0.3149414,-0.9484863,0.2734375,0.0,0.4155039,-0.2139466,-65.86037,18.23293,-74.72308,-66.26333,17.69542,-74.69836,-0.09399414,-0.2485352,-0.3994141,-0.07565641,-0.2149771,-0.3974657,-31.11025,11.37036,-146.4003,-31.20343,11.29925,-146.3656,LR
-0.3061523,-0.9533691,0.2878418,-0.8183969,0.430771,-0.03074045,-65.87946,18.21638,-74.70831,-66.21354,17.08851,-73.96204,-0.09448242,-0.2446289,-0.3955078,0.1075497,0.07509923,-0.4738016,-31.10708,11.37374,-146.4084,-31.03073,11.4843,-146.4537,LR
-0.3115234,-0.9519043,0.2958984,0.0,0.5223741,-0.01547329,-65.87602,18.20682,-74.68519,-65.70735,17.3547,-73.54124,-0.09277344,-0.244873,-0.3928223,-0.1825268,0.01403052,-0.2142596,-31.11251,11.37313,-146.4096,-31.2443,11.33306,-146.3123,LR
-0.3190918,-0.949707,0.2910156,-0.8031298,0.6292443,-0.2444809,-65.88125,18.20812,-74.67114,-65.54691,17.8094,-73.80302,-0.09594727,-0.2426758,-0.3977051,-0.2588627,0.3957099,-0.07685494,-31.10757,11.38422,-146.4171,-30.67524,11.63683,-146.7291,LR
-0.3183594,-0.9536133,0.2766113,-0.8489313,0.8429847,-0.04600763,-65.89895,18.2119,-74.67072,-66.14224,17.77736,-74.61635,-0.08813477,-0.2434082,-0.395752,-0.1367252,0.09036642,-0.4432673,-31.10699,11.37269,-146.4315,-30.97829,10.74105,-146.8101,LR
-0.3183594,-0.9523926,0.2915039,0.0,0.6445115,-0.2139466,-65.89333,18.21165,-74.6567,-65.61836,17.72577,-73.81269,-0.09350586,-0.2426758,-0.4042969,-0.1825268,0.1667023,-0.2295268,-31.09392,11.37201,-146.4512,-30.31929,11.21624,-147.2485,LR
-0.3122559,-0.9487305,0.2675781,-0.8641985,0.6139771,-0.2139466,-65.91949,18.20798,-74.66677,-66.56606,17.57676,-75.00259,-0.09106445,-0.2441406,-0.3969727,-0.197794,0.1514351,-0.06158781,-31.09355,11.36777,-146.4574,-30.94,11.05635,-146.7193,LR
-0.2980957,-0.9487305,0.2780762,-0.7115266,0.4765725,-0.1834122,-65.94582,18.18595,-74.66351,-66.74725,16.77911,-74.37766,-0.09423828,-0.2441406,-0.4089355,0.0006792545,0.1209008,0.06054974,-31.07546,11.36604,-146.4751,-30.18943,11.1924,-147.3829,LR
-0.3151855,-0.9492188,0.2631836,-0.6199236,0.4002366,-0.1986794,-65.96816,18.18298,-74.67831,-66.60738,17.74342,-75.25758,-0.08911133,-0.2478027,-0.4016113,-0.289397,-0.4287176,0.1521528,-31.07976,11.34587,-146.4781,-31.06355,10.69335,-146.747,LR
-0.3208008,-0.9553223,0.2709961,-0.574122,0.2322977,-0.168145,-65.98322,18.18103,-74.68635,-66.27055,17.90343,-74.9485,-0.09301758,-0.2431641,-0.3984375,-4.197794,-0.1997099,-0.01578617,-31.13023,11.34161,-146.4855,-30.72358,11.27004,-146.8385,LR
-0.315918,-0.9509277,0.2746582,-0.3451145,0.1559618,-0.1834122,-65.99308,18.17359,-74.68858,-66.2399,17.70173,-74.67163,-0.09350586,-0.244873,-0.3994141,3.603733,-0.3676488,-0.06158781,-31.07135,11.33511,-146.4912,-30.8347,11.28705,-146.7248,LR
-0.3232422,-0.9543457,0.2744141,-0.3756489,0.171229,-0.0002061129,-65.99963,18.17325,-74.69012,-66.04446,18.03089,-74.76533,-0.09716797,-0.2443848,-0.3986816,-0.197794,-0.1997099,-0.2447939,-31.06835,11.34025,-146.4968,-30.77588,11.73853,-146.5889,LR
-0.314209,-0.9663086,0.2734375,-0.574122,-0.05777865,0.1066641,-66.02171,18.15641,-74.69351,-66.68153,17.3738,-74.93838,-0.09570313,-0.2426758,-0.4016113,-0.1825268,-0.09283972,-0.3516641,-31.0586,11.34263,-146.5119,-30.44686,11.52765,-146.9944,LR
-0.3117676,-0.9511719,0.270752,-0.742061,0.2475649,-0.04600763,-66.04285,18.14687,-74.6976,-66.53334,17.49741,-74.86418,-0.09082031,-0.2402344,-0.3974609,-0.02985501,0.09036642,-0.3058627,-31.04803,11.3384,-146.5288,-30.5081,11.06487,-147.1306,LR
-0.3103027,-0.9519043,0.2687988,-0.5893893,0.3239008,0.1677328,-66.06406,18.13704,-74.70062,-66.67045,17.41734,-74.97186,-0.0925293,-0.2426758,-0.392334,-0.02985501,-0.001236677,-0.1837251,-31.04849,11.33845,-146.5308,-31.04909,11.34158,-146.4962,LR
-0.3227539,-0.9528809,0.2805176,-0.5435878,-0.05777865,-0.09180916,-66.0674,18.13346,-74.69636,-65.83103,18.00035,-74.42001,-0.08911133,-0.244873,-0.4020996,0.06174803,-0.123374,-0.1379237,-31.04129,11.32423,-146.5433,-30.73405,10.71808,-147.0545,LR
-0.3166504,-0.9494629,0.2685547,-0.3756489,-0.2104504,-0.06127481,-66.07919,18.12354,-74.70293,-66.38036,17.79219,-74.98016,-0.09765625,-0.2441406,-0.3981934,-0.2130611,-0.6577252,-0.07685494,-31.03926,11.32361,-146.5449,-30.77271,11.80921,-146.5612,LR
-0.3137207,-0.9484863,0.2646484,-0.4214504,-0.07304579,0.2440687,-66.09622,18.11335,-74.7083,-66.60043,17.67136,-75.16273,-0.09277344,-0.2475586,-0.4003906,-0.2588627,-0.2149771,-0.2447939,-31.04327,11.31717,-146.5486,-31.06202,11.14893,-146.5639,LR
-0.3085938,-0.954834,0.2722168,-0.131374,0.003290057,0.0,-66.10981,18.09644,-74.71058,-66.68566,17.2656,-74.82224,-0.08813477,-0.2456055,-0.3967285,-0.3199313,-0.3981832,-0.04632068,-31.05003,11.2989,-146.5517,-31.1464,10.69642,-146.6659,LR
-0.3122559,-0.9533691,0.2685547,-0.222977,-0.1035802,0.2898702,-66.1236,18.08295,-74.71237,-66.63563,17.49796,-75.01347,-0.09301758,-0.2468262,-0.4016113,-0.4268017,-0.4134504,-0.07685494,-31.05352,11.29009,-146.5558,-30.91065,11.1624,-146.7038,LR
-0.3132324,-0.9487305,0.2712402,0.02129769,-0.2562519,0.3509389,-66.12896,18.06975,-74.70919,-66.40711,17.61157,-74.8112,-0.09399414,-0.248291,-0.3991699,-0.5642061,-0.6271908,0.03001523,-31.06461,11.28121,-146.5517,-31.19319,11.30713,-146.3722,LR
-0.3151855,-0.9533691,0.2775879,-0.131374,-0.2715191,0.4272748,-66.1328,18.05658,-74.69965,-66.22463,17.6105,-74.54658,-0.09277344,-0.2438965,-0.3955078,-0.4420686,-0.3676488,-0.09212208,-31.0694,11.27601,-146.5537,-30.97938,11.29105,-146.5843,LR
-0.3115234,-0.953125,0.2717285,-0.1008396,-0.1493817,0.4272748,-66.14269,18.04223,-74.69614,-66.55312,17.44898,-74.83782,-0.09057617,-0.25,-0.3981934,-0.4726033,-0.7035267,0.091084,-31.08446,11.25823,-146.5466,-31.47486,10.90424,-146.2661,LR
-0.3127441,-0.9487305,0.2731934,0.2503054,-0.1951832,0.6257481,-66.14338,18.03005,-74.68711,-66.3608,17.5768,-74.7047,-0.09545898,-0.2453613,-0.3952637,-0.4268017,-0.3981832,0.259023,-31.09076,11.25951,-146.5388,-31.10703,11.59548,-146.3333,LR
-0.3125,-0.9487305,0.2758789,0.5403817,-0.5157939,0.4883435,-66.1387,18.0134,-74.67787,-66.28034,17.55147,-74.56036,-0.0949707,-0.2463379,-0.4060059,-0.381,-0.3218473,0.350626,-31.08603,11.25577,-146.5422,-30.57405,11.30902,-146.9655,LR
-0.3083496,-0.953125,0.2687988,0.6777863,-0.3936565,0.5799466,-66.1414,17.99325,-74.67538,-66.77193,17.29497,-74.97985,-0.09667969,-0.2436523,-0.4008789,-0.3962674,-0.3523817,0.5949008,-31.08167,11.25838,-146.539,-30.57694,11.64498,-146.8195,LR
-0.315918,-0.9560547,0.2739258,0.7235878,-0.3173206,0.5952138,-66.13548,17.98117,-74.66875,-66.37745,17.62286,-74.78106,-0.09350586,-0.2402344,-0.3974609,-0.4573359,-0.5813893,0.7170382,-31.07618,11.25233,-146.5383,-30.47086,11.38363,-147.0328,LR
-0.3188477,-0.9526367,0.2651367,0.6777863,-0.2104504,0.4272748,-66.13233,17.97589,-74.6734,-66.47653,17.87163,-75.21517,-0.09814453,-0.2426758,-0.3952637,-0.4573359,-0.7493282,0.0,-31.07671,11.25596,-146.5372,-30.78925,11.94769,-146.4847,LR
-0.3195801,-0.9504395,0.2807617,0.6319848,-0.347855,0.5188779,-66.11877,17.96906,-74.65997,-65.88794,17.87291,-74.35789,-0.0949707,-0.2412109,-0.4025879,-0.6558094,-0.8256641,0.8239083,-31.06979,11.2475,-146.5388,-30.24838,11.43983,-147.2218,LR
-0.3154297,-0.9519043,0.2810059,0.738855,-0.1493817,0.4883435,-66.1069,17.96009,-74.64652,-66.06883,17.6307,-74.34607,-0.09545898,-0.2458496,-0.3945313,-0.197794,-0.4439847,0.5185649,-31.07534,11.24811,-146.5252,-31.20191,11.60431,-146.2385,LR
-0.3212891,-0.9487305,0.282959,0.4335115,0.003290057,0.2746031,-66.09264,17.96053,-74.63406,-65.71211,17.97956,-74.22549,-0.08789063,-0.2626953,-0.4057617,-0.381,-0.4287176,0.5032978,-31.10589,11.22295,-146.5009,-32.32315,10.30533,-145.6792,LR
-0.324707,-0.9489746,0.265625,0.3266413,-0.05777865,0.01506107,-66.089,17.96521,-74.64449,-66.15121,18.23714,-75.16669,-0.09350586,-0.2412109,-0.3930664,-0.2741299,-0.7493282,0.2895572,-31.10455,11.21671,-146.4995,-30.83739,11.46163,-146.6487,LR
-0.3198242,-0.9396973,0.2756348,0.2045038,-0.179916,0.3509389,-66.08033,17.96499,-74.63606,-65.80537,18.08644,-74.48106,-0.09545898,-0.2373047,-0.3967285,-0.4726033,0.0,-0.1379237,-31.09302,11.22572,-146.5154,-30.1804,11.66725,-147.1887,LR
-0.3203125,-0.9443359,0.2875977,-0.02450383,-0.1341145,0.2898702,-66.06896,17.96326,-74.61732,-65.49393,17.97717,-73.91188,-0.09765625,-0.2414551,-0.3972168,-0.6710763,-0.550855,0.1979542,-31.09142,11.23094,-146.5173,-30.55291,11.86434,-146.7471,LR
-0.3205566,-0.9470215,0.2727051,-0.3603816,-0.179916,0.2288015,-66.07331,17.96189,-74.6167,-66.03936,18.01825,-74.74319,-0.09130859,-0.2387695,-0.4003906,-0.5947404,-0.5203207,-0.2753282,-31.08182,11.22031,-146.5399,-30.17434,11.08198,-147.4435,LR
-0.3217773,-0.9501953,0.2866211,-0.5283206,-0.4852595,-0.168145,-66.07172,17.95479,-74.60794,-65.60537,17.96344,-74.05502,-0.09619141,-0.2414551,-0.3908691,-0.5031376,-0.8561985,-0.1837251,-31.08673,11.21982,-146.5393,-30.95709,11.82518,-146.3779,LR
-0.3278809,-0.9528809,0.2753906,-0.3298473,-0.866939,-0.06127481,-66.07118,17.94879,-74.61098,-65.80263,18.29212,-74.71527,-0.1000977,-0.2436523,-0.4035645,-0.5489388,-0.9783359,-0.0310533,-31.08046,11.2208,-146.5463,-30.37006,11.98786,-146.8669,LR
-0.3198242,-0.9472656,0.2827148,-0.131374,-0.9280076,0.0,-66.06653,17.93473,-74.60297,-65.74223,17.9278,-74.21061,-0.1000977,-0.2421875,-0.4020996,-0.6252747,0.0,-0.1837251,-31.07353,11.23714,-146.5561,-30.30499,12.03772,-146.9068,LR
-0.3149414,-0.9462891,0.286377,-0.03977096,-0.9890764,0.3662061,-66.06134,17.91585,-74.58546,-65.78003,17.66925,-73.97879,-0.1003418,-0.2446289,-0.3981934,-0.7626796,-0.8867329,-0.1379237,-31.07894,11.24172,-146.5553,-30.78326,12.11805,-146.415,LR
-0.3190918,-0.9528809,0.2851563,-0.03977096,-0.9432748,0.4120076,-66.057,17.8994,-74.57085,-65.81503,17.78694,-74.1577,-0.1005859,-0.2446289,-0.4001465,0.0,-0.5203207,-0.4585342,-31.07064,11.25133,-146.5616,-30.66383,12.10481,-146.5349,LR
-0.3127441,-0.9492188,0.2878418,-0.1161069,-0.5157939,0.5188779,-66.05512,17.88383,-74.55048,-65.87801,17.49993,-73.93301,-0.09960938,-0.2387695,-0.4020996,-0.2588627,0.09036642,-0.260061,-31.05194,11.26803,-146.5788,-29.9585,12.02434,-147.2425,LR
-0.3181152,-0.9475098,0.2832031,-0.222977,-0.439458,0.2593359,-66.05299,17.87676,-74.53951,-65.79575,17.83178,-74.17999,-0.1020508,-0.2385254,-0.3933105,-0.04512215,0.1972366,-0.2905953,-31.03984,11.29575,-146.5833,-30.41368,12.50881,-146.59,LR
-0.3181152,-0.9484863,0.2780762,-0.4214504,0.03382444,0.3662061,-66.0579,17.87654,-74.53265,-65.98854,17.84055,-74.4661,-0.09741211,-0.2390137,-0.3859863,0.2144198,0.3957099,-0.01578617,-31.03551,11.31785,-146.5765,-30.98074,12.11009,-146.2301,LR
-0.3186035,-0.9423828,0.282959,-0.299313,0.2475649,0.09139694,-66.05452,17.88148,-74.52309,-65.66906,17.94203,-74.12197,-0.09350586,-0.2434082,-0.3891602,0.489229,0.227771,-0.07685494,-31.03374,11.32513,-146.5696,-31.30636,11.51421,-146.1766,LR
-0.3181152,-0.9414063,0.2683105,-0.4061831,0.3239008,-0.01547329,-66.06243,17.88867,-74.53065,-66.15167,18.0028,-74.88982,-0.09082031,-0.2451172,-0.395752,0.2602212,0.1819695,0.1063511,-31.03161,11.32209,-146.5677,-31.11847,11.03959,-146.5545,LR
-0.3208008,-0.9506836,0.2775879,-0.3451145,0.5071069,-0.1986794,-66.0653,17.89731,-74.53368,-65.95198,17.948,-74.53531,-0.09228516,-0.2468262,-0.3950195,-0.1672597,0.3499084,0.1979542,-31.03981,11.32493,-146.5593,-31.3189,11.20658,-146.2931,LR
-0.3239746,-0.9499512,0.2717285,-0.4061831,0.3697023,-0.2444809,-66.07007,17.90788,-74.54362,-66.00518,18.15395,-74.85127,-0.09423828,-0.2456055,-0.3994141,-0.1519923,-0.3065802,0.1979542,-31.03909,11.3215,-146.558,-30.89975,11.36411,-146.6301,LR
-0.3227539,-0.9487305,0.276123,-0.4825191,0.1559618,-0.1223435,-66.07292,17.91365,-74.54634,-65.88168,18.08923,-74.59516,-0.1020508,-0.2412109,-0.3979492,-0.197794,-0.3065802,0.0147481,-31.0296,11.33795,-146.5597,-30.41875,12.36922,-146.6491,LR
-0.3181152,-0.9499512,0.2756348,-0.4519846,-0.02724427,-0.2444809,-66.08015,17.91154,-74.55134,-66.10214,17.82834,-74.61633,-0.09741211,-0.2446289,-0.376709,-0.289397,-0.09283972,-0.2295268,-31.05641,11.35456,-146.5328,-32.15776,12.23635,-145.0474,LR
-0.326416,-0.9482422,0.2724609,-0.4367175,-0.05777865,-0.2750153,-66.08195,17.91859,-74.56037,-65.84887,18.3066,-74.8004,-0.09960938,-0.2460938,-0.3977051,0.07701516,-0.001236677,-0.5959387,-31.05363,11.36791,-146.5364,-30.97404,12.02336,-146.2749,LR
-0.3168945,-0.9433594,0.2753906,-0.222977,0.09489316,-0.1834122,-66.08377,17.91907,-74.56249,-66.00886,17.87254,-74.53168,-0.09570313,-0.2416992,-0.4033203,0.1075497,0.2125039,-0.2447939,-31.03589,11.37377,-146.5532,-30.24573,11.50472,-147.1965,LR
-0.3166504,-0.9453125,0.279541,-0.4214504,0.5529084,-0.1376107,-66.08677,17.92497,-74.56,-65.92384,17.80799,-74.3365,-0.09790039,-0.239502,-0.3798828,-0.2130611,0.5025801,-0.0310533,-31.04619,11.39916,-146.5374,-31.40468,12.29821,-145.7412,LR
-0.3181152,-0.9443359,0.2717285,-0.4977863,0.5223741,-0.0002061129,-66.09396,17.93241,-74.56374,-66.10516,17.93838,-74.74692,-0.09643555,-0.2387695,-0.3911133,0.07701516,0.487313,-0.1989923,-31.03659,11.42032,-146.5441,-30.65671,11.88444,-146.6391,LR
-0.3186035,-0.9465332,0.2775879,-0.5893893,0.8887863,-0.168145,-66.10479,17.95267,-74.56576,-65.94225,17.9003,-74.467,-0.09277344,-0.2404785,-0.3964844,0.6571679,0.6247175,-0.6722746,-31.01814,11.42676,-146.5619,-30.56504,11.3136,-146.9722,LR
-0.3168945,-0.9404297,0.2741699,-0.4214504,0.2933664,-0.3055496,-66.10814,17.95617,-74.56976,-65.98322,17.92641,-74.55594,-0.08813477,-0.2429199,-0.4094238,0.6419008,0.5025801,-0.687542,-30.99065,11.41538,-146.5956,-30.11521,10.48852,-147.7413,LR
-0.3259277,-0.9499512,0.2724609,-0.558855,0.2475649,-0.3055496,-66.11232,17.96574,-74.57928,-65.90619,18.25267,-74.82145,-0.09423828,-0.2468262,-0.3994141,0.2754886,0.3499084,-0.428,-30.98729,11.4192,-146.6003,-31.02507,11.34901,-146.5161,LR
-0.3200684,-0.9533691,0.2773438,-0.7573281,0.2017633,-0.3666183,-66.12216,17.96673,-74.58473,-66.04787,17.86725,-74.58208,-0.08959961,-0.2436523,-0.3991699,0.3365571,0.4415114,-0.4890685,-30.97814,11.41423,-146.6147,-30.7771,10.84601,-146.9616,LR
-0.314209,-0.9504395,0.2646484,-0.6351909,-0.04251146,-0.0002061129,-66.14155,17.96008,-74.59686,-66.6244,17.6655,-75.19118,-0.09179688,-0.2429199,-0.4025879,-0.1672597,0.1209008,-0.2447939,-30.97039,11.40866,-146.6295,-30.46815,11.0469,-147.1763,LR
-0.3227539,-0.9541016,0.2724609,0.0976336,0.003290057,-0.0002061129,-66.1397,17.9613,-74.60219,-66.12106,18.01853,-74.86321,-0.08056641,-0.2431641,-0.4035645,-0.1519923,-0.01650381,-0.0005190372,-30.96478,11.37431,-146.6488,-30.57804,9.703464,-147.5946,LR
-0.3198242,-0.9455566,0.2734375,-0.02450383,0.03382444,0.2440687,-66.13748,17.96258,-74.60017,-66.01058,18.00031,-74.68045,-0.08813477,-0.239502,-0.3933105,-0.2130611,-0.3065802,-0.1837251,-30.963,11.35902,-146.659,-30.71889,10.83492,-147.022,LR
-0.3186035,-0.9465332,0.2814941,-0.07030535,-0.1035802,-0.03074045,-66.13201,17.95944,-74.5938,-65.81235,17.88153,-74.25918,-0.09399414,-0.2446289,-0.3903809,-0.381,-0.2302443,0.06054974,-30.97673,11.35886,-146.6474,-31.35106,11.53159,-146.1263,LR
-0.3205566,-0.9545898,0.2670898,-0.03977096,-0.1493817,-0.09180916,-66.13779,17.95632,-74.60626,-66.39016,17.92048,-75.14494,-0.09423828,-0.2475586,-0.3989258,0.0,-0.4287176,-0.1379237,-30.97979,11.35237,-146.6448,-31.12947,11.3497,-146.4156,LR
-0.3168945,-0.9482422,0.2722168,-0.1924427,0.1559618,-0.3818855,-66.14233,17.95564,-74.61514,-66.22346,17.80792,-74.7691,-0.09594727,-0.2385254,-0.3994141,-0.1519923,-0.07757253,-0.2447939,-30.96513,11.35733,-146.6599,-30.14242,11.65342,-147.2309,LR
-0.3210449,-0.9528809,0.2727051,-0.2840458,0.262832,-0.3818855,-66.14642,17.95909,-74.62459,-66.15153,17.94798,-74.8258,-0.09106445,-0.244873,-0.3979492,-0.197794,-0.4287176,-0.3058627,-30.96786,11.34445,-146.6655,-30.9567,11.02829,-146.7147,LR
-0.3132324,-0.954834,0.2756348,-0.4061831,0.1864962,-0.427687,-66.15737,17.95253,-74.63161,-66.39581,17.49379,-74.66152,-0.09106445,-0.2434082,-0.3955078,-0.197794,-0.5813893,-0.2447939,-30.97047,11.3309,-146.6696,-30.95281,11.09423,-146.6914,LR
-0.3144531,-0.9475098,0.267334,-0.299313,0.2780993,-0.2750153,-66.16786,17.95184,-74.6432,-66.46219,17.71367,-75.00893,-0.09472656,-0.248291,-0.3916016,-0.1214581,-0.3676488,-0.5806718,-30.98573,11.3298,-146.6615,-31.64413,11.54622,-145.8386,LR
-0.3178711,-0.9467773,0.2805176,-0.2840458,-0.05777865,-0.2444809,-66.16624,17.94883,-74.64016,-65.8781,17.84377,-74.31107,-0.09350586,-0.2441406,-0.3955078,0.1380839,-0.4134504,-0.2905953,-30.98387,11.32462,-146.6633,-30.99423,11.37482,-146.5349,LR
-0.3200684,-0.9499512,0.2739258,-0.1771755,-0.04251146,-0.2902825,-66.16718,17.94801,-74.64595,-66.08375,17.93887,-74.71627,-0.09472656,-0.251709,-0.3989258,0.1228168,-0.3676488,-0.5806718,-30.9933,11.31983,-146.6588,-31.54564,11.35512,-146.0134,LR
-0.3205566,-0.9455566,0.2758789,-0.4214504,-0.01197708,-0.1070763,-66.16808,17.94942,-74.64568,-65.90215,18.0272,-74.55363,-0.09448242,-0.2475586,-0.3947754,-0.01458788,-0.5966565,-0.3211298,-31.00118,11.31448,-146.6527,-31.37751,11.46206,-146.1302,LR
-0.3076172,-0.9460449,0.2751465,-0.4519846,-0.1951832,-0.07654199,-66.17953,17.93454,-74.6446,-66.4306,17.33963,-74.53938,-0.09985352,-0.244873,-0.3918457,-0.197794,-0.6882596,-0.5348701,-31.00822,11.32129,-146.6477,-31.19781,12.19421,-145.9853,LR
-0.3022461,-0.9528809,0.277832,-0.7573281,0.09489316,-0.1376107,-66.20164,17.91606,-74.64323,-66.69163,16.93613,-74.46808,-0.1010742,-0.2414551,-0.394043,-0.4115343,-0.3371145,-0.5196033,-31.00752,11.33698,-146.65,-30.69117,12.33693,-146.4045,LR
-0.3132324,-0.9504395,0.2788086,-0.8183969,-0.05777865,0.03032825,-66.21268,17.90793,-74.63858,-66.19246,17.54904,-74.4318,-0.09375,-0.2438965,-0.3986816,-0.1672597,-0.1997099,-0.6112061,-31.00532,11.33415,-146.6611,-30.77441,11.34252,-146.7594,LR
-0.3154297,-0.9504395,0.2722168,-0.4519846,-0.02724427,-0.09180916,-66.22165,17.90328,-74.64301,-66.32846,17.69526,-74.79262,-0.09643555,-0.2458496,-0.4006348,-0.09092379,-0.3218473,-0.1837251,-31.00296,11.33461,-146.6628,-30.82071,11.59385,-146.6083,LR
-0.3132324,-0.9504395,0.2766113,-0.4825191,0.01855725,-0.2292137,-66.22963,17.89667,-74.6445,-66.26605,17.55929,-74.54861,-0.09375,-0.2429199,-0.3945313,-0.4878702,-0.2302443,0.04528236,-31.00854,11.33332,-146.6604,-30.9232,11.43902,-146.576,LR
-0.3166504,-0.9487305,0.2758789,-0.1924427,0.2475649,-0.0002061129,-66.23032,17.89778,-74.6432,-66.12258,17.77,-74.57956,-0.09570313,-0.2441406,-0.4013672,-0.2130611,-0.123374,0.1521528,-31.00375,11.33513,-146.6618,-30.61216,11.51449,-146.8419,LR
-0.3173828,-0.9506836,0.2734375,0.1739695,0.01855725,0.2440687,-66.22753,17.89586,-74.64155,-66.21889,17.7883,-74.73993,-0.09375,-0.2392578,-0.3986816,-0.1214581,-0.2455115,0.3048244,-30.99132,11.33281,-146.668,-30.29297,11.39963,-147.1963,LR
-0.3164063,-0.9526367,0.2753906,0.1434351,0.3239008,0.1982672,-66.22557,17.89663,-74.63898,-66.23502,17.69646,-74.65859,-0.09472656,-0.2426758,-0.3969727,-0.1367252,-0.1691756,0.3353589,-30.98823,11.33382,-146.6642,-30.73662,11.50777,-146.7256,LR
-0.3146973,-0.9516602,0.2783203,0.1892367,0.430771,-0.0002061129,-66.22189,17.89721,-74.63583,-66.18071,17.60879,-74.48163,-0.09155273,-0.2434082,-0.3977051,0.1075497,-0.123374,0.3353589,-30.98315,11.3275,-146.6624,-30.81322,11.10855,-146.8196,LR
-0.3195801,-0.9506836,0.2727051,-0.009236574,0.4918396,0.1066641,-66.22076,17.90464,-74.63733,-66.1588,17.90704,-74.789,-0.0925293,-0.2504883,-0.3986816,-0.01458788,0.09036642,0.610168,-30.99304,11.32455,-146.6445,-31.46764,11.11804,-146.1863,LR
-0.3115234,-0.9482422,0.2744141,0.219771,0.5529084,-0.1070763,-66.22044,17.90442,-74.63859,-66.35568,17.51457,-74.62717,-0.09228516,-0.2438965,-0.3967285,0.07701516,0.1361679,0.5949008,-30.9903,11.32423,-146.6365,-30.91244,11.20871,-146.6828,LR
-0.3085938,-0.9519043,0.2800293,0.2961069,0.4918396,-0.2750153,-66.21884,17.89908,-74.63718,-66.35793,17.27608,-74.36624,-0.09301758,-0.2463379,-0.3974609,0.2449541,0.1361679,0.4574962,-30.98909,11.32476,-146.6265,-31.10985,11.25053,-146.4758,LR
-0.3168945,-0.9538574,0.2685547,0.128168,0.2933664,-0.2597481,-66.22194,17.90009,-74.64908,-66.46793,17.73382,-75.04076,-0.09350586,-0.2463379,-0.4050293,0.03121376,-0.1386412,0.6559694,-30.98187,11.31939,-146.6235,-30.65142,11.1581,-146.9544,LR
-0.314209,-0.9567871,0.28125,0.5861833,0.03382444,0.06086259,-66.21318,17.89235,-74.64313,-66.21483,17.48807,-74.3961,-0.0793457,-0.2434082,-0.3952637,-0.02985501,-0.1386412,0.4880307,-30.98512,11.28496,-146.6252,-31.12221,9.699841,-147.0687,LR
-0.3215332,-0.9450684,0.2766113,0.8609924,-0.07304579,0.3967404,-66.19285,17.89509,-74.63468,-65.82964,18.08307,-74.51241,-0.07836914,-0.2443848,-0.3947754,0.0,-0.4134504,0.4269619,-30.99074,11.2448,-146.6258,-31.26608,9.580709,-146.9721,LR
-0.3200684,-0.9453125,0.2731934,0.5861833,0.2322977,0.5494123,-66.18046,17.90097,-74.62773,-66.00372,18.01834,-74.69125,-0.08935547,-0.2419434,-0.3991699,0.07701516,-0.001236677,0.4116948,-30.98186,11.23663,-146.6299,-30.60337,10.83725,-147.1322,LR
-0.3291016,-0.9421387,0.2797852,0.2808397,-0.02724427,0.3662061,-66.1601,17.91282,-74.61657,-65.36919,18.51361,-74.33885,-0.1062012,-0.237793,-0.3903809,-0.1672597,-0.3065802,0.1521528,-30.97359,11.26899,-146.6209,-30.44569,13.07979,-146.292,LR
-0.324707,-0.9433594,0.2800293,0.38771,-0.2104504,0.1371985,-66.14235,17.9167,-74.60865,-65.55711,18.26144,-74.32157,-0.09448242,-0.2446289,-0.3974609,-0.4420686,-0.7187939,0.442229,-30.97888,11.26193,-146.6137,-30.91289,11.44448,-146.5836,LR
-0.3222656,-0.9404297,0.2736816,0.2045038,-0.02724427,0.0,-66.13235,17.92222,-74.60863,-65.79237,18.21272,-74.60766,-0.09643555,-0.2407227,-0.395752,-0.5336719,-0.5661222,0.06054974,-30.97826,11.26413,-146.6158,-30.58198,11.76031,-146.7648,LR
-0.3168945,-0.9462891,0.2687988,0.06709921,0.06435877,-0.0002061129,-66.13463,17.92177,-74.61495,-66.29239,17.85568,-74.92495,-0.09838867,-0.2431641,-0.401123,-0.5031376,-0.2149771,0.1063511,-30.97634,11.2724,-146.6182,-30.4877,11.84616,-146.8173,LR
-0.3198242,-0.947998,0.2800293,-0.299313,-0.1341145,-0.168145,-66.13359,17.91981,-74.61256,-65.84801,17.92886,-74.36354,-0.09594727,-0.2434082,-0.3935547,0.0,-0.6882596,0.06054974,-30.97684,11.27179,-146.6127,-31.0011,11.71394,-146.3839,LR
-0.3190918,-0.9482422,0.2785645,-0.4519846,-0.2409847,-0.3666183,-66.13571,17.91598,-74.61417,-65.92981,17.89347,-74.44133,-0.09570313,-0.2441406,-0.3989258,-0.1672597,-0.7798626,-0.1379237,-30.9749,11.26618,-146.6161,-30.75728,11.56443,-146.6816,LR
-0.3161621,-0.9506836,0.2770996,-0.2077099,-0.7295343,-0.3055496,-66.13893,17.90108,-74.61717,-66.1442,17.70708,-74.5396,-0.09545898,-0.239502,-0.3974609,-0.5031376,0.0,0.04528236,-30.97014,11.27334,-146.6237,-30.36681,11.62423,-147.0294,LR
-0.3183594,-0.9492188,0.2802734,-0.1924427,-0.8364046,0.1219313,-66.13743,17.88738,-74.61025,-65.92278,17.83102,-74.36082,-0.1032715,-0.2456055,-0.3972168,-0.5184045,-0.7798626,-0.3211298,-30.9763,11.28579,-146.6189,-30.89722,12.46921,-146.1482,LR
-0.3120117,-0.9543457,0.2941895,-0.2840458,-0.7600687,0.2440687,-66.13492,17.86547,-74.58784,-65.80328,17.35038,-73.66935,-0.1010742,-0.2468262,-0.3984375,-0.3199313,-0.2302443,-0.5196033,-30.98115,11.30008,-146.6182,-30.98338,12.16947,-146.2011,LR
-0.3276367,-0.9470215,0.2817383,-0.2840458,-0.5921298,0.4730763,-66.12585,17.86637,-74.57507,-65.4734,18.34563,-74.29672,-0.09838867,-0.2412109,-0.3857422,-0.1061909,0.04456491,0.0,-30.98723,11.31875,-146.6051,-31.2124,12.203,-145.9675,LR
-0.3076172,-0.9467773,0.2878418,-0.2687786,-0.5310611,0.0,-66.12727,17.84712,-74.56103,-66.01248,17.26842,-73.87311,-0.0949707,-0.2446289,-0.3908691,0.07701516,0.4262443,-0.2753282,-30.99248,11.3314,-146.5996,-31.30648,11.63797,-146.1238,LR
-0.3149414,-0.9501953,0.2751465,-0.222977,0.003290057,0.183,-66.1329,17.84343,-74.55974,-66.2446,17.65992,-74.63102,-0.09350586,-0.2375488,-0.3776855,0.06174803,0.487313,-0.09212208,-30.99982,11.34866,-146.5878,-31.40518,11.83619,-145.944,LR
-0.3115234,-0.9433594,0.2885742,-0.222977,0.07962596,0.1219313,-66.12882,17.83823,-74.54281,-65.76561,17.52525,-73.80288,-0.09399414,-0.2431641,-0.3935547,0.2907557,0.1667023,0.06054974,-30.99564,11.35384,-146.5847,-31.00434,11.48498,-146.4787,LR
-0.3200684,-0.9448242,0.2834473,0.02129769,0.1559618,0.1066641,-66.119,17.8433,-74.53314,-65.65315,17.97684,-74.13808,-0.0949707,-0.2426758,-0.4013672,0.2754886,0.227771,0.1521528,-30.98111,11.35904,-146.5909,-30.47154,11.44672,-147.0054,LR
-0.3120117,-0.9528809,0.2700195,-0.1619084,0.3697023,-0.0002061129,-66.13071,17.84159,-74.54103,-66.58584,17.48631,-74.92769,-0.09814453,-0.25,-0.4035645,-0.1367252,-0.001236677,0.2895572,-30.9844,11.36546,-146.582,-31.04521,11.68074,-146.356,LR
-0.3149414,-0.9533691,0.2717285,0.03656495,0.5223741,-0.06127481,-66.13612,17.84493,-74.54824,-66.42799,17.62472,-74.85654,-0.09912109,-0.2436523,-0.3911133,0.0006792545,0.01403052,0.350626,-30.98724,11.38115,-146.5667,-31.12693,12.13973,-146.0773,LR
-0.3195801,-0.949707,0.277832,0.2350382,0.4765725,-0.1376107,-66.12932,17.85301,-74.54936,-65.96841,17.89876,-74.50301,-0.09448242,-0.2416992,-0.3986816,-0.197794,0.01403052,0.442229,-30.98113,11.38285,-146.5676,-30.53665,11.45608,-146.9391,LR
-0.3254395,-0.9470215,0.2915039,0.4487787,0.339168,0.03032825,-66.10482,17.86458,-74.53332,-65.23396,18.18214,-73.76959,-0.09692383,-0.2407227,-0.3981934,-0.1061909,-0.1386412,0.350626,-30.97166,11.38849,-146.5693,-30.42941,11.76664,-146.9077,LR
-0.322998,-0.9477539,0.2810059,0.4029771,0.2933664,-0.03074045,-66.0906,17.87349,-74.52956,-65.69001,18.0945,-74.32343,-0.09570313,-0.2419434,-0.3928223,-0.1061909,0.1819695,0.350626,-30.97172,11.39778,-146.5624,-30.8966,11.71925,-146.4817,LR
-0.3286133,-0.9501953,0.2722168,0.03656495,0.1559618,-0.04600763,-66.08456,17.88612,-74.53665,-65.81586,18.39008,-74.85033,-0.09326172,-0.2397461,-0.3979492,0.3670917,0.2583054,-0.07685494,-30.95477,11.40064,-146.5747,-30.39425,11.35074,-147.1201,LR
-0.3227539,-0.9509277,0.2861328,-0.08557248,0.3239008,-0.1070763,-66.07616,17.89325,-74.52942,-65.60169,18.00493,-74.09595,-0.09350586,-0.244873,-0.4035645,0.4128931,0.1361679,0.07581687,-30.93813,11.39978,-146.5814,-30.58801,11.20447,-146.9959,LR
-0.3188477,-0.9465332,0.2790527,-0.05503809,0.5376411,-0.3055496,-66.07357,17.90563,-74.53352,-65.88436,17.90612,-74.39018,-0.08666992,-0.2421875,-0.4064941,0.5197632,0.2888396,-0.01578617,-30.91631,11.38363,-146.6035,-30.22928,10.37968,-147.6745,LR
-0.3273926,-0.9506836,0.2692871,-0.4977863,0.7513816,-0.5498245,-66.07877,17.9252,-74.55106,-65.9678,18.3321,-75.0069,-0.09228516,-0.2453613,-0.3955078,0.5655649,-0.1691756,-0.3669312,-30.91243,11.37777,-146.6061,-31.13795,11.21502,-146.4636,LR
-0.3198242,-0.9501953,0.2717285,-0.4672519,0.09489316,-0.427687,-66.08748,17.92674,-74.56303,-66.17047,17.93238,-74.83542,-0.08764648,-0.2426758,-0.395752,0.229687,-0.01650381,-0.428,-30.90898,11.3638,-146.6182,-30.90875,10.69154,-146.8969,LR
-0.3271484,-0.9506836,0.2792969,-0.4519846,0.1101603,-0.4582213,-66.08547,17.93525,-74.56801,-65.65474,18.27145,-74.47485,-0.09179688,-0.2397461,-0.4040527,0.0922823,-0.01650381,-0.4127328,-30.89053,11.35739,-146.6433,-30.05405,11.05544,-147.5697,LR
-0.3168945,-0.949707,0.2780762,-0.6046565,-0.1341145,-0.2444809,-66.09389,17.92971,-74.56979,-66.06218,17.75668,-74.47748,-0.09643555,-0.2397461,-0.4074707,0.06174803,-0.3065802,-0.5806718,-30.86768,11.35632,-146.6713,-29.79371,11.52904,-147.6175,LR
-0.3200684,-0.9470215,0.2714844,-0.4061831,-0.02724427,-0.09180916,-66.09995,17.93068,-74.57587,-66.09811,17.99833,-74.80606,-0.09545898,-0.2441406,-0.4003906,-0.1367252,-0.4134504,-0.6570077,-30.86581,11.35323,-146.6833,-30.67352,11.50579,-146.7868,LR
-0.3173828,-0.9523926,0.2788086,-0.4061831,-0.1341145,-0.09180916,-66.10551,17.92481,-74.57527,-66.07938,17.73558,-74.47843,-0.09863281,-0.2421875,-0.4023438,-0.07565641,-0.0470382,-0.5959387,-30.85584,11.3627,-146.6979,-30.31188,11.86145,-146.9783,LR
-0.3115234,-0.9475098,0.2719727,-0.5130534,-0.05777865,-0.03074045,-66.11937,17.91622,-74.57916,-66.42113,17.53759,-74.74742,-0.09594727,-0.2441406,-0.3859863,0.2144198,0.487313,-0.687542,-30.86622,11.38037,-146.6908,-31.54289,11.8642,-145.7998,LR
-0.3146973,-0.9487305,0.277832,-0.833664,-0.1646488,-0.2597481,-66.13268,17.90847,-74.58098,-66.1317,17.65806,-74.46652,-0.09716797,-0.2436523,-0.3881836,0.3060229,0.4109771,-0.428,-30.87143,11.39781,-146.6819,-31.3367,11.9701,-145.9514,LR
-0.3181152,-0.9562988,0.2785645,-0.650458,0.3239008,-0.2444809,-66.14188,17.90899,-74.5837,-66.14665,17.71236,-74.54906,-0.0949707,-0.2451172,-0.3967285,0.32129,-0.001236677,-0.3974657,-30.86928,11.40005,-146.6835,-31.00037,11.51087,-146.4715,LR
-0.3181152,-0.9545898,0.2695313,-0.4061831,0.3239008,-0.504023,-66.15312,17.91121,-74.59953,-66.40521,17.78152,-75.00421,-0.09301758,-0.2460938,-0.4042969,0.4128931,0.2583054,-0.3058627,-30.85935,11.39822,-146.6933,-30.67634,11.1185,-146.9469,LR
-0.3217773,-0.9519043,0.2802734,-0.5283206,0.3086336,-0.3971527,-66.15491,17.91685,-74.60166,-65.85401,17.96641,-74.41467,-0.09887695,-0.2382813,-0.4018555,0.2602212,0.2583054,0.1368854,-30.83725,11.41279,-146.7035,-29.93246,11.94987,-147.3005,LR
-0.3178711,-0.9562988,0.2770996,-0.4977863,0.2933664,-0.427687,-66.16272,17.91666,-74.60801,-66.20419,17.70642,-74.62534,-0.09765625,-0.2468262,-0.3981934,0.1838853,-0.1691756,-0.1379237,-30.83878,11.41754,-146.6977,-31.04897,11.77468,-146.3119,LR
-0.3168945,-0.9677734,0.2744141,-0.2535114,0.4613054,-0.3208168,-66.17479,17.91483,-74.61893,-66.57991,17.48586,-74.91857,-0.09619141,-0.244873,-0.4018555,0.1075497,0.05983204,-0.1226563,-30.83345,11.42112,-146.7013,-30.65161,11.55257,-146.7879,LR
-0.3212891,-0.9567871,0.2663574,-0.2687786,0.6139771,-0.1986794,-66.18391,17.92408,-74.6338,-66.43369,17.92631,-75.21638,-0.0949707,-0.2451172,-0.404541,0.1380839,0.2888396,-0.260061,-30.82546,11.42401,-146.7108,-30.53539,11.35293,-146.984,LR
-0.3129883,-0.9482422,0.2751465,-0.2687786,0.4155039,-0.2597481,-66.18969,17.92348,-74.63685,-66.27544,17.58845,-74.59483,-0.09228516,-0.2382813,-0.392334,0.06174803,0.1056336,0.03001523,-30.81994,11.42433,-146.7147,-30.59191,11.36755,-146.9237,LR
-0.3171387,-0.9501953,0.2734375,-0.131374,0.3544351,-0.3666183,-66.19205,17.92554,-74.64378,-66.21735,17.78338,-74.73209,-0.09082031,-0.2441406,-0.3994141,0.1686182,0.1209008,-0.2753282,-30.81699,11.41721,-146.7222,-30.79632,10.9796,-146.8888,LR
-0.3129883,-0.9587402,0.2714844,-0.1619084,0.2933664,-0.2597481,-66.20314,17.9201,-74.6534,-66.62813,17.43789,-74.93387,-0.09008789,-0.2446289,-0.3977051,0.1228168,0.1209008,-0.07685494,-30.81804,11.40905,-146.724,-30.95967,10.92054,-146.7558,LR
-0.314209,-0.9521484,0.2736816,-0.2687786,0.339168,-0.3208168,-66.21031,17.91862,-74.65971,-66.3644,17.59686,-74.7326,-0.09228516,-0.2412109,-0.3950195,0.1380839,0.02929771,0.259023,-30.81437,11.40683,-146.7222,-30.73652,11.2762,-146.8235,LR
-0.3115234,-0.9506836,0.2768555,-0.3145801,0.59871,-0.3513512,-66.21729,17.91833,-74.6623,-66.32793,17.46432,-74.53119,-0.09399414,-0.2451172,-0.3959961,0.04648089,0.1056336,0.06054974,-30.81858,11.40845,-146.716,-31.05869,11.41046,-146.4581,LR
-0.3134766,-0.9523926,0.2687988,-0.299313,0.1559618,-0.2444809,-66.22852,17.91379,-74.67251,-66.55927,17.57672,-74.99264,-0.09667969,-0.2431641,-0.4003906,0.229687,-0.0470382,-0.1073892,-30.80994,11.41282,-146.7199,-30.55551,11.6612,-146.833,LR
-0.3188477,-0.9482422,0.2753906,-0.1924427,0.3239008,-0.2902825,-66.22766,17.91819,-74.67551,-66.04401,17.89573,-74.609,-0.1052246,-0.2463379,-0.40625,0.1838853,-0.1386412,0.07581687,-30.7993,11.43229,-146.7164,-30.4129,12.48818,-146.6002,LR
-0.322998,-0.9499512,0.2792969,0.03656495,0.003290057,-0.3513512,-66.21849,17.92121,-74.67606,-65.79591,18.06676,-74.44487,-0.09667969,-0.2399902,-0.3991699,-0.01458788,0.01403052,0.1216183,-30.7895,11.43838,-146.7213,-30.29896,11.7266,-147.0497,LR
-0.3146973,-0.9506836,0.2700195,-0.131374,0.2322977,-0.2444809,-66.22474,17.91946,-74.68433,-66.43448,17.66289,-74.90977,-0.0925293,-0.2424316,-0.4001465,-0.1061909,-0.07757253,0.182687,-30.78632,11.43221,-146.7249,-30.55255,11.18716,-147.0372,LR
-0.3137207,-0.9533691,0.2751465,0.02129769,0.09489316,-0.1376107,-66.22716,17.91337,-74.68606,-66.36127,17.54496,-74.6694,-0.09545898,-0.2419434,-0.3901367,-0.1367252,-0.031771,-0.0310533,-30.79389,11.43804,-146.7171,-31.06394,11.74674,-146.3096,LR
-0.3188477,-0.9472656,0.2670898,-0.05503809,0.2933664,-0.1223435,-66.2293,17.91842,-74.69491,-66.29426,17.95058,-75.03863,-0.09106445,-0.2436523,-0.3977051,-0.07565641,-0.123374,0.259023,-30.79603,11.42842,-146.7152,-30.84525,11.04782,-146.8138,LR
-0.3208008,-0.9470215,0.2770996,-0.3603816,0.1254275,-0.2444809,-66.22773,17.9221,-74.69481,-65.88567,18.01014,-74.51022,-0.09472656,-0.2412109,-0.4099121,0.03121376,-0.01650381,-0.01578617,-30.77619,11.42489,-146.7351,-29.82719,11.26398,-147.6991,LR
-0.3166504,-0.9482422,0.2717285,-0.1619084,0.1254275,0.09139694,-66.23053,17.92145,-74.69545,-66.24893,17.79734,-74.79402,-0.09936523,-0.2416992,-0.3935547,-0.01458788,-0.2607787,-0.2142596,-30.77632,11.43539,-146.7319,-30.77202,12.14193,-146.4151,LR
-0.3171387,-0.9470215,0.2727051,-0.2077099,0.09489316,-0.09180916,-66.23238,17.92118,-74.69744,-66.17072,17.83836,-74.72731,-0.09521484,-0.2412109,-0.3989258,0.07701516,-0.2149771,-0.07685494,-30.76888,11.4344,-146.7378,-30.46111,11.54358,-146.9739,LR
-0.3161621,-0.9440918,0.270752,-0.1619084,0.06435877,-0.1070763,-66.23426,17.92058,-74.70081,-66.20725,17.84381,-74.78677,-0.09326172,-0.2375488,-0.3996582,-0.02985501,-0.1081069,0.1063511,-30.75524,11.43087,-146.7502,-30.06351,11.3427,-147.4399,LR
-0.3210449,-0.9526367,0.2751465,-0.1924427,0.03382444,-0.1376107,-66.23392,17.92151,-74.70281,-66.06643,17.94053,-74.69294,-0.09472656,-0.2392578,-0.3891602,-0.07565641,-0.2607787,-0.1379237,-30.7583,11.43271,-146.7477,-30.85255,11.71473,-146.5258,LR
-0.3171387,-0.9533691,0.2824707,-0.1161069,-0.2104504,-0.03074045,-66.23072,17.91378,-74.69514,-65.98853,17.68984,-74.29721,-0.09692383,-0.2426758,-0.395752,-0.09092379,-0.3065802,0.1216183,-30.76003,11.43541,-146.7422,-30.77801,11.79299,-146.5632,LR
-0.3149414,-0.939209,0.2661133,-0.1619084,-0.1188473,-0.03074045,-66.23445,17.91138,-74.70095,-66.29836,17.88105,-74.96325,-0.09521484,-0.2436523,-0.3945313,-0.1214581,-0.3523817,-0.1226563,-30.76618,11.43359,-146.7383,-30.97803,11.60357,-146.4534,LR
-0.3156738,-0.9533691,0.2697754,-0.1924427,-0.04251146,0.0,-66.24187,17.90597,-74.70621,-66.46419,17.67208,-74.96373,-0.09716797,-0.2421875,-0.4008789,-0.09092379,-0.06230533,-0.2753282,-30.76057,11.43842,-146.7463,-30.41889,11.72062,-146.9378,LR
-0.3146973,-0.9428711,0.2861328,-0.2535114,-0.1188473,0.1066641,-66.23515,17.90035,-74.68934,-65.71978,17.71255,-73.94104,-0.09106445,-0.2421875,-0.3798828,-0.1061909,-0.1691756,-0.1226563,-30.78287,11.43571,-146.728,-31.79759,11.4274,-145.7408,LR
-0.3200684,-0.953125,0.2697754,-0.2687786,0.09489316,0.1066641,-66.24019,17.90187,-74.69359,-66.28976,17.90647,-74.98027,-0.09521484,-0.2375488,-0.3994141,-0.01458788,-0.1386412,0.1368854,-30.76844,11.43654,-146.7384,-30.05075,11.57898,-147.3507,LR
-0.3115234,-0.9484863,0.2702637,-0.1161069,0.04909158,0.09139694,-66.24709,17.89515,-74.69542,-66.49973,17.52976,-74.85228,-0.09716797,-0.2412109,-0.3979492,-0.289397,-0.5050534,0.0,-30.76715,11.43627,-146.7404,-30.4911,11.79437,-146.8367,LR
-0.3200684,-0.9492188,0.269043,-0.2840458,0.3697023,0.06086259,-66.25085,17.90215,-74.69994,-66.22684,17.97369,-74.96635,-0.09155273,-0.2475586,-0.3969727,-0.4726033,-0.1691756,0.3811603,-30.78447,11.42651,-146.7276,-31.28559,11.07246,-146.3802,LR
-0.3195801,-0.9560547,0.2758789,-0.2077099,0.1406947,0.183,-66.25237,17.90228,-74.69714,-66.17416,17.80524,-74.69436,-0.1086426,-0.2412109,-0.3989258,-0.5642061,-0.09283972,0.350626,-30.78171,11.45907,-146.7172,-30.25942,13.11853,-146.4496,LR
-0.317627,-0.9511719,0.2807617,0.05183208,0.2017633,-0.09180916,-66.24616,17.90218,-74.69164,-65.97799,17.75877,-74.35898,-0.09692383,-0.2402344,-0.3999023,-0.1672597,-0.1844428,0.3964274,-30.77425,11.46174,-146.718,-30.27764,11.73693,-147.0655,LR
-0.3349609,-0.9523926,0.2810059,0.2503054,-0.179916,-0.06127481,-66.22414,17.91413,-74.68769,-65.3412,18.64068,-74.44601,-0.09472656,-0.2446289,-0.4069824,0.04648089,-0.4897862,0.610168,-30.76505,11.45142,-146.7191,-30.34604,11.2818,-147.1954,LR
-0.3244629,-0.9499512,0.277832,0.5556489,-0.2867863,-0.04600763,-66.20779,17.91492,-74.68515,-65.78814,18.1504,-74.52946,-0.09326172,-0.2485352,-0.3964844,-0.01458788,-0.1539084,0.5949008,-30.77779,11.44556,-146.6999,-31.39128,11.27147,-146.1966,LR
-0.3239746,-0.953125,0.2800293,0.6625191,-0.4241909,0.07612977,-66.19002,17.91164,-74.67943,-65.80636,18.06237,-74.45498,-0.09619141,-0.2456055,-0.3994141,0.07701516,0.2125039,0.6712368,-30.77854,11.45164,-146.6873,-30.87191,11.59332,-146.5595,LR
-0.3161621,-0.9521484,0.2663574,0.6777863,-0.1493817,0.06086259,-66.18686,17.90587,-74.68758,-66.53035,17.73296,-75.13154,-0.1086426,-0.2385254,-0.3986816,0.6419008,0.5483816,0.1368854,-30.75343,11.4939,-146.6851,-29.99512,13.16195,-146.6782,LR
-0.3122559,-0.9416504,0.2734375,0.3724428,0.1559618,0.0,-66.18192,17.90332,-74.68564,-66.21329,17.6641,-74.59061,-0.08984375,-0.2429199,-0.3996582,0.7335038,0.6399847,0.1368854,-30.74096,11.49091,-146.6904,-30.66877,10.87404,-147.0544,LR
-0.3120117,-0.951416,0.2736816,0.1892367,0.3849695,-0.03074045,-66.18414,17.90078,-74.68662,-66.43185,17.49299,-74.71252,-0.09204102,-0.2446289,-0.3974609,0.7640381,0.8079236,0.1063511,-30.73385,11.4961,-146.6885,-30.9474,11.15627,-146.671,LR
-0.3227539,-0.9443359,0.2766113,-0.1008396,0.4918396,-0.3666183,-66.17725,17.91318,-74.68844,-65.76629,18.15934,-74.50797,-0.09790039,-0.2441406,-0.3967285,0.7945726,0.3499084,-0.0005190372,-30.72541,11.50835,-146.6838,-30.85672,11.86873,-146.4549,LR
-0.3259277,-0.9445801,0.2758789,-0.2382443,0.6292443,-0.3666183,-66.17046,17.93006,-74.69101,-65.67399,18.32553,-74.56562,-0.09277344,-0.239502,-0.4020996,0.672435,0.3499084,0.2437558,-30.70362,11.50757,-146.6952,-30.13007,11.21207,-147.4314,LR
-0.3278809,-0.9436035,0.2653809,0.02129769,0.3544351,-0.336084,-66.16501,17.94657,-74.70458,-65.91383,18.49509,-75.1224,-0.1086426,-0.2443848,-0.4003906,0.2907557,-0.001236677,0.1979542,-30.69529,11.53821,-146.6835,-30.50088,13.04021,-146.2586,LR
-0.3188477,-0.9399414,0.2705078,-0.1161069,0.3697023,-0.336084,-66.16377,17.95418,-74.71053,-66.01791,18.05542,-74.75495,-0.09838867,-0.2441406,-0.3916016,0.1380839,-0.001236677,-0.2295268,-30.70254,11.54814,-146.6751,-31.15922,12.0356,-146.0924,LR
-0.3166504,-0.9489746,0.2678223,-0.3451145,0.171229,-0.2444809,-66.17345,17.95369,-74.72016,-66.39354,17.8035,-75.01266,-0.09106445,-0.2470703,-0.3950195,0.1075497,-0.01650381,-0.2295268,-30.71414,11.53811,-146.6712,-31.36138,11.05902,-146.3128,LR
-0.3215332,-0.949707,0.2641602,-0.4367175,0.1559618,-0.2902825,-66.18317,17.95821,-74.73483,-66.33856,18.06518,-75.24028,-0.09375,-0.2480469,-0.3986816,-0.1519923,-0.2455115,-0.3211298,-30.72611,11.52956,-146.6699,-31.20112,11.29123,-146.3712,LR
-0.3212891,-0.9492188,0.2695313,-0.6657251,-0.1951832,-0.4124198,-66.19257,17.95689,-74.74512,-66.16374,18.03553,-74.94591,-0.1003418,-0.2397461,-0.3937988,0.0006792545,-0.1081069,-0.2142596,-30.72235,11.54306,-146.671,-30.53861,12.27856,-146.5762,LR
-0.3256836,-0.9555664,0.2834473,-0.4825191,-0.2562519,-0.07654199,-66.18903,17.95613,-74.7376,-65.68506,18.09509,-74.31696,-0.1069336,-0.2436523,-0.3969727,0.2754886,-0.07757253,-0.5806718,-30.71476,11.56905,-146.674,-30.65313,12.92981,-146.1666,LR
-0.3149414,-0.9489746,0.2785645,-0.3603816,-0.2104504,-0.06127481,-66.19544,17.94554,-74.73287,-66.10344,17.66353,-74.43214,-0.09277344,-0.2431641,-0.3935547,0.229687,-0.123374,-0.687542,-30.71753,11.56265,-146.6811,-31.02197,11.33972,-146.523,LR
-0.3151855,-0.9484863,0.2768555,-0.2687786,0.430771,-0.1070763,-66.19829,17.94681,-74.73014,-66.14034,17.69228,-74.51735,-0.09716797,-0.2387695,-0.4013672,-0.1825268,-0.01650381,-0.2142596,-30.70658,11.56622,-146.6964,-30.036,11.75328,-147.2888,LR
-0.3156738,-0.9470215,0.2770996,-0.5893893,0.430771,-0.1834122,-66.20461,17.94901,-74.72796,-66.08086,17.74049,-74.48609,-0.09423828,-0.2443848,-0.3925781,0.1533511,0.1056336,-0.4738016,-30.71394,11.56681,-146.6952,-31.1872,11.51854,-146.2891,LR
-0.3234863,-0.9499512,0.2700195,-0.4672519,0.339168,-0.336084,-66.20897,17.95775,-74.73714,-66.07928,18.13641,-74.93996,-0.09741211,-0.2431641,-0.3979492,0.4434273,0.09036642,-0.2295268,-30.70694,11.57277,-146.6976,-30.68997,11.79815,-146.6451,LR
-0.3161621,-0.9475098,0.267334,-0.5130534,0.04909158,-0.4429542,-66.22025,17.95539,-74.74924,-66.39597,17.80387,-75.01666,-0.09790039,-0.2421875,-0.395752,0.4586947,0.01403052,-0.1989923,-30.70032,11.57982,-146.698,-30.71288,11.9148,-146.5721,LR
-0.3232422,-0.9499512,0.2758789,-0.1466411,-0.2104504,-0.3208168,-66.21597,17.95511,-74.75152,-65.89845,18.09591,-74.62731,-0.09741211,-0.2480469,-0.3972168,0.2754886,0.227771,-0.168458,-30.70726,11.58636,-146.6892,-31.23643,11.75056,-146.1427,LR
-0.3168945,-0.9477539,0.2678223,-0.03977096,0.171229,-0.336084,-66.21935,17.95508,-74.76104,-66.35701,17.83627,-74.99718,-0.0949707,-0.2443848,-0.3962402,0.1075497,-0.3676488,-0.1531909,-30.71062,11.57983,-146.6878,-30.95416,11.53012,-146.5076,LR
-0.3276367,-0.9516602,0.2741699,-0.1466411,0.06435877,-0.06127481,-66.21358,17.96303,-74.76196,-65.82381,18.30544,-74.76208,-0.09741211,-0.244873,-0.3977051,-0.06038928,-0.123374,-0.07685494,-30.71491,11.58204,-146.6846,-30.881,11.78132,-146.4697,LR
-0.3149414,-0.9526367,0.2731934,-0.1466411,0.04909158,-0.1834122,-66.21873,17.95709,-74.76479,-66.36346,17.62975,-74.76862,-0.0925293,-0.2441406,-0.3937988,0.1228168,0.1972366,-0.1226563,-30.72093,11.57936,-146.682,-31.1121,11.29348,-146.4558,LR
-0.3149414,-0.9528809,0.2702637,-0.2535114,0.1406947,-0.04600763,-66.22765,17.95294,-74.76877,-66.4655,17.63925,-74.92782,-0.09570313,-0.2416992,-0.3972168,0.32129,0.2583054,-0.4585342,-30.71424,11.58393,-146.6906,-30.60662,11.63049,-146.7974,LR
-0.3188477,-0.9501953,0.2736816,-0.390916,0.2322977,-0.01547329,-66.23133,17.9545,-74.76814,-66.14395,17.87199,-74.72697,-0.09326172,-0.25,-0.3913574,0.6419008,0.2583054,-0.06158781,-30.72765,11.58316,-146.672,-31.85689,11.35538,-145.7137,LR
-0.3193359,-0.9543457,0.2695313,-0.3451145,0.4765725,-0.2750153,-66.23884,17.95941,-74.77695,-66.35287,17.8494,-75.00642,-0.09912109,-0.2419434,-0.4016113,0.3518243,0.1667023,-0.3058627,-30.71438,11.59268,-146.6817,-30.32256,11.9371,-146.9347,LR
-0.3149414,-0.9470215,0.2763672,-0.6046565,0.4460382,-0.2444809,-66.24561,17.96088,-74.77544,-66.13313,17.70535,-74.52172,-0.09033203,-0.2492676,-0.3964844,0.5655649,0.2125039,-0.1531909,-30.72193,11.5823,-146.6749,-31.50773,10.91718,-146.2292,LR
-0.3183594,-0.951416,0.2607422,-0.3145801,0.5376411,-0.3055496,-66.25753,17.96729,-74.79306,-66.61044,17.88575,-75.43152,-0.09057617,-0.2441406,-0.392334,0.5044961,0.09036642,-0.2142596,-30.72516,11.57369,-146.6729,-31.22965,11.09009,-146.4269,LR
-0.3195801,-0.9492188,0.2749023,-0.2077099,0.3697023,-0.1528779,-66.2563,17.97142,-74.79234,-66.05399,17.92059,-74.65194,-0.1064453,-0.2438965,-0.4006348,0.4128931,-0.01650381,-0.1837251,-30.71401,11.59771,-146.6703,-30.47095,12.78643,-146.4068,LR
-0.3188477,-0.9528809,0.2800293,-0.1466411,0.4002366,-0.1986794,-66.25322,17.97385,-74.78796,-65.99454,17.79863,-74.42746,-0.09863281,-0.2456055,-0.392334,0.5502977,0.07509923,-0.09212208,-30.7169,11.60744,-146.6582,-31.26275,12.02924,-145.9962,LR
-0.3164063,-0.9558105,0.2800293,-0.05503809,0.6292443,-0.2139466,-66.25199,17.97611,-74.78449,-66.15161,17.62407,-74.45702,-0.09521484,-0.2441406,-0.3967285,0.32129,0.2583054,-0.0310533,-30.71575,11.61013,-146.6565,-30.89597,11.55202,-146.5541,LR
-0.3168945,-0.9492188,0.2685547,-0.222977,0.4765725,-0.2597481,-66.25754,17.97977,-74.79218,-66.36552,17.80902,-74.97795,-0.09033203,-0.2404785,-0.3862305,0.5197632,0.3804427,0.07581687,-30.71834,11.60811,-146.6497,-31.22712,11.22959,-146.3718,LR
-0.3198242,-0.9433594,0.2675781,-0.1161069,0.171229,-0.1834122,-66.25715,17.98398,-74.79832,-66.15298,18.06427,-74.96383,-0.09472656,-0.2456055,-0.3981934,0.2754886,0.1056336,0.1368854,-30.71924,11.60642,-146.6453,-30.96603,11.44615,-146.5319,LR
-0.3186035,-0.9475098,0.2785645,-0.299313,0.5071069,-0.3971527,-66.25504,17.98935,-74.79676,-65.93185,17.87973,-74.42874,-0.09521484,-0.248291,-0.3942871,0.4586947,0.3804427,-0.1989923,-30.728,11.6105,-146.6352,-31.47188,11.54911,-146.0028,LR
-0.3125,-0.947998,0.2763672,-0.1008396,0.5529084,-0.2292137,-66.25627,17.98837,-74.79446,-66.24767,17.56092,-74.52408,-0.09057617,-0.2419434,-0.3908691,0.3823588,0.09036642,-0.01578617,-30.72963,11.60255,-146.6335,-31.09037,11.14662,-146.5376,LR
-0.3186035,-0.9470215,0.2770996,-0.1619084,0.6139771,-0.3208168,-66.25291,17.99552,-74.79328,-65.96942,17.89468,-74.49985,-0.09741211,-0.246582,-0.3911133,0.3518243,0.2735725,-0.0005190372,-30.73901,11.61247,-146.6182,-31.45715,11.89746,-145.8676,LR
-0.3222656,-0.9477539,0.2595215,-0.1771755,0.3239008,-0.1834122,-66.25875,18.00352,-74.80943,-66.41484,18.1573,-75.46602,-0.09375,-0.2458496,-0.4001465,0.07701516,0.09036642,0.1674199,-30.74085,11.60733,-146.6169,-30.88788,11.28911,-146.6729,LR
-0.315918,-0.951416,0.2741699,-0.1161069,0.430771,-0.2139466,-66.26062,18.0037,-74.81048,-66.26689,17.69614,-74.70435,-0.09399414,-0.2495117,-0.390625,0.3823588,0.1514351,0.06054974,-30.75724,11.60668,-146.5973,-31.84128,11.46337,-145.6837,LR
-0.3151855,-0.9482422,0.2680664,0.00603056,0.3544351,-0.168145,-66.26384,18.00358,-74.8164,-66.42596,17.73708,-74.98301,-0.09204102,-0.2409668,-0.3969727,0.2602212,0.04456491,0.0147481,-30.75021,11.59941,-146.6048,-30.59688,11.21075,-146.9848,LR
-0.3222656,-0.949707,0.2719727,0.06709921,0.2322977,-0.336084,-66.25873,18.00827,-74.82155,-66.05766,18.06728,-74.82703,-0.09472656,-0.2470703,-0.3977051,0.07701516,-0.09283972,0.0147481,-30.75699,11.59481,-146.5998,-31.146,11.43768,-146.3628,LR
-0.3200684,-0.9458008,0.2763672,0.05183208,0.3544351,-0.336084,-66.251,18.01321,-74.82063,-65.91024,17.99517,-74.5287,-0.09130859,-0.246582,-0.3935547,0.3060229,-0.0470382,0.1521528,-30.7653,11.58468,-146.5906,-31.39736,11.12288,-146.252,LR
-0.3232422,-0.9467773,0.2675781,0.03656495,0.3544351,-0.0002061129,-66.24738,18.02191,-74.82474,-66.0965,18.18763,-75.02608,-0.09130859,-0.2463379,-0.3969727,0.04648089,0.09036642,0.2437558,-30.77258,11.57549,-146.5853,-31.16345,11.05853,-146.5035,LR
-0.3200684,-0.9458008,0.2722168,-0.1161069,0.2933664,-0.168145,-66.24506,18.02608,-74.82572,-66.04674,18.01494,-74.75014,-0.09448242,-0.2470703,-0.3977051,-0.02985501,-0.0470382,-0.0005190372,-30.78056,11.57146,-146.581,-31.14951,11.40898,-146.3715,LR
-0.3181152,-0.9475098,0.2712402,-0.2382443,-0.2715191,0.03032825,-66.24751,18.01935,-74.82509,-66.19232,17.88869,-74.81677,-0.09423828,-0.2463379,-0.395752,-0.1672597,-0.2149771,-0.1226563,-30.79149,11.56524,-146.5777,-31.19592,11.42889,-146.3186,LR
-0.3154297,-0.947998,0.2751465,0.00603056,-0.3936565,0.07612977,-66.246,18.00721,-74.81944,-66.17704,17.72104,-74.60271,-0.09082031,-0.2426758,-0.3891602,-0.01458788,-0.2149771,-0.260061,-30.80126,11.5548,-146.5768,-31.26908,11.20121,-146.3432,LR
-0.3186035,-0.9504395,0.2539063,-0.1924427,-0.1493817,0.06086259,-66.25986,18.00377,-74.83788,-66.79778,17.94505,-75.78628,-0.09887695,-0.2412109,-0.3947754,-0.07565641,-0.07757253,-0.07685494,-30.79945,11.56385,-146.5777,-30.65523,12.06409,-146.5612,LR
-0.3210449,-0.9526367,0.2805176,0.06709921,0.04909158,0.07612977,-66.25149,18.00271,-74.82817,-65.89007,17.9151,-74.40854,-0.09863281,-0.2441406,-0.4001465,0.0922823,0.1514351,-0.1073892,-30.79495,11.57245,-146.5808,-30.64237,11.88277,-146.6535,LR
-0.3208008,-0.9521484,0.2736816,0.08236647,0.06435877,-0.06127481,-66.2475,18.00246,-74.82776,-66.11274,17.94257,-74.76282,-0.09008789,-0.2446289,-0.3962402,-0.06038928,-0.1997099,0.07581687,-30.80097,11.55685,-146.5811,-31.04844,10.94908,-146.6588,LR
-0.317627,-0.9526367,0.2817383,-0.07030535,0.06435877,-0.0002061129,-66.24321,17.99803,-74.81776,-65.97826,17.73059,-74.3279,-0.09814453,-0.2434082,-0.3974609,-0.3351984,-0.5661222,0.3353589,-30.80455,11.55522,-146.5758,-30.7336,11.8915,-146.5626,LR
-0.3129883,-0.9450684,0.2736816,0.1739695,0.09489316,0.2288015,-66.24086,17.99239,-74.81062,-66.25364,17.64641,-74.62878,-0.09960938,-0.2387695,-0.3830566,-0.7016106,-0.291313,0.2284887,-30.82079,11.56872,-146.5602,-31.10108,12.44445,-145.9652,LR
-0.3171387,-0.9521484,0.2746582,0.1129008,0.07962596,0.04559542,-66.23879,17.98864,-74.80762,-66.22051,17.74613,-74.6941,-0.09545898,-0.237793,-0.3933105,-0.7474122,-0.291313,0.4574962,-30.82408,11.56773,-146.5606,-30.43578,11.73334,-146.9161,LR
-0.3154297,-0.9489746,0.2683105,0.05183208,0.2170305,-0.1834122,-66.24174,17.98679,-74.81378,-66.42472,17.73694,-74.98103,-0.09179688,-0.2460938,-0.3984375,-0.4573359,-0.031771,0.4574962,-30.83518,11.55772,-146.5548,-31.04288,11.09034,-146.6064,LR
-0.326416,-0.9580078,0.2717285,0.06709921,-0.01197708,-0.2902825,-66.23774,17.98986,-74.82121,-66.09073,18.14879,-74.97149,-0.09301758,-0.2446289,-0.3918457,0.3823588,0.02929771,0.0147481,-30.83836,11.5547,-146.5487,-31.2753,11.38506,-146.2608,LR
-0.3215332,-0.9509277,0.2731934,0.1739695,-0.2562519,-0.3818855,-66.2319,17.98636,-74.8259,-66.07336,18.00314,-74.77542,-0.09082031,-0.2504883,-0.404541,0.0006792545,-0.382916,0.1063511,-30.84435,11.5341,-146.5488,-31.13841,10.80629,-146.6297,LR
-0.3122559,-0.9501953,0.2731934,0.4945802,-0.3783893,-0.1528779,-66.22823,17.97162,-74.8261,-66.41187,17.52759,-74.72276,-0.09423828,-0.2495117,-0.3911133,0.06174803,-0.2760458,0.259023,-30.8627,11.52901,-146.5282,-31.80732,11.48243,-145.7084,LR
-0.3125,-0.9450684,0.2722168,0.3571756,-0.1951832,0.06086259,-66.22485,17.96187,-74.82277,-66.32128,17.62741,-74.70495,-0.08178711,-0.2453613,-0.3937988,0.3060229,0.07509923,0.2437558,-30.86865,11.49947,-146.5281,-31.38505,9.996943,-146.7045,LR
-0.3178711,-0.9541016,0.2770996,0.00603056,-0.02724427,0.2288015,-66.22337,17.95706,-74.81485,-66.15549,17.74168,-74.59498,-0.0949707,-0.2426758,-0.3959961,0.3976259,0.1056336,-0.2753282,-30.86127,11.50217,-146.5346,-30.79178,11.55677,-146.6519,LR
-0.3139648,-0.9428711,0.2729492,0.03656495,0.1864962,-0.1376107,-66.2222,17.95541,-74.81342,-66.19148,17.73715,-74.64185,-0.09179688,-0.2373047,-0.3762207,0.2754886,0.4567786,-0.1989923,-30.86998,11.51205,-146.5254,-31.49922,11.66062,-145.9292,LR
-0.3178711,-0.9450684,0.2670898,0.05183208,0.6292443,-0.1223435,-66.22266,17.96425,-74.81903,-66.28325,17.93519,-75.00433,-0.08618164,-0.2392578,-0.3901367,0.3976259,0.1972366,-0.428,-30.86502,11.498,-146.5393,-30.91444,10.66449,-146.9021,LR
-0.3186035,-0.9475098,0.2741699,-0.390916,0.4613054,-0.1376107,-66.22549,17.96976,-74.81793,-66.07718,17.90062,-74.66273,-0.08886719,-0.248291,-0.3959961,0.3670917,0.2888396,-0.01578617,-30.87148,11.48759,-146.5355,-31.45777,10.76524,-146.3382,LR
-0.3161621,-0.9472656,0.2866211,-0.2382443,0.2780993,-0.1986794,-66.21945,17.96879,-74.80421,-65.74841,17.71657,-73.98583,-0.09521484,-0.2431641,-0.3918457,0.2144198,-0.1691756,-0.2905953,-30.87271,11.48867,-146.5354,-31.09056,11.66574,-146.319,LR
-0.3227539,-0.9448242,0.2741699,-0.2840458,0.171229,-0.3055496,-66.21638,17.97519,-74.80552,-65.85735,18.16304,-74.645,-0.09301758,-0.2426758,-0.402832,-0.2435954,-0.0470382,-0.1379237,-30.86684,11.48201,-146.55,-30.41203,11.18818,-147.1714,LR
-0.3166504,-0.9545898,0.2709961,-0.1771755,0.01855725,-0.2597481,-66.22276,17.9699,-74.81137,-66.41356,17.69809,-74.9198,-0.08837891,-0.2495117,-0.4055176,-0.2130611,0.01403052,-0.1379237,-30.87291,11.46289,-146.5584,-31.01345,10.5155,-146.8655,LR
-0.3144531,-0.9541016,0.2724609,-0.222977,0.07962596,-0.1376107,-66.23035,17.96336,-74.81367,-66.43858,17.58401,-74.82543,-0.09228516,-0.2397461,-0.3916016,0.0006792545,0.1514351,0.03001523,-30.87125,11.46314,-146.5614,-30.79055,11.36424,-146.7347,LR
-0.322998,-0.9511719,0.2712402,-0.3451145,0.2322977,-0.168145,-66.23254,17.9692,-74.81767,-66.08593,18.08501,-74.88934,-0.08984375,-0.2446289,-0.3991699,-0.07565641,0.1972366,0.03001523,-30.87243,11.45405,-146.567,-30.87465,10.8633,-146.8607,LR
-0.3193359,-0.9523926,0.2719727,-0.1008396,0.3239008,-0.1986794,-66.23397,17.97198,-74.82124,-66.23011,17.86985,-74.8502,-0.1013184,-0.2426758,-0.3986816,0.3518243,-0.031771,0.03001523,-30.86023,11.46942,-146.567,-30.53819,12.24777,-146.5905,LR
-0.3171387,-0.9555664,0.2736816,-0.1008396,0.1101603,-0.168145,-66.23743,17.96818,-74.82331,-66.32829,17.69567,-74.79285,-0.09619141,-0.2453613,-0.3984375,0.3976259,0.2125039,0.06054974,-30.85256,11.47694,-146.5647,-30.9052,11.61645,-146.5177,LR
-0.3198242,-0.9450684,0.2700195,-0.1771755,0.339168,-0.1223435,-66.23874,17.97662,-74.82661,-66.11166,18.02452,-74.85641,-0.09423828,-0.2429199,-0.3952637,-0.2283282,0.04456491,-0.01578617,-30.8563,11.4777,-146.5658,-30.87185,11.48197,-146.607,LR
-0.310791,-0.9550781,0.2717285,-0.03977096,0.5223741,-0.07654199,-66.24702,17.97235,-74.82842,-66.62378,17.37949,-74.86131,-0.08862305,-0.2441406,-0.402832,0.1686182,0.07509923,-0.1073892,-30.84913,11.46235,-146.5798,-30.62153,10.65527,-147.1879,LR
-0.3161621,-0.9572754,0.265625,-0.3298473,0.5834427,-0.4124198,-66.26027,17.97456,-74.8427,-66.66634,17.65358,-75.23908,-0.09033203,-0.2409668,-0.402832,0.4586947,0.01403052,-0.0005190372,-30.83083,11.45117,-146.5968,-30.27153,10.89286,-147.4283,LR
-0.3261719,-0.9501953,0.2692871,-0.2535114,0.2780993,-0.4429542,-66.25887,17.98468,-74.85226,-66.00423,18.27641,-74.99467,-0.09570313,-0.2429199,-0.3952637,0.1075497,-0.0470382,-0.2905953,-30.82965,11.45457,-146.6002,-30.85061,11.65559,-146.5531,LR
-0.3193359,-0.9492188,0.2680664,-0.009236574,0.3239008,-0.2902825,-66.25957,17.98854,-74.85978,-66.28697,17.93972,-75.01511,-0.09570313,-0.2451172,-0.4035645,-0.02985501,-0.1386412,-0.04632068,-30.82515,11.4526,-146.6068,-30.58265,11.45788,-146.8943,LR
-0.3164063,-0.9472656,0.2758789,0.08236647,-0.1493817,0.09139694,-66.25515,17.98219,-74.85239,-66.0991,17.78088,-74.55799,-0.07885742,-0.2453613,-0.3937988,-0.1214581,-0.1691756,0.2284887,-30.83899,11.41381,-146.607,-31.42217,9.645694,-146.7972,LR
-0.3122559,-0.953125,0.2697754,0.00603056,-0.179916,0.2135344,-66.26175,17.96965,-74.8509,-66.58993,17.49636,-74.94511,-0.09130859,-0.2424316,-0.3925781,-0.2588627,0.02929771,-0.1379237,-30.84654,11.40984,-146.6085,-31.02617,11.19388,-146.5797,LR
-0.3173828,-0.9528809,0.2749023,0.2045038,0.06435877,-0.1070763,-66.2579,17.96613,-74.8493,-66.21943,17.74599,-74.69236,-0.0925293,-0.2441406,-0.3984375,-0.1061909,0.05983204,0.2284887,-30.8478,11.40653,-146.6083,-30.83136,11.20047,-146.7641,LR
-0.315918,-0.9545898,0.2800293,-0.1924427,0.339168,-0.0002061129,-66.25842,17.96415,-74.84107,-66.14287,17.61799,-74.43772,-0.07885742,-0.2497559,-0.3876953,0.1075497,0.09036642,-0.1837251,-30.87453,11.37379,-146.598,-32.26341,9.703226,-145.9588,LR
-0.3181152,-0.9545898,0.2741699,-0.07030535,0.2170305,-0.2597481,-66.25935,17.96326,-74.84324,-66.25349,17.76021,-74.75804,-0.09985352,-0.2414551,-0.3942871,0.1991527,0.02929771,-0.04632068,-30.86802,11.39049,-146.5961,-30.69518,12.18709,-146.4682,LR
-0.3137207,-0.9562988,0.2724609,-0.1008396,0.5529084,-0.4887558,-66.26594,17.96233,-74.8506,-66.51472,17.51057,-74.85216,-0.09106445,-0.2431641,-0.3942871,0.2144198,0.2735725,0.1368854,-30.86754,11.38913,-146.5948,-31.00165,11.12149,-146.6332,LR
-0.3198242,-0.9528809,0.2678223,-0.05503809,0.4765725,-0.504023,-66.26857,17.96822,-74.86259,-66.35714,17.90663,-75.07977,-0.09326172,-0.2475586,-0.3933105,0.4128931,-0.0470382,0.2284887,-30.87382,11.3876,-146.581,-31.485,11.34724,-146.075,LR
-0.3225098,-0.9528809,0.2685547,-0.08557248,0.5834427,-0.7177633,-66.26905,17.97831,-74.87695,-66.22955,18.04389,-75.05297,-0.08959961,-0.2507324,-0.404541,0.2144198,-0.3371145,0.5796337,-30.87678,11.36813,-146.5738,-31.17939,10.66159,-146.6479,LR
-0.3164063,-0.9538574,0.2744141,0.08236647,0.5223741,-0.8246336,-66.26834,17.98005,-74.88608,-66.29432,17.68137,-74.72724,-0.09277344,-0.2436523,-0.3952637,0.1380839,0.02929771,0.5338321,-30.87673,11.36715,-146.5669,-30.96886,11.29901,-146.591,LR
-0.3239746,-0.9587402,0.2731934,0.2961069,0.430771,-0.6872291,-66.26199,17.98643,-74.89565,-66.15345,18.00316,-74.89287,-0.09472656,-0.2441406,-0.395752,0.1380839,0.05983204,0.3200917,-30.8764,11.37097,-146.5609,-30.9619,11.51436,-146.5069,LR
-0.3225098,-0.9511719,0.2697754,0.2808397,0.2933664,-0.5192901,-66.25566,17.99234,-74.90466,-66.15217,18.06629,-74.96499,-0.09155273,-0.2424316,-0.3972168,0.1533511,-0.01650381,0.4880307,-30.87144,11.36591,-146.5601,-30.74135,11.1301,-146.8797,LR
-0.315918,-0.9472656,0.28125,0.2655725,0.06435877,-0.5650916,-66.24541,17.98803,-74.90028,-65.93831,17.72964,-74.26978,-0.09228516,-0.2521973,-0.3908691,0.2449541,0.2125039,0.1216183,-30.89296,11.36614,-146.5373,-32.12704,11.22124,-145.5085,LR
-0.3190918,-0.9504395,0.2692871,0.2655725,0.09489316,-0.1528779,-66.24227,17.98769,-74.90383,-66.28378,17.90128,-74.96545,-0.09130859,-0.2458496,-0.4020996,0.1686182,0.2125039,0.06054974,-30.88872,11.36123,-146.5434,-30.80489,10.96446,-146.8867,LR
-0.3186035,-0.9555664,0.2697754,0.05183208,0.09489316,-0.3666183,-66.24466,17.98513,-74.91128,-66.39999,17.79019,-75.00662,-0.09082031,-0.2438965,-0.3974609,0.229687,-0.123374,0.2284887,-30.88534,11.3526,-146.5448,-30.88861,11.02078,-146.7832,LR
-0.310791,-0.9521484,0.2675781,0.1434351,0.2322977,-0.336084,-66.2516,17.97774,-74.91885,-66.69752,17.44468,-75.04252,-0.09155273,-0.2416992,-0.3942871,0.1380839,0.01403052,0.2742901,-30.88244,11.34971,-146.545,-30.84216,11.1977,-146.7549,LR
-0.310791,-0.9489746,0.2729492,0.2808397,0.1559618,0.0,-66.25143,17.96989,-74.91471,-66.44888,17.47095,-74.71221,-0.07885742,-0.2441406,-0.3994141,0.1533511,-0.123374,0.182687,-30.88154,11.31215,-146.5571,-30.9499,9.562022,-147.2857,LR
-0.317627,-0.9516602,0.2746582,0.219771,0.06435877,-0.168145,-66.24699,17.96704,-74.91268,-66.19106,17.77963,-74.68961,-0.09301758,-0.2475586,-0.3952637,0.1686182,-0.06230533,0.5338321,-30.88898,11.31063,-146.5429,-31.36893,11.27919,-146.2149,LR
-0.3171387,-0.9460449,0.277832,0.219771,0.07962596,-0.1834122,-66.23862,17.96539,-74.90575,-65.97885,17.82999,-74.44022,-0.09130859,-0.2446289,-0.3916016,0.2602212,0.1209008,0.1216183,-30.89342,11.31004,-146.5363,-31.31506,11.18609,-146.3052,LR
-0.3188477,-0.9472656,0.2666016,0.1434351,0.1559618,-0.1528779,-66.2378,17.96758,-74.91133,-66.31015,17.95284,-75.06476,-0.0925293,-0.2512207,-0.4008789,0.1228168,-0.031771,-0.06158781,-30.90205,11.30473,-146.5317,-31.40908,11.06646,-146.2638,LR
-0.3193359,-0.9494629,0.2719727,-0.1924427,0.003290057,-0.09180916,-66.23898,17.96662,-74.91056,-66.16493,17.91756,-74.81013,-0.09204102,-0.244873,-0.3967285,-0.1367252,-0.1081069,0.0,-30.90635,11.3004,-146.533,-31.01688,11.16783,-146.5995,LR
-0.3276367,-0.9487305,0.2773438,-0.07030535,0.03382444,0.07612977,-66.22834,17.97456,-74.9023,-65.6552,18.33877,-74.55354,-0.09082031,-0.2485352,-0.3964844,0.0922823,-0.1844428,-0.1989923,-30.91529,11.29118,-146.5311,-31.42584,10.98367,-146.2813,LR
-0.3168945,-0.9526367,0.2807617,-0.1161069,0.01855725,0.09139694,-66.22636,17.9693,-74.89034,-66.0383,17.69688,-74.37614,-0.07983398,-0.2463379,-0.3986816,0.1380839,-0.2607787,-0.168458,-30.91916,11.25487,-146.5429,-31.20974,9.667543,-146.9955,LR
-0.3144531,-0.9465332,0.2736816,-0.131374,0.1406947,-0.04600763,-66.22837,17.96598,-74.88632,-66.23034,17.70011,-74.65598,-0.09448242,-0.2436523,-0.3852539,-0.07565641,-0.1386412,-0.2447939,-30.93301,11.26207,-146.5324,-31.56006,11.71003,-145.8497,LR
-0.3203125,-0.9499512,0.2675781,-0.1161069,0.1406947,0.3509389,-66.23102,17.96822,-74.88489,-66.28123,17.98129,-75.05553,-0.09130859,-0.2470703,-0.394043,-0.04512215,-0.2149771,-0.428,-30.94337,11.25581,-146.5328,-31.41778,11.10718,-146.2388,LR
-0.3168945,-0.9521484,0.2717285,-0.3145801,0.01855725,0.04559542,-66.23754,17.96407,-74.88349,-66.32629,17.74689,-74.84871,-0.09765625,-0.2451172,-0.3969727,-0.1214581,-0.4134504,-0.168458,-30.94522,11.26106,-146.5324,-30.94648,11.8222,-146.3893,LR
-0.3137207,-0.9516602,0.2792969,-0.3756489,-0.04251146,-0.09180916,-66.24201,17.95522,-74.87568,-66.18485,17.55295,-74.42529,-0.09277344,-0.2470703,-0.395752,-0.1672597,-0.2760458,-0.2295268,-30.95462,11.25672,-146.5312,-31.2924,11.2467,-146.302,LR
-0.3168945,-0.954834,0.2814941,-0.299313,-0.1646488,0.2898702,-66.24283,17.94686,-74.86127,-66.06288,17.65829,-74.36826,-0.09716797,-0.2409668,-0.3959961,-0.1825268,-0.07757253,-0.2753282,-30.94985,11.26722,-146.5392,-30.5821,11.83878,-146.7304,LR
-0.3100586,-0.9526367,0.2734375,-0.2382443,0.01855725,0.06086259,-66.25229,17.93564,-74.85781,-66.5411,17.37187,-74.73357,-0.09790039,-0.2419434,-0.4040527,-0.197794,-0.1386412,-0.1379237,-30.93771,11.2747,-146.5533,-30.19738,11.74328,-147.1393,LR
-0.3149414,-0.9521484,0.2758789,-0.131374,-0.1646488,0.1066641,-66.25445,17.92701,-74.85147,-66.26362,17.62516,-74.61918,-0.09643555,-0.2456055,-0.3969727,0.0922823,0.1972366,-0.2295268,-30.93789,11.28555,-146.5534,-31.01473,11.67226,-146.3888,LR
-0.3200684,-0.9572754,0.2775879,-0.3145801,0.1101603,0.09139694,-66.25652,17.92615,-74.84556,-66.12667,17.80311,-74.62311,-0.09521484,-0.2416992,-0.3950195,-0.01458788,0.01403052,-0.01578617,-30.93426,11.29241,-146.5559,-30.74548,11.61836,-146.6698,LR
-0.3190918,-0.9489746,0.2670898,-0.222977,-0.08831299,0.1066641,-66.26112,17.92503,-74.84834,-66.32278,17.93539,-75.06286,-0.09448242,-0.2446289,-0.3955078,-0.06038928,-0.3676488,-0.0005190372,-30.93707,11.29085,-146.5539,-31.03073,11.4843,-146.4537,LR
-0.3151855,-0.9467773,0.270752,0.06709921,0.1864962,0.1219313,-66.261,17.92424,-74.84596,-66.30488,17.74846,-74.81931,-0.09716797,-0.2426758,-0.3955078,-0.2741299,-0.1844428,0.1674199,-30.93814,11.29886,-146.5511,-30.78907,11.82702,-146.5378,LR
-0.3010254,-0.9533691,0.2756348,-0.1924427,0.2170305,0.04559542,-66.27507,17.90643,-74.8401,-66.82331,16.87392,-74.58649,-0.09985352,-0.2390137,-0.390625,-0.2130611,0.01403052,0.3048244,-30.93571,11.3191,-146.5446,-30.66002,12.30059,-146.4506,LR
-0.2990723,-0.9558105,0.2695313,-0.1008396,0.3544351,-0.3208168,-66.29421,17.88871,-74.84676,-67.15825,16.7599,-74.93713,-0.09570313,-0.2426758,-0.3986816,-0.1061909,0.227771,0.6559694,-30.93097,11.32782,-146.5401,-30.6205,11.58785,-146.8025,LR
-0.3168945,-0.9587402,0.2736816,-0.1008396,0.4613054,-0.7024961,-66.29796,17.89036,-74.85685,-66.40734,17.63213,-74.83502,-0.09521484,-0.2460938,-0.4208984,0.5197632,0.2735725,0.4574962,-30.89861,11.32629,-146.5609,-29.69511,11.05007,-147.9154,LR
-0.3181152,-0.954834,0.2766113,0.2961069,0.1254275,-0.7177633,-66.29122,17.88929,-74.8629,-66.1786,17.74495,-74.63208,-0.09570313,-0.2478027,-0.4006348,0.6877022,-0.3218473,0.610168,-30.89183,11.32502,-146.5504,-31.03107,11.48379,-146.4536,LR
-0.3208008,-0.9541016,0.2814941,0.7235878,-0.1035802,-0.4734885,-66.27346,17.88757,-74.85966,-65.89987,17.87401,-74.37627,-0.09130859,-0.2443848,-0.3947754,0.1533511,-0.4745191,0.6254351,-30.89364,11.31406,-146.541,-31.09524,11.1258,-146.5415,LR
-0.3222656,-0.9538574,0.2702637,0.738855,-0.07304579,-0.2597481,-66.26124,17.88889,-74.86578,-66.20549,18.00722,-74.97424,-0.09326172,-0.2456055,-0.4040527,0.1380839,-0.1844428,0.5949008,-30.88649,11.30822,-146.5408,-30.63752,11.15758,-146.968,LR
