xa_S1,ya_S1,za_S1,xgb_S1,ybg_S1,zbg_S1,tilt_x_S1,tilt_y_S1,tilt_z_S1,tilt_accx_S1,tilt_accy_S1,tilt_accz_S1,xa_S2,ya_S2,za_S2,xgb_S2,ybg_S2,zbg_S2,tilt_x_S2,tilt_y_S2,tilt_z_S2,tilt_accx_S2,tilt_accy_S2,tilt_accz_S2,Posture
0.0402832,-0.2607422,-0.3979492,0.1228168,0.2583054,0.9460459,-31.92283,-6.512705,-147.0294,-33.09966,-4.839736,-146.4561,-0.3654785,-0.9238281,0.2414551,0.6625191,1.285733,0.442542,-64.52757,20.51622,-77.5601,-64.63191,20.94464,-76.3399,LB
0.04638672,-0.2607422,-0.4020996,0.1075497,0.6247175,1.113985,-31.93857,-6.483839,-147.005,-32.7888,-5.52857,-146.6298,-0.3552246,-0.9316406,0.2463379,0.6777863,1.285733,0.3509389,-64.52923,20.52949,-77.52618,-65.10871,20.23495,-76.12225,LB
0.04272461,-0.2602539,-0.4082031,-0.3504658,0.2735725,1.46513,-31.95252,-6.451011,-146.986,-32.37862,-5.043517,-147.1337,-0.3527832,-0.9321289,0.2434082,0.4335115,1.804817,0.2440687,-64.5384,20.54768,-77.49759,-65.30633,20.11228,-76.27558,LB
0.04223633,-0.2600098,-0.402832,-0.5031376,0.3957099,1.572,-31.97433,-6.417248,-146.9611,-32.69786,-5.034307,-146.8187,-0.3608398,-0.9345703,0.2421875,0.1129008,1.270466,0.1066641,-64.54731,20.56403,-77.47437,-65.06131,20.49355,-76.40952,LB
0.03710938,-0.2595215,-0.3933105,-0.2588627,0.5331145,1.602534,-32.00468,-6.371124,-146.9246,-33.30175,-4.502884,-146.3145,-0.3591309,-0.9335938,0.2495117,0.03656495,1.163595,0.1066641,-64.55385,20.57759,-77.44318,-64.90138,20.38669,-75.99393,LB
0.04663086,-0.2556152,-0.4084473,0.04648089,0.8842595,1.46513,-32.00136,-6.341257,-146.9154,-31.87264,-5.527697,-147.5375,-0.3691406,-0.9396973,0.2368164,0.2655725,1.071992,0.01506107,-64.55848,20.59885,-77.43008,-64.98069,20.8528,-76.79911,LB
0.04516602,-0.2583008,-0.404541,0.1075497,0.5331145,1.602534,-32.0077,-6.314111,-146.8945,-32.3976,-5.375785,-147.0491,-0.3725586,-0.9306641,0.2436523,0.6319848,1.255198,0.1982672,-64.54676,20.62871,-77.40534,-64.4371,21.16954,-76.33897,LB
0.0480957,-0.2575684,-0.4211426,-0.04512215,-0.3981832,1.46513,-31.9939,-6.304973,-146.8973,-31.28473,-5.564554,-148.1116,-0.3693848,-0.9387207,0.2402344,0.7235878,1.636878,0.6562824,-64.54228,20.65755,-77.37969,-64.85475,20.86747,-76.60491,LB
0.046875,-0.2570801,-0.4047852,-0.6252747,0.0,1.220855,-32.00816,-6.290536,-146.8845,-32.24727,-5.583132,-147.1548,-0.3662109,-0.9331055,0.2368164,0.5098474,1.301,1.083763,-64.54294,20.68006,-77.35032,-64.94976,20.82705,-76.70757,LB
0.04785156,-0.2548828,-0.4050293,-0.5794735,0.0,1.113985,-32.01659,-6.278928,-146.8778,-32.00325,-5.710137,-147.369,-0.3669434,-0.9355469,0.2397461,0.3724428,0.9803894,1.328038,-64.54453,20.69695,-77.31542,-64.89603,20.80409,-76.58183,LB
0.03686523,-0.2592773,-0.407959,-0.4726033,-0.3676488,0.8849771,-32.02939,-6.245619,-146.8742,-32.33252,-4.361259,-147.302,-0.3686523,-0.932373,0.2438965,0.03656495,0.0,1.312771,-64.54583,20.70167,-77.27766,-64.6348,20.93288,-76.32768,LB
0.05151367,-0.2546387,-0.3950195,-0.09092379,-0.1386412,0.3658931,-32.04188,-6.247847,-146.8646,-32.58714,-6.255117,-146.6678,-0.3740234,-0.9291992,0.2370605,-0.02450383,0.6292443,1.236435,-64.54565,20.72303,-77.24762,-64.51926,21.30724,-76.68481,LB
0.04663086,-0.253418,-0.402832,0.1991527,-0.07757253,0.03001523,-32.03815,-6.235951,-146.8748,-32.002,-5.596072,-147.3949,-0.3740234,-0.9267578,0.2434082,0.02129769,0.4002366,1.389107,-64.54019,20.74091,-77.20848,-64.28826,21.32288,-76.31168,LB
0.03637695,-0.251709,-0.4077148,0.4739618,0.1361679,-0.6112061,-32.02219,-6.196061,-146.9072,-31.58829,-4.341515,-148.045,-0.3737793,-0.9291992,0.2373047,-0.4672519,0.1864962,1.236435,-64.54672,20.75471,-77.17954,-64.52305,21.29336,-76.67042,LB
0.04443359,-0.2568359,-0.4121094,0.4739618,0.8231909,-1.420366,-32.01045,-6.164604,-146.9436,-31.78366,-5.22824,-147.6874,-0.380127,-0.9206543,0.236084,-0.7878625,0.6139771,1.572313,-64.54894,20.78461,-77.14615,-64.07848,21.79882,-76.66571,LB
0.04980469,-0.2600098,-0.4018555,0.5350306,1.143802,-1.924183,-32.01647,-6.14331,-146.9655,-32.70494,-5.940553,-146.6237,-0.3706055,-0.9343262,0.2253418,-1.093206,0.5529084,1.679183,-64.576,20.79878,-77.12582,-65.09815,21.08659,-77.36387,LB
0.05078125,-0.2553711,-0.4018555,0.1686182,1.296473,-2.260061,-32.01826,-6.123141,-147.0006,-32.23004,-6.087788,-147.0599,-0.371582,-0.9306641,0.2375488,-1.306947,0.9040535,1.999794,-64.59658,20.81909,-77.08719,-64.64459,21.14956,-76.66416,LB
0.04663086,-0.2553711,-0.3986816,-0.2741299,1.143802,-2.04632,-32.03122,-6.096363,-147.0293,-32.4646,-5.624931,-146.9306,-0.364502,-0.9296875,0.2373047,-1.459618,0.9956565,2.07613,-64.62466,20.83337,-77.04757,-64.92804,20.80123,-76.63219,LB
0.05297852,-0.2561035,-0.4052734,-0.6710763,1.357542,-2.061588,-32.04188,-6.080599,-147.0624,-32.07111,-6.306018,-147.1656,-0.3723145,-0.9387207,0.237793,-1.276412,0.9040535,1.999794,-64.6469,20.8506,-77.01221,-64.79777,21.03051,-76.74986,LB
0.04638672,-0.2561035,-0.4064941,-0.3504658,1.296473,-1.878382,-32.04676,-6.051496,-147.0943,-32.04523,-5.514795,-147.3693,-0.3757324,-0.9428711,0.237793,-1.444351,0.0,1.495977,-64.6688,20.85612,-76.98773,-64.75146,21.12649,-76.81435,LB
0.04614258,-0.2617188,-0.4086914,-0.02985501,1.067466,-1.908916,-32.05566,-6.023399,-147.1198,-32.4702,-5.431278,-146.9657,-0.3752441,-0.9394531,0.2294922,-1.200076,0.0,1.053229,-64.69128,20.86314,-76.97686,-64.91071,21.20718,-77.21846,LB
0.04467773,-0.2595215,-0.3964844,-0.01458788,0.8079236,-1.588305,-32.0756,-5.998777,-147.1289,-33.04159,-5.386096,-146.4085,-0.3723145,-0.940918,0.2246094,-1.139008,0.9040535,1.190634,-64.71814,20.88018,-76.96952,-65.1973,21.05066,-77.48509,LB
0.05004883,-0.2651367,-0.4035645,-0.197794,0.5636489,-1.557771,-32.09907,-5.988866,-147.1339,-33.10405,-5.917521,-146.2337,-0.3701172,-0.9421387,0.2336426,-1.01687,0.6445115,1.083763,-64.74036,20.88949,-76.95425,-65.08163,20.87175,-77.00265,LB
0.05126953,-0.2580566,-0.404541,-0.5031376,0.3957099,-1.115023,-32.11103,-5.985247,-147.1468,-32.32718,-6.098749,-146.9613,-0.3764648,-0.9404297,0.2304688,-0.9710688,0.2933664,1.205901,-64.75694,20.90094,-76.94109,-64.85609,21.2464,-77.18253,LB
0.04931641,-0.2602539,-0.4003906,-0.5642061,0.3651755,-0.7486105,-32.13364,-5.978097,-147.1451,-32.82706,-5.896132,-146.5127,-0.362793,-0.9416504,0.2373047,-0.4214504,-0.179916,0.8547558,-64.7736,20.88998,-76.92503,-65.27988,20.48533,-76.76676,LB
0.04882813,-0.2617188,-0.4008789,-0.8237481,-0.3981832,-0.4890685,-32.1612,-5.980469,-147.1371,-32.94617,-5.823521,-146.4108,-0.373291,-0.9360352,0.2290039,-0.08557248,0.1864962,1.022695,-64.77784,20.89824,-76.91644,-64.9268,21.17514,-77.19704,LB
0.0534668,-0.2580566,-0.4099121,-0.8084807,-0.6577252,-0.01578617,-32.16935,-5.996507,-147.1399,-31.97462,-6.298956,-147.2625,-0.3842773,-0.9382324,0.2250977,0.08236647,0.1254275,1.144832,-64.77322,20.91644,-76.91092,-64.60767,21.7161,-77.48242,LB
0.04760742,-0.260498,-0.4213867,-0.7626796,-1.146275,-0.04632068,-32.16916,-6.004333,-147.1549,-31.56176,-5.489154,-147.8535,-0.3776855,-0.934082,0.2177734,0.2655725,0.003290057,1.343305,-64.77319,20.92804,-76.90771,-64.97972,21.49345,-77.8036,LB
0.04956055,-0.2553711,-0.4057617,-0.8390155,-1.49742,-0.1226563,-32.17798,-6.024296,-147.1603,-31.99382,-5.901875,-147.3359,-0.3852539,-0.9333496,0.239502,0.4335115,0.2933664,1.419641,-64.75293,20.94963,-76.88181,-64.07906,21.79211,-76.65642,LB
0.04833984,-0.2463379,-0.3981934,-0.7474122,-1.11574,-0.2447939,-32.17579,-6.037004,-147.1759,-31.55533,-5.894294,-147.7711,-0.3818359,-0.9272461,0.2277832,0.3266413,0.4613054,1.541779,-64.74104,20.9729,-76.86707,-64.38218,21.79676,-77.20242,LB
0.05834961,-0.2526855,-0.4038086,-0.7932138,-1.00887,-0.4127328,-32.17935,-6.070765,-147.1843,-31.7709,-6.983519,-147.2905,-0.3828125,-0.9343262,0.2341309,0.5556489,0.6750459,1.343305,-64.72498,20.99686,-76.84888,-64.34614,21.67446,-76.94498,LB
0.05249023,-0.2526855,-0.4111328,-0.4878702,-0.7035267,-0.01578617,-32.17031,-6.083845,-147.1985,-31.36896,-6.207702,-147.8823,-0.3840332,-0.9384766,0.2270508,0.2961069,0.781916,1.434908,-64.71761,21.0222,-76.83839,-64.57458,21.68942,-77.37889,LB
0.05322266,-0.2573242,-0.4125977,-0.2588627,-0.5813893,-0.2905953,-32.16548,-6.095641,-147.2089,-31.73861,-6.246285,-147.5082,-0.3876953,-0.9416504,0.2263184,0.5556489,0.690313,1.297504,-64.70532,21.04825,-76.83195,-64.5112,21.81717,-77.47006,LB
0.05078125,-0.2563477,-0.411377,0.06174803,-0.2302443,-0.168458,-32.15596,-6.096729,-147.2187,-31.73477,-5.980829,-147.5741,-0.3911133,-0.9362793,0.222168,0.7235878,0.0,1.053229,-64.68736,21.06966,-76.83282,-64.33935,22.11906,-77.64984,LB
0.05615234,-0.2558594,-0.4067383,0.0922823,-0.6729923,-0.2447939,-32.15006,-6.117991,-147.2223,-31.92874,-6.665201,-147.2175,-0.3811035,-0.9333496,0.2258301,0.9678626,0.0,1.190634,-64.67159,21.0812,-76.82614,-64.60992,21.64647,-77.37401,LB
0.0534668,-0.2583008,-0.4060059,0.04648089,-0.5355878,-0.1837251,-32.15121,-6.130307,-147.2203,-32.24184,-6.340117,-146.9888,-0.387207,-0.9277344,0.2265625,1.105267,0.0,1.358572,-64.64577,21.10098,-76.81564,-64.19321,22.07025,-77.2995,LB
0.0534668,-0.2526855,-0.3989258,-0.3199313,-0.810397,-0.2447939,-32.15499,-6.148015,-147.2209,-32.12066,-6.459765,-147.0794,-0.3823242,-0.9350586,0.2270508,1.380076,0.9651221,2.015061,-64.62526,21.12559,-76.79833,-64.56686,21.66948,-77.33282,LB
0.05639648,-0.2504883,-0.3981934,-0.5336719,-0.8256641,0.0147481,-32.15806,-6.173915,-147.22,-31.91655,-6.836187,-147.1857,-0.3876953,-0.9399414,0.2316895,1.349542,0.4155039,1.69445,-64.59962,21.14569,-76.78072,-64.33531,21.82514,-77.16316,LB
0.05419922,-0.253418,-0.4074707,-0.6710763,-1.100473,-0.3058627,-32.15784,-6.1955,-147.231,-31.65381,-6.444307,-147.5439,-0.387207,-0.9377441,0.2331543,1.166336,0.01855725,1.633382,-64.57581,21.15978,-76.76225,-64.26633,21.83663,-77.05743,LB
0.04882813,-0.2595215,-0.4108887,-0.4115343,-1.512687,0.0,-32.16265,-6.208575,-147.2318,-32.09582,-5.737401,-147.2715,-0.387207,-0.9331055,0.2402344,1.639618,-0.5768626,1.343305,-64.53963,21.16597,-76.73972,-63.97166,21.89328,-76.62374,LB
0.05151367,-0.2539063,-0.4106445,-0.3657329,-1.833298,-0.5348701,-32.15535,-6.233158,-147.25,-31.52925,-6.09027,-147.7518,-0.3857422,-0.9326172,0.2385254,2.067099,-0.9280076,1.58758,-64.49977,21.16575,-76.71564,-64.06633,21.83668,-76.70267,LB
0.0480957,-0.2536621,-0.3964844,-0.2130611,-1.970702,-0.8554807,-32.16379,-6.254152,-147.2562,-32.42055,-5.834369,-146.9288,-0.3825684,-0.927002,0.2324219,2.158702,-1.248618,1.541779,-64.46254,21.1604,-76.69769,-64.22474,21.81642,-76.95132,LB
0.04467773,-0.2592773,-0.4013672,-0.2283282,-2.169176,-0.7333436,-32.17968,-6.284796,-147.2627,-32.70128,-5.341713,-146.7549,-0.3652344,-0.923584,0.2524414,2.204504,-1.431824,1.419641,-64.41011,21.12252,-76.64651,-64.32549,20.87989,-75.73882,LB
0.03833008,-0.2561035,-0.3986816,-0.289397,-1.772229,-0.04632068,-32.19198,-6.275908,-147.2579,-32.59597,-4.624606,-146.995,-0.3632813,-0.9265137,0.2434082,1.563282,-1.034878,1.083763,-64.39514,21.10123,-76.62384,-64.73402,20.76805,-76.25613,LB
0.03320313,-0.253418,-0.392334,-0.1519923,-1.451618,-0.0005190372,-32.2057,-6.253054,-147.2511,-32.76628,-4.06628,-146.918,-0.3649902,-0.9260254,0.25,1.563282,-0.6684657,0.793687,-64.37354,21.08604,-76.59772,-64.46429,20.83301,-75.90092,LB
0.03295898,-0.2512207,-0.3935547,0.1686182,-0.9172672,0.5338321,-32.20832,-6.222234,-147.2428,-32.46087,-4.037859,-147.2263,-0.3625488,-0.9221191,0.2492676,1.410611,-0.3936565,0.2135344,-64.35519,21.07422,-76.58021,-64.49268,20.78407,-75.87888,LB
0.03417969,-0.2536621,-0.3942871,0.5655649,-0.4439847,0.8086412,-32.20899,-6.18771,-147.2263,-32.65743,-4.169678,-147.0101,-0.3708496,-0.9243164,0.2553711,1.135802,-0.04251146,0.06086259,-64.33194,21.07496,-76.56007,-64.02746,21.14282,-75.61845,LB
0.03540039,-0.2509766,-0.409668,0.7029693,-0.1539084,0.6407022,-32.18244,-6.150502,-147.2374,-31.3982,-4.214175,-148.255,-0.371582,-0.9240723,0.2507324,0.738855,0.07962596,-0.4124198,-64.31688,21.07884,-76.55233,-64.12218,21.21031,-75.86977,LB
0.0402832,-0.2524414,-0.4006348,0.0,0.2430381,1.190321,-32.1805,-6.121167,-147.2243,-32.08534,-4.8624,-147.459,-0.3774414,-0.9265137,0.2497559,0.5861833,0.262832,-0.855168,-64.30123,21.09056,-76.5535,-63.96496,21.47158,-75.98291,LB
0.03857422,-0.2553711,-0.3999023,0.0,0.3041069,1.297191,-32.18572,-6.087229,-147.2037,-32.4414,-4.647752,-147.1445,-0.3720703,-0.9289551,0.244873,0.5098474,0.8124504,-0.855168,-64.29537,21.10412,-76.56,-64.38297,21.17118,-76.24977,LB
0.0456543,-0.2563477,-0.4050293,0.8251068,0.3499084,1.159786,-32.17402,-6.069498,-147.189,-32.16696,-5.440719,-147.2642,-0.3706055,-0.9260254,0.2407227,0.00603056,1.056725,-0.855168,-64.29915,21.12,-76.56916,-64.48833,21.17326,-76.43156,LB
0.04614258,-0.2600098,-0.392334,0.4739618,0.578916,1.068183,-32.19062,-6.051581,-147.1507,-33.35247,-5.599144,-146.0563,-0.3798828,-0.9311523,0.2495117,-0.299313,1.285733,-0.7330306,-64.29722,21.14665,-76.56987,-63.98294,21.50783,-76.06588,LB
0.03369141,-0.2561035,-0.4040527,0.6113663,0.578916,1.297191,-32.18339,-6.002611,-147.1367,-32.27834,-4.028581,-147.4093,-0.3781738,-0.9267578,0.2436523,-0.2535114,1.545275,-0.8857023,-64.29714,21.17717,-76.57787,-64.10703,21.53666,-76.31904,LB
0.046875,-0.2541504,-0.3959961,0.580832,0.0,1.098718,-32.18141,-5.99634,-147.1153,-32.51142,-5.689045,-146.8705,-0.3842773,-0.9328613,0.2331543,-0.1924427,1.438405,-0.855168,-64.29951,21.21044,-76.59863,-64.27399,21.78367,-76.98765,LB
0.05078125,-0.2539063,-0.4013672,0.580832,0.578916,0.7781069,-32.17149,-5.989964,-147.105,-32.11239,-6.103012,-147.1727,-0.3789063,-0.9282227,0.2421875,-0.4672519,1.636878,-0.763565,-64.30341,21.24136,-76.60627,-64.1513,21.55317,-76.41956,LB
0.05224609,-0.2529297,-0.4030762,0.580832,0.3651755,0.8544428,-32.15797,-5.990465,-147.0982,-31.8937,-6.265565,-147.3504,-0.378418,-0.9326172,0.2260742,-0.3756489,1.484206,-0.6414275,-64.31654,21.26732,-76.62975,-64.70203,21.52123,-77.34025,LB
0.05322266,-0.2619629,-0.404541,0.7793052,0.3041069,0.5796337,-32.15738,-5.99222,-147.0786,-32.70141,-6.301718,-146.5439,-0.3815918,-0.9360352,0.237793,-0.3298473,0.858252,-0.7940992,-64.32191,21.28579,-76.64407,-64.34293,21.55984,-76.76211,LB
0.05175781,-0.2539063,-0.4025879,0.0,0.4109771,0.4574962,-32.15478,-5.990456,-147.0749,-32.0275,-6.206086,-147.2324,-0.3796387,-0.934082,0.2373047,-0.222977,0.2322977,-0.946771,-64.32658,21.29349,-76.66022,-64.39166,21.50029,-76.75616,LB
0.046875,-0.2592773,-0.4052734,0.0,0.3346412,0.182687,-32.16042,-5.977351,-147.0703,-32.43687,-5.564764,-146.9709,-0.385498,-0.9331055,0.2336426,-0.1924427,0.03382444,-0.7940992,-64.327,21.30487,-76.67731,-64.21525,21.83905,-76.96995,LB
0.05200195,-0.2585449,-0.4101563,0.9625113,-0.06230533,-0.07685494,-32.14346,-5.981157,-147.0752,-32.01984,-6.121858,-147.2598,-0.3796387,-0.9301758,0.2397461,-0.131374,0.2170305,-0.4734885,-64.32704,21.31326,-76.6823,-64.23303,21.56493,-76.57836,LB
0.05615234,-0.2573242,-0.407959,0.5350306,-0.550855,-0.07685494,-32.13273,-6.002439,-147.0779,-31.99997,-6.640364,-147.1536,-0.3745117,-0.9350586,0.2446289,-0.6199236,0.1254275,-0.2444809,-64.33829,21.31244,-76.67924,-64.43375,21.18041,-76.34925,LB
0.04931641,-0.2614746,-0.4052734,0.3060229,-0.5050534,-0.01578617,-32.13833,-6.006581,-147.0709,-32.63779,-5.83832,-146.7129,-0.378418,-0.9335938,0.2338867,-0.5435878,0.2017633,-0.2750153,-64.34996,21.31844,-76.68827,-64.52191,21.46396,-76.92892,LB
0.04467773,-0.2541504,-0.3979492,0.5655649,-0.3218473,-0.4432673,-32.13529,-5.999285,-147.0768,-32.40179,-5.405217,-147.0389,-0.3791504,-0.9345703,0.229248,-0.650458,-0.347855,-0.3971527,-64.36522,21.31706,-76.70422,-64.63493,21.50513,-77.19402,LB
0.0480957,-0.2590332,-0.4030762,0.0,0.1361679,-0.7180762,-32.14343,-5.991941,-147.0824,-32.54253,-5.732186,-146.8304,-0.3813477,-0.9289551,0.2460938,-0.5435878,-0.3783893,-0.7940992,-64.36513,21.31804,-76.70641,-63.96127,21.64437,-76.22999,LB
0.04785156,-0.2583008,-0.3967285,0.0,-0.01650381,-0.6722746,-32.15813,-5.987765,-147.0798,-32.8783,-5.771821,-146.4893,-0.3825684,-0.9294434,0.246582,-0.3756489,-0.5768626,-0.7330306,-64.36115,21.31767,-76.70665,-63.90895,21.69499,-76.2158,LB
0.05004883,-0.2624512,-0.4064941,0.0,-0.1691756,-0.7638779,-32.16801,-5.988607,-147.0831,-32.65203,-5.905509,-146.6839,-0.378418,-0.9301758,0.2478027,-0.5893893,-0.8364046,-0.7788321,-64.36393,21.30823,-76.70673,-64.06685,21.46045,-76.13833,LB
0.04394531,-0.2619629,-0.3972168,0.6571679,-0.7035267,-0.6722746,-32.17988,-5.984711,-147.0759,-33.24471,-5.276685,-146.2289,-0.3737793,-0.9348145,0.2382813,-0.4825191,-0.7448015,-0.4124198,-64.37636,21.29469,-76.71235,-64.63061,21.17908,-76.68434,LB
0.03198242,-0.2600098,-0.4077148,0.5197632,-1.024137,-0.6112061,-32.17759,-5.95575,-147.0889,-32.44704,-3.783953,-147.278,-0.3774414,-0.9377441,0.239502,-0.299313,-0.607397,-0.427687,-64.38349,21.28597,-76.7178,-64.5132,21.30484,-76.67068,LB
0.04394531,-0.2614746,-0.4003906,0.3365571,-1.222611,0.0,-32.18888,-5.959618,-147.0769,-32.98964,-5.25051,-146.4872,-0.3728027,-0.9360352,0.2414551,0.00603056,-0.5157939,-0.2597481,-64.38803,21.27446,-76.71774,-64.61485,21.08935,-76.52338,LB
0.0480957,-0.2587891,-0.4060059,0.2907557,-1.100473,-0.04632068,-32.18749,-5.970694,-147.0769,-32.33285,-5.704559,-147.044,-0.3781738,-0.9355469,0.2460938,0.2655725,-0.5157939,-0.1376107,-64.38142,21.26842,-76.7113,-64.25291,21.35196,-76.29442,LB
0.04370117,-0.2583008,-0.4016113,0.4586947,-0.993603,0.04528236,-32.18888,-5.970469,-147.0723,-32.59431,-5.229133,-146.8835,-0.3781738,-0.9367676,0.2414551,0.479313,-0.607397,-0.4124198,-64.37489,21.26116,-76.71429,-64.40703,21.35171,-76.55782,LB
0.04394531,-0.2585449,-0.4040527,0.4434273,-0.6119237,0.3048244,-32.18781,-5.964741,-147.0667,-32.46157,-5.234346,-147.0141,-0.375,-0.9399414,0.2456055,0.479313,-0.7142672,-0.1834122,-64.37041,21.24757,-76.70987,-64.50287,21.10664,-76.35826,LB
0.03857422,-0.2612305,-0.3991699,0.5350306,2.975863,0.182687,-32.19832,-5.897075,-147.0531,-33.08021,-4.62286,-146.5141,-0.3752441,-0.9355469,0.2441406,0.7083206,-0.5921298,-0.4734885,-64.36184,21.23872,-76.70986,-64.4281,21.21117,-76.38493,LB
0.04248047,-0.2583008,-0.3908691,0.5655649,-1.085206,0.3048244,-32.21211,-5.898705,-147.0314,-33.30365,-5.180965,-146.1892,-0.3632813,-0.9309082,0.237793,0.0,-0.07304579,-0.2750153,-64.3745,21.22711,-76.712,-64.99506,20.71176,-76.61462,LB
0.04003906,-0.2597656,-0.3996582,0.1838853,-0.5661222,0.8391757,-32.223,-5.885083,-147.0118,-32.89204,-4.801527,-146.6693,-0.3632813,-0.9311523,0.2404785,0.7999237,0.171229,-0.168145,-64.37378,21.21896,-76.70967,-64.92622,20.69393,-76.47194,LB
0.04516602,-0.2661133,-0.3928223,0.0,-0.291313,0.9765801,-32.25736,-5.880418,-146.9673,-33.94077,-5.4377,-145.506,-0.3710938,-0.9377441,0.2473145,0.7083206,0.2017633,0.03032825,-64.36721,21.21633,-76.69946,-64.56609,20.93917,-76.22128,LB
0.04272461,-0.2597656,-0.4033203,-0.4115343,0.1361679,0.0,-32.27104,-5.862593,-146.9653,-32.63892,-5.089267,-146.8667,-0.3818359,-0.9353027,0.2443848,0.8151909,0.2933664,0.2135344,-64.35069,21.22739,-76.69035,-64.1403,21.55341,-76.40099,LB
0.04711914,-0.2592773,-0.3937988,-0.4420686,0.04456491,0.0,-32.29516,-5.85887,-146.9502,-33.17414,-5.707008,-146.2102,-0.3908691,-0.9335938,0.2409668,0.738855,0.4002366,-0.2444809,-64.32974,21.24967,-76.69206,-63.81028,22.06695,-76.60819,LB
0.04492188,-0.2573242,-0.4094238,-0.3199313,-0.5813893,0.9155113,-32.29387,-5.856385,-146.947,-31.99524,-5.307293,-147.4618,-0.3762207,-0.9255371,0.244873,0.6014504,0.171229,-0.1986794,-64.31683,21.25626,-76.68571,-64.12624,21.45323,-76.22837,LB
0.04711914,-0.2536621,-0.4020996,-0.07565641,-0.7798626,0.0,-32.29049,-5.863923,-146.9543,-32.06948,-5.660077,-147.3143,-0.3840332,-0.9267578,0.2453613,0.9525955,0.1101603,-0.1834122,-64.29279,21.26935,-76.67982,-63.81483,21.83016,-76.25615,LB
0.04394531,-0.255127,-0.3981934,0.03121376,-0.7493282,0.610168,-32.29407,-5.863104,-146.9463,-32.49081,-5.308937,-146.9702,-0.3837891,-0.9284668,0.2473145,1.135802,0.5529084,0.07612977,-64.26764,21.28702,-76.66859,-63.81439,21.77327,-76.17064,LB
0.04296875,-0.25,-0.3996582,0.3365571,-0.9783359,0.5643663,-32.2805,-5.865344,-146.9504,-31.87955,-5.208094,-147.5964,-0.3779297,-0.9223633,0.2426758,1.303741,0.9193206,0.04559542,-64.24258,21.30802,-76.66084,-64.03672,21.6162,-76.31708,LB
0.04101563,-0.2590332,-0.4086914,0.1533511,0.0,0.5490992,-32.27739,-5.844941,-146.9496,-32.23731,-4.845174,-147.3114,-0.3691406,-0.9233398,0.2436523,0.7083206,0.9803894,0.2593359,-64.2354,21.31895,-76.64846,-64.40445,21.13432,-76.23231,LB
0.04321289,-0.2553711,-0.3942871,0.01594663,-0.810397,0.4727633,-32.28711,-5.844276,-146.9381,-32.77436,-5.25578,-146.6997,-0.3620605,-0.9243164,0.2399902,0.1434351,0.0,0.01506107,-64.2453,21.30784,-76.64346,-64.82912,20.76348,-76.40919,LB
0.04223633,-0.251709,-0.4030762,0.2449541,-0.001236677,0.8849771,-32.27463,-5.82899,-146.9395,-31.84316,-5.079025,-147.658,-0.3757324,-0.9338379,0.2382813,-0.6351909,0.9803894,-0.3513512,-64.26023,21.32208,-76.6494,-64.52495,21.29889,-76.68205,LB
0.04736328,-0.2563477,-0.392334,0.5197632,0.07509923,0.9613131,-32.28091,-5.826722,-146.9145,-32.97073,-5.770807,-146.3979,-0.3762207,-0.9338379,0.2399902,-0.6046565,0.9193206,-0.7482977,-64.27309,21.33546,-76.65926,-64.45852,21.31555,-76.59232,LB
0.0456543,-0.2563477,-0.4040527,1.13045,0.2735725,0.0,-32.26324,-5.815167,-146.9202,-32.22854,-5.450041,-147.2013,-0.3791504,-0.9328613,0.2438965,-0.4825191,0.9193206,-1.22158,-64.27886,21.35158,-76.67173,-64.20701,21.46578,-76.38467,LB
0.04711914,-0.2602539,-0.4057617,1.374725,0.2583054,0.0,-32.2478,-5.806721,-146.9199,-32.5018,-5.582749,-146.9027,-0.3833008,-0.9367676,0.2368164,-0.08557248,0.4460382,-1.084176,-64.28082,21.36386,-76.69086,-64.31385,21.63793,-76.83122,LB
0.03759766,-0.2583008,-0.4023438,1.557931,-0.2455115,0.4574962,-32.23169,-5.784121,-146.9153,-32.58693,-4.496273,-147.0263,-0.3874512,-0.9321289,0.2324219,-0.3756489,0.3544351,-1.175779,-64.28352,21.3811,-76.715,-64.13984,21.96491,-77.03381,LB
0.04931641,-0.260498,-0.4055176,1.420527,-0.1081069,0.1674199,-32.21806,-5.786766,-146.9111,-32.52507,-5.84221,-146.8236,-0.3813477,-0.9333496,0.2365723,-0.6351909,0.3086336,-1.053641,-64.29299,21.38983,-76.73106,-64.32109,21.60631,-76.79518,LB
0.04956055,-0.2631836,-0.4086914,0.9777786,-0.1081069,-0.09212208,-32.21113,-5.78905,-146.9095,-32.5901,-5.821488,-146.7638,-0.3823242,-0.9384766,0.2399902,-0.6351909,-0.1188473,-0.855168,-64.30272,21.39106,-76.74253,-64.31252,21.53852,-76.6764,LB
0.05297852,-0.2609863,-0.404541,0.6419008,-0.4592519,-0.168458,-32.20959,-5.805618,-146.9067,-32.60623,-6.279894,-146.6431,-0.3806152,-0.9433594,0.2407227,-0.3756489,-0.347855,-0.3818855,-64.31181,21.38517,-76.74702,-64.48066,21.35255,-76.68639,LB
0.05273438,-0.2590332,-0.3935547,0.1838853,-0.8867329,0.0,-32.22507,-5.830267,-146.8908,-33.11875,-6.386344,-146.1112,-0.3757324,-0.9401855,0.2214355,-0.1161069,-0.5921298,-0.2139466,-64.32957,21.37388,-76.7685,-65.11457,21.25569,-77.66336,LB
0.04467773,-0.2590332,-0.402832,-0.1672597,-0.8867329,-0.5043359,-32.2347,-5.833287,-146.8979,-32.58311,-5.329526,-146.8746,-0.378418,-0.9360352,0.2380371,0.00603056,-0.866939,-0.04600763,-64.3323,21.36157,-76.76848,-64.47043,21.39559,-76.73388,LB
0.04199219,-0.2561035,-0.401123,-0.197794,0.0,-0.3211298,-32.24122,-5.817471,-146.9066,-32.41539,-5.042484,-147.0975,-0.3752441,-0.9284668,0.2438965,-0.1466411,-0.6837328,-0.2597481,-64.3331,21.35129,-76.76318,-64.26489,21.35017,-76.31217,LB
0.05834961,-0.2563477,-0.4067383,0.06174803,0.0,-0.7333436,-32.23418,-5.839518,-146.9275,-31.9586,-6.919818,-147.1225,-0.3786621,-0.9375,0.2419434,-0.1466411,-0.5157939,-0.2597481,-64.33756,21.33984,-76.76462,-64.39095,21.3601,-76.54267,LB
0.04394531,-0.2563477,-0.4025879,0.2907557,0.0,-0.5043359,-32.23189,-5.827942,-146.9391,-32.33339,-5.260705,-147.136,-0.3891602,-0.9370117,0.2380371,-0.1771755,-0.6531985,-0.4582213,-64.33423,21.34197,-76.772,-64.04069,21.92649,-76.79668,LB
0.04833984,-0.2558594,-0.4047852,0.5960991,-0.9478015,-0.5959387,-32.22134,-5.839672,-146.9534,-32.1135,-5.764251,-147.2481,-0.3693848,-0.9355469,0.2353516,-0.08557248,-0.439458,-0.3208168,-64.34697,21.32814,-76.77757,-64.91265,20.95198,-76.83044,LB
0.04248047,-0.2585449,-0.4067383,0.5655649,0.0,-0.3211298,-32.21463,-5.823622,-146.9633,-32.30171,-5.037136,-147.2113,-0.3754883,-0.9367676,0.25,0.08236647,-0.4241909,-0.2597481,-64.34456,21.31875,-76.76757,-64.28687,21.17037,-76.08698,LB
0.04785156,-0.2631836,-0.4084473,0.4586947,-0.9630688,-0.2753282,-32.21596,-5.833795,-146.9637,-32.61821,-5.624416,-146.7786,-0.3779297,-0.9291992,0.2524414,0.0976336,-0.5157939,-0.4429542,-64.33495,21.31339,-76.75622,-63.93601,21.42997,-75.87443,LB
0.03588867,-0.2568359,-0.4025879,0.6419008,-0.810397,-0.06158781,-32.21088,-5.81499,-146.9695,-32.43361,-4.297909,-147.212,-0.3776855,-0.925293,0.2412109,0.06709921,-0.2104504,-0.3055496,-64.33043,21.31509,-76.7542,-64.15808,21.55298,-76.43092,LB
0.04418945,-0.2575684,-0.404541,0.6266336,-0.5813893,0.1674199,-32.20406,-5.812527,-146.9704,-32.33086,-5.264505,-147.1377,-0.3728027,-0.9284668,0.2380371,0.1434351,-0.2867863,-0.3055496,-64.33225,21.30964,-76.75596,-64.52715,21.25335,-76.61731,LB
0.04199219,-0.2565918,-0.4033203,0.5655649,-0.7187939,0.182687,-32.19816,-5.807248,-146.9722,-32.32473,-5.020285,-147.1917,-0.387207,-0.9350586,0.2453613,0.219771,-0.1646488,-0.1070763,-64.32006,21.31758,-76.74986,-63.88416,21.82804,-76.37228,LB
0.04394531,-0.2543945,-0.4055176,0.7945726,-0.001236677,0.2742901,-32.18232,-5.796021,-146.9793,-31.95103,-5.245045,-147.5182,-0.3747559,-0.9328613,0.2380371,0.1434351,-0.08831299,-0.336084,-64.32268,21.3154,-76.75306,-64.54948,21.26871,-76.679,LB
0.04150391,-0.2614746,-0.4052734,0.6571679,-0.06230533,0.04528236,-32.18288,-5.779384,-146.976,-32.69331,-4.918398,-146.8451,-0.3706055,-0.9377441,0.2426758,0.1892367,-0.08831299,-0.2902825,-64.32772,21.30653,-76.75163,-64.71397,20.93713,-76.46781,LB
0.03125,-0.2644043,-0.3989258,0.6419008,-0.1844428,0.3658931,-32.19827,-5.741406,-146.9563,-33.45539,-3.735856,-146.2807,-0.3803711,-0.9294434,0.244873,0.2655725,-0.08831299,-0.03074045,-64.31794,21.31083,-76.743,-64.04697,21.59078,-76.29678,LB
0.04785156,-0.2575684,-0.3999023,0.229687,-0.2302443,0.4269619,-32.20314,-5.744627,-146.9468,-32.59957,-5.74451,-146.7712,-0.371582,-0.9311523,0.2460938,-0.1924427,0.07962596,-0.2902825,-64.32267,21.30765,-76.7363,-64.42243,21.09708,-76.20849,LB
0.04223633,-0.2583008,-0.4052734,0.2144198,-0.3523817,0.3811603,-32.20335,-5.735364,-146.9451,-32.37127,-5.022507,-147.1451,-0.3725586,-0.932373,0.246582,-0.3603816,0.339168,-0.2139466,-64.32947,21.30891,-76.72876,-64.39746,21.12154,-76.20197,LB
0.04443359,-0.2651367,-0.4003906,0.1075497,0.04456491,0.4727633,-32.22473,-5.72573,-146.9217,-33.3511,-5.2864,-146.1214,-0.3703613,-0.9375,0.2365723,-0.2687786,-0.01197708,-0.6261602,-64.34451,21.30174,-76.73923,-64.88432,20.95907,-76.79209,LB
0.04516602,-0.2563477,-0.4123535,0.4434273,0.2583054,0.5032978,-32.20801,-5.713707,-146.9306,-31.71497,-5.314483,-147.738,-0.3806152,-0.9313965,0.2387695,0.02129769,-0.3783893,-0.6261602,-64.34225,21.30206,-76.74666,-64.24715,21.59612,-76.65027,LB
0.04321289,-0.2641602,-0.4067383,0.672435,-0.031771,0.1521528,-32.21107,-5.701733,-146.9228,-32.85539,-5.091627,-146.6514,-0.388916,-0.9326172,0.2514648,0.5709161,-0.02724427,-0.5650916,-64.31884,21.31425,-76.74053,-63.59134,21.9315,-76.02516,LB
0.04223633,-0.2626953,-0.4030762,0.1838853,-0.123374,0.4880307,-32.22316,-5.689851,-146.9086,-32.9504,-5.016963,-146.5714,-0.3723145,-0.9335938,0.2446289,0.6167176,-0.08831299,-0.06127481,-64.3132,21.30857,-76.73303,-64.49057,21.09529,-76.32081,LB
0.04174805,-0.2585449,-0.3984375,-0.381,0.0,0.1979542,-32.24066,-5.676517,-146.9014,-32.83674,-5.023155,-146.683,-0.3681641,-0.9306641,0.2426758,0.6167176,-0.2257175,0.1982672,-64.31144,21.29824,-76.72305,-64.64837,20.9465,-76.37041,LB
0.04052734,-0.253418,-0.4016113,-0.2435954,-0.5813893,0.1216183,-32.24185,-5.669092,-146.91,-32.1212,-4.877919,-147.4205,-0.3759766,-0.9228516,0.2473145,0.479313,-0.2104504,0.2288015,-64.29825,21.29879,-76.70646,-64.00397,21.4807,-76.06178,LB
0.03759766,-0.2575684,-0.4055176,0.03121376,-0.2760458,0.06054974,-32.24277,-5.649268,-146.9169,-32.31118,-4.475014,-147.304,-0.3713379,-0.9230957,0.2419434,0.4640458,0.09489316,0.2440687,-64.29253,21.29946,-76.6954,-64.35311,21.26253,-76.33306,LB
0.03857422,-0.2585449,-0.392334,-0.09092379,-0.1081069,-0.04632068,-32.26442,-5.631738,-146.9058,-33.25805,-4.693269,-146.325,-0.3649902,-0.925293,0.248291,0.08236647,-0.04251146,-0.1986794,-64.29537,21.28997,-76.6841,-64.49524,20.8559,-75.98428,LB
0.04223633,-0.2580566,-0.402832,-0.06038928,0.1819695,0.0147481,-32.27005,-5.617336,-146.9077,-32.50177,-5.045367,-147.0112,-0.3691406,-0.911377,0.2458496,-0.02450383,-0.2867863,-0.3666183,-64.29083,21.28712,-76.67506,-64.05039,21.35836,-75.96236,LB
0.04321289,-0.2580566,-0.4067383,0.5044961,0.1972366,-0.2753282,-32.2622,-5.604615,-146.9185,-32.24796,-5.126294,-147.2473,-0.3674316,-0.9311523,0.2480469,-0.5893893,-0.179916,-0.4734885,-64.3045,21.27617,-76.67017,-64.54092,20.87193,-76.08284,LB
0.04101563,-0.2583008,-0.4018555,0.6266336,0.3957099,-0.06158781,-32.25968,-5.584852,-146.9199,-32.59681,-4.907311,-146.943,-0.3752441,-0.9335938,0.2573242,-0.7115266,0.1559618,-0.5650916,-64.30922,21.27655,-76.65817,-64.01712,21.18064,-75.65449,LB
0.04931641,-0.2602539,-0.3930664,0.7335038,0.6094504,-0.2447939,-32.26977,-5.58364,-146.9056,-33.30336,-5.972177,-146.0242,-0.3723145,-0.9294434,0.2468262,-0.5893893,0.1864962,-0.6719618,-64.31831,21.27705,-76.65792,-64.33057,21.16433,-76.15155,LB
0.05981445,-0.2583008,-0.3962402,0.672435,0.319374,-0.168458,-32.27124,-5.611731,-146.8941,-32.80487,-7.207285,-146.2124,-0.3764648,-0.9345703,0.2460938,-0.558855,0.09489316,-0.504023,-64.32563,21.27847,-76.65717,-64.3007,21.28302,-76.2742,LB
0.04467773,-0.2546387,-0.4035645,0.748771,0.4262443,0.0147481,-32.25669,-5.600208,-146.9031,-32.09357,-5.348884,-147.3559,-0.3693848,-0.9289551,0.2416992,-0.5130534,0.07962596,-0.5803587,-64.33833,21.27503,-76.66072,-64.58323,21.04785,-76.40833,LB
0.04321289,-0.2597656,-0.4086914,0.7335038,0.09036642,-0.1379237,-32.2467,-5.588861,-146.9112,-32.29616,-5.099286,-147.2048,-0.3703613,-0.9360352,0.2441406,-0.4061831,0.06435877,-0.595626,-64.3504,21.26947,-76.6636,-64.64357,20.94993,-76.36731,LB
0.0456543,-0.2607422,-0.3979492,0.7029693,0.1667023,-0.09212208,-32.25267,-5.58426,-146.9017,-33.06191,-5.481334,-146.3688,-0.3730469,-0.9484863,0.2409668,-0.3298473,0.1254275,-0.6719618,-64.36645,21.26326,-76.67417,-64.90984,20.86674,-76.6981,LB
0.04589844,-0.2609863,-0.3937988,0.8098397,-0.001236677,-0.04632068,-32.26284,-5.583574,-146.8856,-33.35627,-5.549079,-146.0629,-0.364502,-0.9306641,0.2434082,-0.2687786,0.2475649,-0.9009695,-64.3787,21.25668,-76.68019,-64.78159,20.75233,-76.31316,LB
0.04516602,-0.2626953,-0.4038086,0.6266336,-0.291313,0.5185649,-32.26603,-5.583309,-146.8717,-32.88318,-5.356203,-146.5716,-0.373291,-0.9333496,0.2341309,-0.3145801,0.3086336,-0.7330306,-64.3903,21.26014,-76.69514,-64.72773,21.20269,-76.88884,LB
0.04833984,-0.2612305,-0.40625,0.3823588,0.1209008,0.4880307,-32.26628,-5.584173,-146.8634,-32.55922,-5.715376,-146.8175,-0.3696289,-0.939209,0.2375488,-0.5283206,0.171229,-0.7330306,-64.40884,21.25513,-76.70714,-64.92889,20.8838,-76.75623,LB
0.04370117,-0.2578125,-0.3930664,0.3976259,0.1209008,0.3811603,-32.2771,-5.576939,-146.8479,-33.09969,-5.311338,-146.3659,-0.3745117,-0.9375,0.2409668,-0.5893893,-0.2104504,-0.9162367,-64.42116,21.24997,-76.71796,-64.59112,21.15161,-76.57523,LB
0.04516602,-0.2626953,-0.4023438,0.5960991,-0.3676488,0.3200917,-32.28292,-5.577841,-146.836,-32.97701,-5.369803,-146.4758,-0.3718262,-0.9348145,0.2380371,-0.009236574,-0.1493817,-0.7940992,-64.42725,21.2445,-76.72827,-64.71961,21.07936,-76.68827,LB
0.04443359,-0.2607422,-0.4033203,0.6419008,-0.3676488,0.4269619,-32.28232,-5.577406,-146.8279,-32.72485,-5.285903,-146.7428,-0.371582,-0.9365234,0.2424316,0.05183208,-0.1035802,-0.5498245,-64.43096,21.23833,-76.73121,-64.65096,21.01211,-76.47091,LB
0.04736328,-0.255127,-0.3999023,0.5655649,-0.4745191,0.3964274,-32.27548,-5.586873,-146.8259,-32.35611,-5.701969,-147.0215,-0.3723145,-0.9404297,0.2441406,-0.2687786,-0.05777865,-0.6719618,-64.43961,21.23205,-76.73506,-64.66599,20.96663,-76.42966,LB
0.04296875,-0.2624512,-0.3959961,0.3670917,-0.1539084,0.6254351,-32.29219,-5.580761,-146.8025,-33.38067,-5.168157,-146.1153,-0.3596191,-0.9345703,0.2478027,0.06709921,0.03382444,-0.6261602,-64.44888,21.21596,-76.73158,-64.9531,20.40236,-76.10065,LB
0.04467773,-0.2609863,-0.4152832,0.2602212,-0.2455115,0.610168,-32.28276,-5.576608,-146.8077,-31.99913,-5.204662,-147.4786,-0.3720703,-0.9272461,0.244873,0.05183208,0.06435877,-0.7330306,-64.44603,21.21661,-76.73158,-64.34181,21.20442,-76.22878,LB
0.04223633,-0.2590332,-0.4013672,0.32129,-0.1081069,0.1674199,-32.28625,-5.56772,-146.8054,-32.6937,-5.052763,-146.8193,-0.3659668,-0.9294434,0.2419434,0.06709921,0.01855725,-0.7024961,-64.45076,21.20973,-76.73495,-64.73194,20.85933,-76.38458,LB
0.04711914,-0.2600098,-0.4042969,0.1991527,-0.2302443,0.4574962,-32.28901,-5.57172,-146.7992,-32.57012,-5.598496,-146.8317,-0.3725586,-0.9318848,0.2460938,-0.009236574,0.04909158,-0.5803587,-64.44987,21.20893,-76.73323,-64.39923,21.13346,-76.22227,LB
0.04492188,-0.2634277,-0.4160156,0.1838853,-0.1844428,0.4574962,-32.28419,-5.56743,-146.8018,-32.19272,-5.212632,-147.285,-0.3671875,-0.9338379,0.2321777,-0.3451145,0.2322977,-0.7330306,-64.46731,21.20612,-76.7495,-65.0515,20.88613,-76.97198,LB
0.04492188,-0.2583008,-0.4052734,0.3976259,-0.1386412,0.5338321,-32.28012,-5.564785,-146.8004,-32.35302,-5.340065,-147.1005,-0.3679199,-0.9338379,0.2390137,-0.1924427,0.1101603,-0.6566947,-64.47729,21.20133,-76.75563,-64.83472,20.89102,-76.6055,LB
0.04467773,-0.2661133,-0.4118652,0.5197632,0.09036642,0.091084,-32.28117,-5.556281,-146.7984,-32.71462,-5.206005,-146.7688,-0.3757324,-0.9350586,0.2407227,-0.2077099,0.06435877,-0.9620381,-64.48057,21.2035,-76.76596,-64.48846,21.26296,-76.5651,LB
0.03881836,-0.2568359,-0.4084473,0.4281602,0.01403052,0.2284887,-32.27017,-5.536946,-146.81,-32.04614,-4.599807,-147.5456,-0.369873,-0.9362793,0.239502,-0.1771755,0.4002366,-0.9162367,-64.48949,21.20418,-76.77646,-64.79677,20.94297,-76.61752,LB
0.05053711,-0.2661133,-0.3911133,0.5655649,-0.001236677,0.2742901,-32.29667,-5.548181,-146.7757,-34.01107,-6.097792,-145.2951,-0.3742676,-0.9348145,0.2402344,-0.1466411,0.2933664,-0.6261602,-64.493,21.2083,-76.78177,-64.5574,21.1946,-76.58146,LB
0.05029297,-0.2624512,-0.4099121,0.2602212,0.07509923,0.3964274,-32.29588,-5.554173,-146.7727,-32.43582,-5.899307,-146.8992,-0.3740234,-0.939209,0.2458496,-0.1619084,0.2322977,-0.4887558,-64.49575,21.2087,-76.77947,-64.51944,21.0693,-76.33167,LB
0.06201172,-0.2587891,-0.4020996,0.3518243,-0.2149771,0.2437558,-32.29398,-5.594031,-146.7637,-32.45941,-7.389043,-146.5029,-0.3728027,-0.9362793,0.2478027,0.00603056,0.171229,-0.5192901,-64.49468,21.2081,-76.77522,-64.44693,21.05277,-76.18549,LB
0.05981445,-0.2539063,-0.4008789,0.1991527,-0.5050534,0.259023,-32.28647,-5.633262,-146.7636,-32.06464,-7.18434,-146.9475,-0.3796387,-0.9345703,0.2404785,-0.009236574,0.2322977,-0.3055496,-64.49131,21.21685,-76.77604,-64.31911,21.47479,-76.59119,LB
0.046875,-0.2641602,-0.4060059,0.2144198,-0.3065802,0.3811603,-32.29511,-5.635654,-146.7536,-32.87612,-5.527514,-146.5435,-0.3728027,-0.9365234,0.2438965,0.1892367,0.1864962,-0.168145,-64.4899,21.21661,-76.77096,-64.55994,21.06777,-76.39805,LB
0.04931641,-0.260498,-0.4082031,0.2602212,-0.550855,0.182687,-32.29251,-5.64734,-146.7558,-32.35634,-5.815111,-146.9965,-0.371582,-0.9401855,0.2463379,0.3724428,-0.05777865,-0.2444809,-64.48724,21.20988,-76.76524,-64.63049,20.9227,-76.30563,LB
0.0456543,-0.2602539,-0.4008789,-0.06038928,-0.2760458,0.3658931,-32.30401,-5.64758,-146.7475,-32.82358,-5.456402,-146.6102,-0.3703613,-0.9404297,0.236084,0.479313,-0.2104504,-0.4429542,-64.48977,21.2007,-76.77351,-64.96609,20.90532,-76.8527,LB
0.04467773,-0.2561035,-0.4018555,-0.07565641,-0.4592519,0.2895572,-32.30597,-5.648054,-146.7505,-32.35017,-5.356236,-147.1001,-0.3659668,-0.9328613,0.2446289,0.3266413,-0.1646488,-0.2292137,-64.49026,21.19004,-76.76681,-64.7383,20.78049,-76.2812,LB
0.05664063,-0.253418,-0.4035645,0.1228168,-0.6882596,-0.0310533,-32.29556,-5.680778,-146.7608,-31.87559,-6.778346,-147.241,-0.3725586,-0.9372559,0.2468262,0.3419085,-0.2104504,-0.4734885,-64.48557,21.18367,-76.7634,-64.50719,21.02642,-76.24858,LB
0.06201172,-0.2592773,-0.3955078,0.1380839,-0.7645955,0.03001523,-32.30619,-5.727808,-146.7455,-32.92884,-7.470335,-146.0183,-0.3720703,-0.9355469,0.2424316,0.4487787,-0.2257175,-0.336084,-64.48141,21.1778,-76.76231,-64.60738,21.05609,-76.46149,LB
0.04492188,-0.2597656,-0.3996582,0.3060229,-0.7187939,0.1216183,-32.31034,-5.73713,-146.7397,-32.8585,-5.383824,-146.5905,-0.3693848,-0.9396973,0.2375488,0.3724428,-0.05777865,-0.2139466,-64.4824,21.17018,-76.76711,-64.9506,20.86188,-76.76085,LB
0.03881836,-0.2629395,-0.4047852,0.2144198,-0.6882596,-0.0005190372,-32.31873,-5.724463,-146.7391,-32.88717,-4.597897,-146.7104,-0.3718262,-0.9348145,0.2490234,0.3266413,-0.1035802,-0.2597481,-64.47633,21.16574,-76.75753,-64.41872,21.02429,-76.09723,LB
0.04638672,-0.2634277,-0.3981934,0.3823588,-0.4439847,0.3658931,-32.33292,-5.727486,-146.7211,-33.30946,-5.54924,-146.1093,-0.3728027,-0.9370117,0.2456055,0.2503054,-0.1646488,-0.2902825,-64.47362,21.161,-76.7529,-64.52477,21.04983,-76.31224,LB
0.04589844,-0.2573242,-0.40625,0.3670917,-0.5355878,0.4574962,-32.32496,-5.729326,-146.7253,-32.18668,-5.452072,-147.2423,-0.371582,-0.9331055,0.2456055,0.1892367,-0.179916,-0.4734885,-64.47121,21.15655,-76.74952,-64.48263,21.0619,-76.25874,LB
0.04101563,-0.2585449,-0.3945313,0.32129,-0.7035267,0.04528236,-32.33567,-5.724472,-146.7188,-33.09666,-4.969533,-146.4351,-0.3659668,-0.9230957,0.2453613,0.4945802,-0.05777865,-0.3208168,-64.4642,21.15186,-76.74166,-64.48421,20.96443,-76.12065,LB
0.04492188,-0.2590332,-0.4038086,0.5502977,-0.7493282,0.1368854,-32.33126,-5.727984,-146.7211,-32.51924,-5.349356,-146.9339,-0.3613281,-0.9248047,0.236084,0.647252,0.01855725,-0.1986794,-64.46501,21.14379,-76.74225,-64.98096,20.73501,-76.62483,LB
0.04345703,-0.2670898,-0.3984375,0.229687,-0.8256641,0.2895572,-32.35484,-5.729095,-146.6987,-33.67913,-5.176669,-145.8173,-0.3691406,-0.9389648,0.2397461,0.7541222,0.06435877,-0.06127481,-64.4623,21.13891,-76.74096,-64.88403,20.85259,-76.63293,LB
0.04541016,-0.2634277,-0.4089355,0.3670917,-0.6882596,0.3048244,-32.35493,-5.731296,-146.6968,-32.62915,-5.333236,-146.8282,-0.3684082,-0.9370117,0.2443848,0.6777863,0.171229,-0.1223435,-64.45792,21.13524,-76.73508,-64.74139,20.82915,-76.35668,LB
0.04052734,-0.2578125,-0.4018555,0.1838853,-0.642458,0.6712368,-32.35614,-5.723151,-146.693,-32.5508,-4.851838,-146.9989,-0.3686523,-0.9350586,0.2426758,0.8609924,0.2322977,-0.1376107,-64.45074,21.1337,-76.73092,-64.73222,20.88752,-76.42612,LB
0.0402832,-0.2624512,-0.3999023,0.03121376,-0.5813893,0.5032978,-32.37147,-5.712942,-146.6806,-33.14388,-4.813851,-146.4169,-0.3684082,-0.9370117,0.2497559,0.5098474,0.262832,0.03032825,-64.44657,21.13067,-76.71725,-64.59195,20.80226,-76.06839,LB
0.04467773,-0.2587891,-0.4006348,0.01594663,-0.9478015,0.3048244,-32.37778,-5.719646,-146.6776,-32.69917,-5.351514,-146.755,-0.3706055,-0.9372559,0.2446289,0.6625191,0.6597786,0.1219313,-64.44087,21.1365,-76.70825,-64.64886,20.93676,-76.35703,LB
0.04321289,-0.2583008,-0.409668,-0.2130611,-0.6271908,0.2742901,-32.37514,-5.71645,-146.6882,-32.0891,-5.09885,-147.4102,-0.3664551,-0.9289551,0.2470703,0.7846565,0.6597786,0.2440687,-64.43165,21.14083,-76.69257,-64.5565,20.86823,-76.10345,LB
0.04125977,-0.2663574,-0.4023438,0.0922823,-0.4439847,0.1063511,-32.39363,-5.706396,-146.6765,-33.36734,-4.887399,-146.1815,-0.3706055,-0.9316406,0.239502,0.4335115,0.873519,0.4272748,-64.42976,21.15226,-76.68375,-64.65605,21.07025,-76.56553,LB
0.04931641,-0.2631836,-0.40625,0.0006792545,-0.1997099,0.5490992,-32.40066,-5.711551,-146.6671,-32.74569,-5.817382,-146.6106,-0.3693848,-0.9338379,0.2402344,0.0,0.7666489,0.3967404,-64.43596,21.1597,-76.67517,-64.73962,20.96095,-76.54653,LB
0.04321289,-0.2578125,-0.3955078,-0.06038928,-0.06230533,0.4727633,-32.4124,-5.70283,-146.6575,-32.94306,-5.229722,-146.5375,-0.3632813,-0.9365234,0.236084,0.6625191,0.6750459,0.3509389,-64.44097,21.15869,-76.672,-65.17383,20.61313,-76.7742,LB
0.04296875,-0.2575684,-0.3959961,-0.3199313,-0.3981832,0.5032978,-32.42661,-5.698573,-146.6489,-32.88816,-5.197317,-146.5983,-0.3664551,-0.9309082,0.2431641,0.2655725,0.858252,0.2746031,-64.4425,21.16514,-76.66129,-64.71233,20.85053,-76.33875,LB
0.046875,-0.2575684,-0.3977051,-0.1214581,0.2583054,0.5185649,-32.43472,-5.694054,-146.6417,-32.7485,-5.649818,-146.6441,-0.3737793,-0.9321289,0.2402344,0.2655725,0.003290057,0.183,-64.44028,21.16632,-76.65649,-64.51397,21.22151,-76.54702,LB
0.04125977,-0.260498,-0.394043,0.5655649,0.1667023,0.2895572,-32.44421,-5.677561,-146.6287,-33.32476,-4.991952,-146.2044,-0.3747559,-0.935791,0.2387695,0.6319848,-0.439458,-0.2597481,-64.43417,21.16069,-76.66068,-64.59948,21.20812,-76.67423,LB
0.03881836,-0.2685547,-0.4069824,0.672435,0.01403052,0.2895572,-32.45145,-5.654839,-146.618,-33.30038,-4.551754,-146.3076,-0.378418,-0.9401855,0.2514648,1.135802,-0.347855,0.1219313,-64.41295,21.15731,-76.64697,-64.20753,21.24735,-76.06521,LB
0.03759766,-0.2600098,-0.401123,0.2754886,-0.5203207,0.4880307,-32.45511,-5.639335,-146.6141,-32.83722,-4.497204,-146.7774,-0.3676758,-0.9296875,0.248291,1.303741,0.06435877,0.534145,-64.3953,21.15334,-76.62724,-64.48888,20.91142,-76.05263,LB
0.04541016,-0.2612305,-0.3996582,-0.3962674,0.0,0.4574962,-32.47187,-5.635206,-146.6038,-33.00195,-5.432932,-146.4382,-0.3701172,-0.9289551,0.2412109,0.6930535,0.262832,0.7784199,-64.38852,21.1559,-76.61201,-64.5658,21.08838,-76.43831,LB
0.03955078,-0.2561035,-0.3981934,-0.3504658,-0.6882596,0.2437558,-32.47998,-5.628127,-146.607,-32.61983,-4.775337,-146.9444,-0.369873,-0.9265137,0.2541504,0.5861833,0.4155039,0.0,-64.37525,21.16001,-76.59392,-64.15589,21.0561,-75.70745,LB
0.04223633,-0.2595215,-0.407959,-0.3504658,0.2430381,-0.09212208,-32.48167,-5.612076,-146.6201,-32.32415,-4.992318,-147.1976,-0.3706055,-0.9245605,0.2478027,0.2808397,0.7666489,0.0,-64.36903,21.17064,-76.58263,-64.25684,21.16538,-76.02957,LB
0.04077148,-0.2575684,-0.3918457,-0.06038928,0.8079236,-0.0310533,-32.49645,-5.587343,-146.6153,-33.17631,-4.969252,-146.356,-0.3725586,-0.925293,0.2485352,-0.1771755,0.690313,0.6715496,-64.36771,21.18235,-76.56129,-64.17261,21.24884,-76.0089,LB
0.04125977,-0.2575684,-0.3996582,-0.01458788,0.0,-0.5806718,-32.49998,-5.574787,-146.6289,-32.66249,-4.95956,-146.868,-0.3706055,-0.9313965,0.2526855,-0.03977096,0.4918396,0.3662061,-64.36664,21.18609,-76.54173,-64.28499,21.00786,-75.8519,LB
0.04223633,-0.2629395,-0.3942871,0.1228168,0.0,-0.4890685,-32.51913,-5.565148,-146.6228,-33.54755,-5.092823,-145.9641,-0.3713379,-0.9331055,0.2495117,-0.4367175,0.6750459,0.2440687,-64.37342,21.19288,-76.52825,-64.38453,21.02935,-76.04745,LB
0.04858398,-0.2595215,-0.4025879,0.3365571,0.0,-0.3669312,-32.51618,-5.56968,-146.6306,-32.61882,-5.791744,-146.7419,-0.3674316,-0.934082,0.2416992,-0.2535114,0.781916,0.442542,-64.38542,21.19747,-76.5204,-64.7872,20.84778,-76.46114,LB
0.0456543,-0.2570801,-0.402832,0.3670917,0.7773893,-0.4585342,-32.50841,-5.556766,-146.6453,-32.3797,-5.457259,-147.05,-0.3762207,-0.9353027,0.2526855,0.128168,0.8277176,0.5188779,-64.37891,21.20932,-76.50146,-64.14744,21.22233,-75.92887,LB
0.04418945,-0.2641602,-0.3999023,0.2449541,0.578916,-0.168458,-32.52039,-5.542477,-146.6386,-33.28751,-5.267837,-146.1882,-0.3710938,-0.9333496,0.2509766,0.1587023,0.781916,0.4272748,-64.37619,21.21672,-76.48456,-64.35961,21.00452,-75.9706,LB
0.04638672,-0.260498,-0.4001465,-0.06038928,0.4415114,0.091084,-32.52867,-5.536116,-146.635,-32.88978,-5.548946,-146.5254,-0.3771973,-0.9345703,0.2446289,0.06709921,0.7666489,0.3814733,-64.37388,21.23022,-76.47639,-64.30993,21.32819,-76.3564,LB
0.04370117,-0.2595215,-0.4013672,0.1228168,0.3499084,-0.1226563,-32.53094,-5.524734,-146.6391,-32.73269,-5.224167,-146.7473,-0.3762207,-0.935791,0.2409668,0.1892367,0.5071069,0.4120076,-64.3732,21.23852,-76.47207,-64.47882,21.27267,-76.56304,LB
0.04541016,-0.2617188,-0.4094238,0.1228168,0.4109771,0.2132213,-32.52723,-5.515377,-146.6438,-32.42946,-5.338823,-147.025,-0.373291,-0.9345703,0.2421875,0.4335115,0.430771,0.4730763,-64.37058,21.24244,-76.46552,-64.53968,21.13916,-76.46873,LB
0.03491211,-0.2590332,-0.4013672,0.2907557,0.1819695,0.1063511,-32.52719,-5.485994,-146.6479,-32.73897,-4.179991,-146.9273,-0.3674316,-0.9360352,0.2348633,0.3113741,0.7055801,0.4272748,-64.379,21.24484,-76.467,-65.02007,20.84374,-76.85351,LB
0.04467773,-0.2663574,-0.3959961,-0.1214581,0.09036642,0.2437558,-32.55347,-5.481999,-146.6257,-33.75821,-5.348252,-145.7051,-0.3662109,-0.9348145,0.2470703,0.38771,0.7513816,0.442542,-64.38023,21.24513,-76.45509,-64.70612,20.74379,-76.17483,LB
0.04321289,-0.2575684,-0.3989258,-0.2435954,0.7163206,0.442229,-32.55991,-5.465825,-146.6225,-32.6964,-5.199771,-146.7881,-0.3728027,-0.9318848,0.2380371,0.05183208,0.5376411,0.4272748,-64.38403,21.25186,-76.45287,-64.6088,21.18668,-76.65809,LB
0.0378418,-0.2556152,-0.3959961,-0.4726033,0.7163206,0.4116948,-32.57014,-5.437785,-146.6214,-32.72367,-4.590275,-146.8742,-0.3818359,-0.9355469,0.2436523,0.05183208,0.262832,0.2288015,-64.37891,21.26174,-76.44931,-64.16573,21.55237,-76.44317,LB
0.0456543,-0.2592773,-0.4067383,-0.01458788,0.5941832,0.5185649,-32.56601,-5.428433,-146.6231,-32.35331,-5.40693,-147.0866,-0.3747559,-0.9338379,0.2451172,0.5709161,0.1559618,0.1524656,-64.37056,21.26308,-76.44427,-64.38107,21.21413,-76.30939,LB
0.04736328,-0.2631836,-0.4001465,-0.1825268,0.2125039,0.442229,-32.58039,-5.429696,-146.6091,-33.15091,-5.647733,-146.2458,-0.3735352,-0.9311523,0.2514648,0.6014504,0.5529084,0.1066641,-64.35815,21.26935,-76.43239,-64.19223,21.17038,-75.92912,LB
0.04614258,-0.2644043,-0.4003906,-0.01458788,0.1056336,0.442229,-32.59431,-5.429514,-146.5941,-33.26583,-5.493098,-146.1642,-0.373291,-0.9350586,0.2458496,0.3724428,0.4918396,0.01506107,-64.35491,21.27294,-76.42908,-64.45126,21.1113,-76.27776,LB
0.03881836,-0.2597656,-0.4013672,0.3823588,-0.09283972,0.1674199,-32.59259,-5.415126,-146.5957,-32.78948,-4.641891,-146.7997,-0.3662109,-0.9348145,0.2492676,0.3113741,0.59871,0.03032825,-64.35612,21.27094,-76.42119,-64.64439,20.73273,-76.05665,LB
0.04589844,-0.267334,-0.3962402,0.1991527,0.3041069,0.6254351,-32.61441,-5.412053,-146.5668,-33.82981,-5.484952,-145.6065,-0.3696289,-0.9257813,0.2470703,0.2503054,0.7208474,0.03032825,-64.35228,21.27801,-76.41391,-64.34766,21.09463,-76.07961,LB
0.05200195,-0.2634277,-0.4130859,0.1228168,0.5331145,0.4880307,-32.60675,-5.41715,-146.5678,-32.32207,-6.058747,-146.9756,-0.3701172,-0.9291992,0.2453613,0.3266413,0.4155039,0.04559542,-64.34958,21.27981,-76.4093,-64.4571,21.06261,-76.2168,LB
0.05004883,-0.2541504,-0.3994141,0.03121376,0.3957099,0.2437558,-32.5995,-5.423686,-146.5735,-32.26711,-6.03479,-147.0354,-0.3703613,-0.9313965,0.2409668,0.1434351,0.5223741,-0.03074045,-64.35289,21.28299,-76.41121,-64.6205,21.055,-76.48225,LB
0.04296875,-0.2612305,-0.3979492,0.1838853,0.3651755,0.1979542,-32.60742,-5.413,-146.5665,-33.1304,-5.157809,-146.3656,-0.3723145,-0.9306641,0.2458496,-0.08557248,0.430771,-0.1070763,-64.35483,21.28658,-76.40895,-64.38688,21.14569,-76.21925,LB
0.04711914,-0.2597656,-0.4057617,0.1533511,0.2735725,-0.2142596,-32.60223,-5.412702,-146.5771,-32.45306,-5.585783,-146.9504,-0.371582,-0.934082,0.2519531,0.0976336,0.1559618,-0.07654199,-64.35299,21.2832,-76.40041,-64.3297,21.01067,-75.92976,LB
0.04248047,-0.2568359,-0.3979492,0.07701516,0.5178473,0.1521528,-32.60286,-5.39934,-146.5795,-32.69043,-5.125183,-146.8086,-0.3703613,-0.9394531,0.2351074,-0.1771755,0.3697023,-0.1986794,-64.36792,21.28154,-76.4132,-64.9695,20.92868,-76.89383,LB
0.04711914,-0.253418,-0.4047852,0.07701516,0.3499084,0.091084,-32.58718,-5.398906,-146.5968,-31.87568,-5.634832,-147.5116,-0.3771973,-0.9321289,0.2441406,0.1129008,0.3697023,-0.1223435,-64.3642,21.28891,-76.4138,-64.26458,21.37824,-76.35312,LB
0.05151367,-0.2629395,-0.3989258,0.1380839,0.1209008,0.350626,-32.59686,-5.412226,-146.5819,-33.17229,-6.15372,-146.1127,-0.373291,-0.932373,0.2353516,0.1434351,0.5376411,0.04559542,-64.36824,21.29535,-76.42108,-64.67193,21.21573,-76.81138,LB
0.0402832,-0.2634277,-0.3991699,-0.07565641,0.01403052,0.1979542,-32.61181,-5.400067,-146.5728,-33.28905,-4.814602,-146.2725,-0.3710938,-0.9353027,0.2412109,0.1129008,0.5223741,-0.1070763,-64.37273,21.29745,-76.42463,-64.67583,21.0164,-76.51959,LB
0.0612793,-0.2624512,-0.4025879,0.04648089,-0.06230533,0.4727633,-32.61491,-5.438314,-146.5584,-32.80125,-7.266628,-146.1999,-0.3752441,-0.9287109,0.2509766,0.1587023,0.4002366,-0.0002061129,-64.36446,21.30355,-76.41481,-64.07597,21.30858,-75.93345,LB
0.04443359,-0.2592773,-0.3969727,-0.1214581,-0.291313,0.6407022,-32.62414,-5.440905,-146.5472,-32.98692,-5.353745,-146.4692,-0.375,-0.9335938,0.239502,0.08236647,0.3849695,0.1371985,-64.36631,21.30834,-76.41669,-64.51725,21.25976,-76.60986,LB
0.04638672,-0.2585449,-0.4035645,-0.09092379,-0.4287176,0.3353589,-32.6225,-5.448951,-146.5502,-32.47523,-5.528101,-146.9406,-0.3730469,-0.9345703,0.2409668,0.1129008,0.2322977,0.04559542,-64.36899,21.30824,-76.41835,-64.58309,21.13265,-76.53327,LB
0.04516602,-0.2614746,-0.3996582,-0.1214581,-0.4439847,0.3200917,-32.6324,-5.454546,-146.5428,-33.02819,-5.402393,-146.4184,-0.3708496,-0.932373,0.2485352,0.4335115,0.5529084,0.1982672,-64.36353,21.31067,-76.40884,-64.41444,21.02317,-76.08848,LB
0.04614258,-0.2629395,-0.4072266,0.0922823,-0.3065802,0.3353589,-32.63215,-5.458415,-146.5424,-32.68333,-5.437648,-146.7531,-0.3735352,-0.9318848,0.2460938,0.5861833,0.339168,0.0,-64.35538,21.31279,-76.4052,-64.35848,21.18395,-76.22706,LB
0.04418945,-0.2609863,-0.4050293,0.1838853,-0.382916,0.1674199,-32.62821,-5.462677,-146.5445,-32.64212,-5.240008,-146.834,-0.3728027,-0.9365234,0.2333984,0.5861833,0.2017633,-0.03074045,-64.35191,21.31347,-76.41705,-64.84296,21.11938,-76.9631,LB
0.04418945,-0.2636719,-0.3994141,0.03121376,-0.642458,-0.06158781,-32.6406,-5.468373,-146.5386,-33.27061,-5.27524,-146.2035,-0.3684082,-0.9313965,0.2539063,0.2808397,-0.1341145,0.3662061,-64.34757,21.30298,-76.39883,-64.34104,20.88775,-75.77528,LB
0.03930664,-0.2629395,-0.4001465,-0.06038928,-0.810397,0.182687,-32.65233,-5.464779,-146.5331,-33.1831,-4.693069,-146.3996,-0.3654785,-0.9257813,0.2419434,0.4182443,-0.07304579,0.03032825,-64.34778,21.29394,-76.39716,-64.6651,20.90438,-76.33736,LB
0.04174805,-0.2595215,-0.3984375,0.06174803,0.0,0.03001523,-32.65702,-5.455835,-146.5337,-32.93523,-5.01756,-146.5863,-0.3703613,-0.9328613,0.2438965,0.6319848,-0.347855,0.0,-64.34241,21.28284,-76.39605,-64.57491,21.01206,-76.34188,LB
0.04345703,-0.2587891,-0.4030762,-0.2283282,-0.9478015,-0.06158781,-32.65805,-5.463401,-146.5426,-32.55156,-5.183925,-146.9349,-0.3686523,-0.9296875,0.2524414,0.5709161,-0.5463283,0.06086259,-64.33436,21.26851,-76.38396,-64.33139,20.9407,-75.83369,LB
0.04711914,-0.2573242,-0.3959961,-0.4573359,-0.7493282,0.2284887,-32.66826,-5.479103,-146.5393,-32.83266,-5.697767,-146.5505,-0.3642578,-0.932373,0.2546387,0.2808397,-0.2409847,-0.1834122,-64.33382,21.2526,-76.37354,-64.5141,20.65021,-75.72759,LB
0.04370117,-0.2629395,-0.3989258,-0.2435954,-0.5813893,0.2895572,-32.68313,-5.482589,-146.5293,-33.23278,-5.22608,-146.2507,-0.3737793,-0.9318848,0.2399902,0.3113741,-0.5615954,-0.2292137,-64.33286,21.24384,-76.38058,-64.51476,21.22748,-76.55727,LB
0.04394531,-0.2565918,-0.3955078,-0.04512215,-0.7493282,0.3658931,-32.68641,-5.490458,-146.5263,-32.81382,-5.32532,-146.6466,-0.3718262,-0.9348145,0.2409668,0.3266413,-0.2715191,-0.3971527,-64.33421,21.23627,-76.38942,-64.64015,21.06487,-76.53036,LB
0.04272461,-0.2612305,-0.401123,0.1838853,-0.8867329,0.4880307,-32.68869,-5.494823,-146.5206,-32.92647,-5.10035,-146.5792,-0.3703613,-0.935791,0.2539063,0.3266413,-0.4241909,-0.4582213,-64.33037,21.22383,-76.38473,-64.366,20.90502,-75.84045,LB
0.04663086,-0.2587891,-0.3996582,0.03121376,0.0,0.259023,-32.68941,-5.496798,-146.5195,-32.74762,-5.593568,-146.6569,-0.3730469,-0.932373,0.2514648,0.7083206,-0.439458,-0.4124198,-64.31818,21.21532,-76.38194,-64.24183,21.12162,-75.94192,LB
0.03833008,-0.2583008,-0.4003906,0.0006792545,0.0,0.5490992,-32.68977,-5.478846,-146.5188,-32.708,-4.599225,-146.8882,-0.3662109,-0.932373,0.2416992,0.8762596,-0.4241909,-0.3971527,-64.3149,21.20112,-76.38883,-64.798,20.81709,-76.43463,LB
0.03979492,-0.262207,-0.3925781,0.1991527,-0.8561985,0.5185649,-32.70513,-5.478222,-146.5,-33.60424,-4.818356,-145.9586,-0.3718262,-0.934082,0.2583008,0.906794,-0.5005267,-0.3055496,-64.29809,21.18954,-76.37737,-64.14098,20.99016,-75.5911,LB
0.03588867,-0.2624512,-0.3964844,0.3976259,-0.9325343,0.4574962,-32.71347,-5.467781,-146.4888,-33.39489,-4.31644,-146.2529,-0.3815918,-0.9279785,0.2453613,0.9525955,-0.3173206,-0.2292137,-64.278,21.195,-76.37814,-63.94703,21.6801,-76.25875,LB
0.0378418,-0.2585449,-0.4003906,0.229687,-0.8867329,0.4727633,-32.71054,-5.462253,-146.4895,-32.73562,-4.539626,-146.8711,-0.3762207,-0.9311523,0.253418,0.6625191,-0.02724427,-0.1070763,-64.26324,21.19668,-76.36891,-64.02698,21.2987,-75.8378,LB
0.0390625,-0.2590332,-0.3942871,0.3976259,-0.4287176,0.6559694,-32.71399,-5.453977,-146.478,-33.17527,-4.733355,-146.4002,-0.3657227,-0.9309082,0.2473145,0.6625191,0.4613054,-0.1528779,-64.26077,21.19535,-76.366,-64.62678,20.79154,-76.11095,LB
0.03662109,-0.2670898,-0.3979492,0.4739618,-0.0470382,0.06054974,-32.72787,-5.432978,-146.4653,-33.75645,-4.369481,-145.8845,-0.3696289,-0.9282227,0.2429199,0.1587023,0.7208474,-0.1376107,-64.26365,21.20341,-76.3674,-64.52174,21.06856,-76.33448,LB
0.04003906,-0.2624512,-0.3974609,0.2144198,0.7010534,-0.168458,-32.73625,-5.410118,-146.4636,-33.30468,-4.805202,-146.2587,-0.3664551,-0.9289551,0.2463379,-0.009236574,0.8429847,-0.04600763,-64.27005,21.20918,-76.36359,-64.57706,20.87196,-76.14305,LB
0.04492188,-0.263916,-0.4038086,-0.197794,0.3804427,0.182687,-32.74456,-5.402725,-146.4608,-33.00615,-5.320096,-146.4569,-0.3713379,-0.9301758,0.2434082,-0.574122,0.0,-0.04600763,-64.28275,21.20733,-76.36379,-64.4833,21.11698,-76.34025,LB
0.04418945,-0.2590332,-0.4123535,-0.04512215,0.3651755,0.1216183,-32.73007,-5.393362,-146.4798,-31.98915,-5.185096,-147.4924,-0.362793,-0.9338379,0.234375,-0.390916,0.262832,-0.0002061129,-64.30603,21.19973,-76.37317,-65.17871,20.64692,-76.8327,LB
0.03173828,-0.2626953,-0.404541,0.1838853,0.3499084,0.5490992,-32.73112,-5.355643,-146.4783,-32.91809,-3.764588,-146.8118,-0.3791504,-0.9313965,0.2399902,-0.222977,-0.3631221,-0.3666183,-64.30872,21.20069,-76.38264,-64.27653,21.51444,-76.57737,LB
0.05102539,-0.2597656,-0.4016113,0.672435,0.3041069,0.06054974,-32.72034,-5.365847,-146.48,-32.68628,-6.089338,-146.6084,-0.3818359,-0.9360352,0.2380371,0.4182443,-0.3020534,-0.4429542,-64.30292,21.20366,-76.39651,-64.32621,21.57116,-76.75016,LB
0.04858398,-0.2636719,-0.404541,0.5502977,-0.3981832,0.3200917,-32.71601,-5.37929,-146.475,-32.90813,-5.745324,-146.4655,-0.371582,-0.9309082,0.2438965,0.8151909,-0.5463283,-0.1376107,-64.29442,21.19381,-76.39709,-64.47717,21.11298,-76.32401,LB
0.04541016,-0.2644043,-0.4057617,0.1075497,-1.360015,0.3964274,-32.71874,-5.397495,-146.4706,-32.92636,-5.356585,-146.5287,-0.3662109,-0.9377441,0.2487793,0.7083206,-0.2104504,0.04559542,-64.29336,21.18064,-76.3909,-64.72742,20.67981,-76.11916,LB
0.04394531,-0.2575684,-0.402832,-0.2283282,-1.924901,0.4269619,-32.71655,-5.422866,-146.4756,-32.44098,-5.25127,-147.0312,-0.3725586,-0.9299316,0.2539063,0.6625191,-0.4852595,0.5799466,-64.28044,21.17251,-76.37011,-64.13479,21.13067,-75.77766,LB
0.03808594,-0.2568359,-0.411377,-0.5947404,-1.466886,0.259023,-32.70832,-5.42578,-146.4971,-31.86813,-4.49037,-147.7415,-0.3679199,-0.932373,0.2514648,0.738855,-0.3631221,0.4120076,-64.27304,21.16085,-76.35498,-64.45365,20.85646,-75.91643,LB
0.04199219,-0.262207,-0.4033203,-0.4115343,-1.039405,0.2132213,-32.71796,-5.432319,-146.4968,-32.88775,-4.988746,-146.6389,-0.3691406,-0.9331055,0.2497559,0.5861833,-0.5615954,0.0,-64.26834,21.14767,-76.34835,-64.46873,20.91446,-76.0235,LB
0.04296875,-0.2612305,-0.4001465,0.0006792545,-0.5966565,0.1216183,-32.72335,-5.43462,-146.4954,-32.98782,-5.138074,-146.511,-0.3757324,-0.927002,0.2609863,0.5098474,-0.4699924,0.01506107,-64.25065,21.14453,-76.3287,-63.73339,21.31336,-75.3764,LB
0.04003906,-0.2553711,-0.402832,0.32129,-0.291313,0.1521528,-32.70874,-5.426466,-146.5094,-32.245,-4.798552,-147.3123,-0.371582,-0.9260254,0.2585449,0.1739695,-0.4089237,-0.2139466,-64.24188,21.13785,-76.31495,-63.9487,21.13074,-75.47323,LB
0.03955078,-0.262207,-0.3989258,0.01594663,-0.0470382,-0.01578617,-32.7181,-5.413304,-146.5071,-33.18774,-4.736093,-146.3873,-0.3684082,-0.9326172,0.244873,-0.1466411,-0.2104504,-0.1223435,-64.25153,21.13041,-76.31587,-64.62374,20.91063,-76.27681,LB
0.03930664,-0.2602539,-0.3977051,0.3060229,-0.1081069,-0.1379237,-32.7207,-5.40118,-146.5091,-33.07283,-4.727613,-146.503,-0.3691406,-0.9318848,0.2453613,-0.2077099,0.003290057,-0.2750153,-64.2608,21.12706,-76.3185,-64.56216,20.96019,-76.24505,LB
0.04467773,-0.2595215,-0.3962402,0.1838853,-0.1691756,-0.1073892,-32.72473,-5.403411,-146.5083,-33.05752,-5.388405,-146.3922,-0.3723145,-0.9313965,0.2414551,-0.131374,0.04909158,-0.1834122,-64.26801,21.12831,-76.32414,-64.52497,21.15379,-76.46527,LB
0.0378418,-0.2631836,-0.3901367,0.04648089,-0.3523817,0.1216183,-32.74713,-5.392469,-146.4909,-33.87907,-4.597284,-145.7244,-0.3806152,-0.9353027,0.2509766,-0.1161069,-0.02724427,0.09139694,-64.26461,21.13448,-76.31716,-64.01307,21.45676,-76.04222,LB
0.04321289,-0.2648926,-0.4091797,0.01594663,-0.2149771,-0.01578617,-32.74742,-5.389104,-146.496,-32.77321,-5.066201,-146.7378,-0.3723145,-0.9394531,0.2492676,0.02129769,-0.1035802,0.2593359,-64.26904,21.12946,-76.30988,-64.50209,20.9596,-76.14359,LB
0.04223633,-0.2609863,-0.3918457,0.0006792545,-0.5355878,0.0147481,-32.76271,-5.391722,-146.4857,-33.51284,-5.126336,-145.9921,-0.3745117,-0.9343262,0.2492676,-0.222977,-0.5005267,-0.07654199,-64.27272,21.12293,-76.30663,-64.28901,21.17089,-76.09133,LB
0.04516602,-0.2597656,-0.4001465,-0.04512215,-0.5966565,0.1521528,-32.76463,-5.400824,-146.4862,-32.82525,-5.408292,-146.6185,-0.3666992,-0.9343262,0.2438965,0.00603056,-0.2257175,0.07612977,-64.28243,21.11304,-76.30622,-64.76279,20.79424,-76.34212,LB
0.04418945,-0.2612305,-0.4057617,-0.1214581,-0.3676488,-0.09212208,-32.76353,-5.402851,-146.4949,-32.61999,-5.231931,-146.8575,-0.3688965,-0.9326172,0.2497559,-0.1008396,-0.3173206,-0.04600763,-64.28761,21.10434,-76.30109,-64.46719,20.91115,-76.01622,LB
0.0612793,-0.2587891,-0.3950195,-0.2130611,-0.031771,0.2284887,-32.76976,-5.443131,-146.4827,-32.91847,-7.393535,-146.0497,-0.3859863,-0.925293,0.2402344,-0.4672519,-0.5615954,-0.07654199,-64.28538,21.11374,-76.30669,-63.83291,21.98707,-76.52497,LB
0.05151367,-0.2648926,-0.4013672,-0.2435954,0.3499084,0.03001523,-32.78236,-5.451066,-146.4743,-33.209,-6.114183,-146.0855,-0.3759766,-0.9321289,0.2419434,-0.7115266,-1.034878,-0.4734885,-64.29833,21.10176,-76.31728,-64.37527,21.32644,-76.46548,LB
0.04541016,-0.2607422,-0.4023438,-0.3351984,0.578916,0.07581687,-32.78692,-5.442313,-146.477,-32.78031,-5.410578,-146.6626,-0.3754883,-0.9343262,0.2382813,-0.390916,-1.248618,-0.3055496,-64.30866,21.08813,-76.32887,-64.54688,21.27678,-76.68667,LB
0.04931641,-0.2585449,-0.4060059,-0.4573359,0.2888396,0.1521528,-32.78389,-5.44622,-146.4861,-32.29921,-5.849936,-147.0454,-0.3718262,-0.9504395,0.2487793,-0.1619084,-1.202817,-0.4887558,-64.32073,21.06328,-76.33548,-64.7934,20.72989,-76.30064,LB
0.04101563,-0.2612305,-0.3989258,-0.5336719,0.05983204,0.182687,-32.79766,-5.434739,-146.4829,-33.08025,-4.916151,-146.4613,-0.3708496,-0.9399414,0.2592773,-0.1619084,-1.18755,-0.1376107,-64.32256,21.04104,-76.32297,-64.29335,20.82384,-75.60869,LB
0.0480957,-0.2587891,-0.3986816,-0.8390155,-0.1844428,0.2742901,-32.81003,-5.444315,-146.4806,-32.79934,-5.777993,-146.5661,-0.3718262,-0.932373,0.2475586,0.1587023,-1.29442,0.0,-64.3218,21.02276,-76.31943,-64.40096,21.07868,-76.14582,LB
0.03955078,-0.2558594,-0.4208984,-0.640542,-0.291313,0.3048244,-32.78691,-5.431527,-146.5145,-31.18327,-4.590755,-148.404,-0.3723145,-0.932373,0.2531738,0.1434351,-0.8058702,-0.03074045,-64.31774,21.01196,-76.31042,-64.2243,21.07491,-75.84653,LB
0.05712891,-0.2636719,-0.4001465,-0.5489388,-0.4287176,0.1063511,-32.80105,-5.464747,-146.503,-33.11736,-6.798449,-146.0111,-0.3684082,-0.934082,0.251709,0.3571756,0.0,-0.04600763,-64.31583,21.00868,-76.30338,-64.46744,20.84795,-75.92714,LB
0.04516602,-0.2624512,-0.395752,-0.197794,-0.2149771,0.182687,-32.81555,-5.467277,-146.4915,-33.38063,-5.433209,-146.0626,-0.3708496,-0.9267578,0.2521973,0.06709921,-0.866939,-0.01547329,-64.31207,20.99801,-76.29395,-64.17664,21.1124,-75.82088,LB
0.04272461,-0.2624512,-0.3984375,0.0006792545,-0.3523817,-0.1531909,-32.82368,-5.465454,-146.4896,-33.22264,-5.117127,-146.282,-0.3779297,-0.9353027,0.253418,0.06709921,-0.6684657,-0.2139466,-64.30598,20.99435,-76.28919,-64.05686,21.30627,-75.8983,LB
0.04101563,-0.263916,-0.4008789,0.2602212,-0.07757253,-0.2753282,-32.82782,-5.454975,-146.4904,-33.22177,-4.884484,-146.3266,-0.3664551,-0.9321289,0.2526855,-0.1008396,-0.5005267,-0.07654199,-64.31081,20.98268,-76.28134,-64.47368,20.77889,-75.84044,LB
0.04199219,-0.2590332,-0.4003906,0.1991527,0.07509923,-0.2753282,-32.8235,-5.445417,-146.4998,-32.75813,-5.032303,-146.7593,-0.3691406,-0.9294434,0.2570801,-0.02450383,-0.2867863,-0.2444809,-64.30843,20.97774,-76.27098,-64.1736,20.94636,-75.58349,LB
0.04296875,-0.2626953,-0.3994141,0.229687,-0.1691756,-0.1226563,-32.82729,-5.441717,-146.498,-33.18182,-5.13604,-146.3188,-0.3681641,-0.9345703,0.2409668,-0.1008396,-0.1646488,-0.09180916,-64.31951,20.97336,-76.27711,-64.78817,20.88003,-76.51002,LB
0.04833984,-0.2578125,-0.3933105,-0.06038928,-0.1844428,-0.06158781,-32.83259,-5.45297,-146.4949,-33.04795,-5.86883,-146.3,-0.3713379,-0.9331055,0.2514648,-0.2535114,0.003290057,0.04559542,-64.32345,20.97433,-76.26975,-64.33002,21.01929,-75.94255,LB
0.04052734,-0.2568359,-0.3979492,-0.197794,-0.2607787,-0.1226563,-32.83311,-5.445814,-146.5038,-32.70362,-4.890713,-146.84,-0.3764648,-0.9335938,0.2548828,-0.08557248,-0.05777865,0.01506107,-64.31902,20.97906,-76.25994,-64.03526,21.25632,-75.79124,LB
0.04223633,-0.2590332,-0.3930664,-0.1672597,-0.3676488,-0.1226563,-32.8436,-5.444842,-146.5009,-33.2342,-5.126998,-146.2686,-0.3754883,-0.9282227,0.2509766,-0.2687786,-0.179916,0.2440687,-64.31767,20.98345,-76.24973,-64.05399,21.33072,-75.92858,LB
0.03979492,-0.2592773,-0.4023438,0.0006792545,-0.2149771,0.1063511,-32.84015,-5.433948,-146.5074,-32.67158,-4.752642,-146.8971,-0.3903809,-0.9279785,0.2478027,-0.2840458,-0.179916,0.0,-64.3055,21.00369,-76.24817,-63.51405,22.11866,-76.172,LB
0.04077148,-0.2612305,-0.3952637,-0.06038928,-0.2149771,-0.1379237,-32.8512,-5.428694,-146.5049,-33.32147,-4.918434,-146.2213,-0.3774414,-0.932373,0.2392578,-0.131374,0.171229,-0.0002061129,-64.31031,21.01586,-76.25562,-64.39166,21.41082,-76.62021,LB
0.03979492,-0.2575684,-0.4016113,0.03121376,-0.2455115,0.03001523,-32.84467,-5.418847,-146.5147,-32.5465,-4.767914,-147.0186,-0.3745117,-0.9350586,0.2485352,0.06709921,0.4002366,0.0,-64.30972,21.02424,-76.2533,-64.32673,21.16054,-76.13962,LB
0.04248047,-0.2609863,-0.3991699,0.1686182,-0.291313,0.1979542,-32.84574,-5.416839,-146.5109,-33.02996,-5.090071,-146.4784,-0.3762207,-0.9291992,0.2529297,0.0976336,0.2475649,-0.03074045,-64.30186,21.03443,-76.24549,-63.99315,21.33921,-75.83949,LB
0.03515625,-0.2583008,-0.4003906,0.1686182,-0.09283972,0.1979542,-32.84105,-5.394173,-146.5166,-32.7268,-4.219835,-146.9331,-0.3742676,-0.9355469,0.2636719,-0.1008396,0.3086336,-0.0002061129,-64.2957,21.03916,-76.22729,-63.92469,21.05928,-75.33595,LB
0.04394531,-0.2575684,-0.404541,0.2754886,0.1056336,-0.1073892,-32.82682,-5.389449,-146.5307,-32.33254,-5.235581,-147.1418,-0.3881836,-0.935791,0.2458496,-0.08557248,0.262832,-0.0002061129,-64.28801,21.05945,-76.22994,-63.84828,21.86085,-76.35979,LB
0.0390625,-0.2629395,-0.4030762,0.1686182,-0.06230533,0.259023,-32.82755,-5.375445,-146.528,-32.99526,-4.640399,-146.5955,-0.3720703,-0.9294434,0.253418,-0.1161069,0.2780993,-0.2292137,-64.2872,21.06497,-76.22485,-64.15685,21.11739,-75.79527,LB
0.0390625,-0.2614746,-0.3918457,0.1991527,-0.1539084,-0.1837251,-32.83995,-5.364852,-146.5198,-33.5841,-4.740234,-145.9926,-0.3688965,-0.9245605,0.2592773,-0.1008396,-0.05777865,0.01506107,-64.28288,21.06319,-76.20815,-64.002,21.01558,-75.40079,LB
0.04077148,-0.2609863,-0.4023438,0.0006792545,0.05983204,-0.07685494,-32.83987,-5.353863,-146.5248,-32.83658,-4.859342,-146.7138,-0.373291,-0.9362793,0.2490234,-0.222977,0.171229,-0.0002061129,-64.28836,21.06588,-76.20644,-64.39301,21.07171,-76.12245,LB
0.04663086,-0.2617188,-0.4013672,0.1380839,0.2430381,0.07581687,-32.83953,-5.354143,-146.5228,-32.93159,-5.558427,-146.482,-0.3710938,-0.9245605,0.2492676,-0.3451145,0.07962596,0.06086259,-64.29192,21.06947,-76.2004,-64.19547,21.18312,-75.95271,LB
0.03808594,-0.2556152,-0.4069824,-0.197794,0.5636489,0.1368854,-32.82604,-5.329396,-146.542,-32.01947,-4.531054,-147.5841,-0.3676758,-0.935791,0.2478027,-0.4061831,0.3086336,-0.03074045,-64.30502,21.06857,-76.19993,-64.64796,20.79741,-76.15457,LB
0.04443359,-0.2585449,-0.3937988,-0.2130611,0.2430381,-0.3058627,-32.83506,-5.327001,-146.5422,-33.12046,-5.388277,-146.3298,-0.3752441,-0.9345703,0.25,-0.299313,0.1254275,0.0,-64.3082,21.07304,-76.19711,-64.24433,21.20013,-76.0587,LB
0.04345703,-0.2580566,-0.3996582,-0.2283282,0.1514351,-0.1531909,-32.83543,-5.322771,-146.5492,-32.6968,-5.219365,-146.7838,-0.3752441,-0.9309082,0.2539063,-0.07030535,0.3697023,0.1371985,-64.30396,21.08166,-76.18735,-64.04774,21.2505,-75.80359,LB
0.04394531,-0.2619629,-0.4082031,0.07701516,0.1361679,-0.04632068,-32.82839,-5.317855,-146.5578,-32.5403,-5.177048,-146.9474,-0.371582,-0.9277344,0.2614746,-0.1771755,0.3544351,0.3051374,-64.29861,21.08688,-76.16588,-63.90664,21.08202,-75.338,LB
0.04541016,-0.2631836,-0.3937988,-0.1519923,-0.07757253,-0.1379237,-32.84568,-5.322165,-146.5458,-33.58099,-5.476384,-145.8551,-0.3728027,-0.9299316,0.2507324,-0.131374,0.1559618,0.1677328,-64.29884,21.09064,-76.15909,-64.21352,21.15992,-75.94957,LB
0.04638672,-0.2583008,-0.4072266,-0.06038928,0.01403052,-0.3363969,-32.83405,-5.325404,-146.5639,-32.21983,-5.494415,-147.2007,-0.3662109,-0.9313965,0.2480469,-0.390916,0.171229,-0.09180916,-64.31055,21.08742,-76.15886,-64.5975,20.80388,-76.07989,LB
0.04101563,-0.2573242,-0.4003906,0.06174803,0.01403052,-0.4127328,-32.8283,-5.317197,-146.5775,-32.59229,-4.925371,-146.9441,-0.3688965,-0.9287109,0.2509766,-0.299313,0.4002366,-0.09180916,-64.31552,21.09115,-76.15507,-64.33916,20.97972,-75.90155,LB
0.04174805,-0.2583008,-0.3967285,0.2602212,0.1667023,-0.07685494,-32.82638,-5.309196,-146.579,-32.92313,-5.039685,-146.5941,-0.3745117,-0.932373,0.2607422,-0.3451145,0.339168,-0.3208168,-64.31271,21.09727,-76.14574,-63.9211,21.14817,-75.4525,LB
0.04541016,-0.260498,-0.3977051,0.3823588,-0.1081069,-0.3058627,-32.82533,-5.313723,-146.5795,-33.05506,-5.456051,-146.3808,-0.3745117,-0.9331055,0.2524414,0.00603056,0.2475649,-0.2444809,-64.30981,21.10253,-76.14454,-64.17178,21.17799,-75.90601,LB
0.04077148,-0.2624512,-0.4064941,0.3365571,-0.1386412,-0.04632068,-32.81856,-5.305682,-146.5854,-32.71759,-4.81656,-146.8398,-0.3735352,-0.9335938,0.2509766,-0.2687786,0.4155039,-0.1834122,-64.31259,21.10869,-76.14388,-64.26456,21.12585,-75.98576,LB
0.04052734,-0.2590332,-0.4194336,0.3060229,-0.0470382,-0.260061,-32.78928,-5.294254,-146.6173,-31.57969,-4.699718,-147.9908,-0.3710938,-0.9345703,0.2595215,-0.1161069,0.5071069,-0.168145,-64.311,21.11271,-76.13405,-64.1479,20.93668,-75.52839,LB
0.03808594,-0.2629395,-0.4008789,0.1380839,0.1056336,-0.1073892,-32.79433,-5.277659,-146.6159,-33.14322,-4.542159,-146.4655,-0.3723145,-0.9328613,0.2490234,0.1892367,0.2475649,-0.07654199,-64.30904,21.11583,-76.134,-64.35177,21.08701,-76.07549,LB
0.04296875,-0.2612305,-0.407959,0.03121376,0.2583054,-0.09212208,-32.78778,-5.269686,-146.6253,-32.48949,-5.068853,-147.0189,-0.373291,-0.9250488,0.2507324,-0.4672519,0.430771,-0.3055496,-64.31123,21.12545,-76.13362,-64.07487,21.28007,-75.89077,LB
0.04614258,-0.2563477,-0.3896484,-0.2435954,-0.031771,0.06054974,-32.79876,-5.277759,-146.6167,-33.15778,-5.649942,-146.2386,-0.3713379,-0.9365234,0.2365723,-0.5130534,0.2017633,-0.2139466,-64.32895,21.12647,-76.1498,-64.82009,21.02831,-76.78515,LB
0.04418945,-0.2575684,-0.4040527,0.03121376,-0.031771,0.1674199,-32.78956,-5.27805,-146.624,-32.36177,-5.269004,-147.1062,-0.3718262,-0.9382324,0.260498,-0.3603816,-0.2867863,-0.4734885,-64.33124,21.11773,-76.14429,-64.1783,20.89984,-75.52689,LB
0.04882813,-0.2580566,-0.4033203,0.5655649,0.2735725,-0.1989923,-32.77393,-5.284923,-146.633,-32.4234,-5.822766,-146.9285,-0.3757324,-0.9387207,0.2370605,-0.2077099,-0.8364046,-0.6108932,-64.34113,21.10728,-76.16649,-64.67331,21.21007,-76.80518,LB
0.04174805,-0.2651367,-0.4064941,0.6419008,0.1819695,0.03001523,-32.76918,-5.275059,-146.6312,-32.97709,-4.916582,-146.5637,-0.3601074,-0.9350586,0.2485352,0.4182443,-0.7295343,-0.3971527,-64.34705,21.08342,-76.17001,-64.92346,20.41499,-76.0696,LB
0.04174805,-0.2646484,-0.3989258,0.3365571,-0.642458,0.07581687,-32.77719,-5.278681,-146.6198,-33.41681,-4.983937,-146.1144,-0.3696289,-0.9372559,0.2473145,0.5556489,-0.1951832,-0.1070763,-64.34425,21.07634,-76.17235,-64.61526,20.87293,-76.20823,LB
0.03955078,-0.2619629,-0.4003906,-0.2741299,-1.00887,-0.04632068,-32.78704,-5.282444,-146.6182,-33.06813,-4.725342,-146.5081,-0.3718262,-0.9338379,0.2497559,0.2045038,-0.2562519,0.06086259,-64.34186,21.07183,-76.16891,-64.37505,21.03926,-76.04584,LB
0.04418945,-0.2573242,-0.3950195,-0.3962674,2.975863,0.3353589,-32.79549,-5.240147,-146.6116,-32.91835,-5.354849,-146.537,-0.3601074,-0.9306641,0.2524414,0.1739695,-0.1646488,0.1524656,-64.34661,21.05753,-76.15936,-64.70732,20.47772,-75.80362,LB
0.04223633,-0.2558594,-0.3964844,-0.1825268,-0.1081069,-0.09212208,-32.79602,-5.239229,-146.6171,-32.68786,-5.114793,-146.8132,-0.3669434,-0.9230957,0.2597656,0.03656495,0.2780993,0.1219313,-64.33978,21.05925,-76.14129,-64.0321,20.93942,-75.34513,LB
0.04150391,-0.2592773,-0.4025879,0.0006792545,0.4720459,-0.2295268,-32.79299,-5.226578,-146.6258,-32.6449,-4.953634,-146.8866,-0.3740234,-0.925293,0.2431641,-0.131374,0.09489316,0.2135344,-64.3401,21.06652,-76.14146,-64.25951,21.35287,-76.30699,LB
0.04077148,-0.2597656,-0.3994141,0.3365571,0.6705191,-0.1379237,-32.79025,-5.21001,-146.6282,-32.90305,-4.891028,-146.6419,-0.3676758,-0.9287109,0.2565918,-0.1771755,-0.05777865,-0.03074045,-64.3405,21.06208,-76.13094,-64.22993,20.88696,-75.59288,LB
0.03979492,-0.2612305,-0.4047852,0.3518243,0.5636489,-0.6417403,-32.78349,-5.191966,-146.6423,-32.71099,-4.722097,-146.8634,-0.3708496,-0.9360352,0.2526855,-0.650458,0.4155039,-0.1834122,-64.35098,21.06558,-76.12925,-64.38605,20.93184,-75.91128,LB
0.0402832,-0.2600098,-0.3984375,0.4586947,0.6552519,-0.3363969,-32.78096,-5.175288,-146.6456,-32.9942,-4.839657,-146.5609,-0.3662109,-0.9333496,0.2507324,-0.7115266,0.339168,-0.09180916,-64.36578,21.06432,-76.1272,-64.56824,20.75307,-75.95963,LB
0.04223633,-0.2583008,-0.395752,0.3060229,0.6094504,0.0,-32.78051,-5.164965,-146.6432,-32.98348,-5.107099,-146.5213,-0.3649902,-0.9367676,0.2524414,-0.558855,0.690313,-0.06127481,-64.37971,21.06551,-76.12365,-64.65121,20.61663,-75.90471,LB
0.05200195,-0.2587891,-0.4023438,0.1991527,0.1361679,-0.2295268,-32.77284,-5.183875,-146.6481,-32.53372,-6.203872,-146.7327,-0.3691406,-0.9382324,0.2387695,-0.4214504,0.6292443,-0.1986794,-64.39576,21.07026,-76.13744,-64.89343,20.87131,-76.67675,LB
0.04150391,-0.2583008,-0.3964844,0.03121376,0.1514351,-0.1226563,-32.77574,-5.178222,-146.6486,-32.94071,-5.012519,-146.5818,-0.3803711,-0.9360352,0.2495117,-0.2535114,0.2933664,-0.04600763,-64.39318,21.08192,-76.13793,-64.08066,21.43762,-76.12827,LB
0.06054688,-0.262207,-0.4052734,0.07701516,-0.031771,-0.1531909,-32.77139,-5.218114,-146.6462,-32.61462,-7.149488,-146.4153,-0.3754883,-0.9335938,0.2451172,-0.08557248,0.07962596,-0.3666183,-64.39346,21.08658,-76.14677,-64.34465,21.25664,-76.31,LB
0.04248047,-0.2597656,-0.4013672,0.2602212,-0.4897862,-0.1073892,-32.76744,-5.222504,-146.6497,-32.76562,-5.077614,-146.7432,-0.3688965,-0.9335938,0.2561035,-0.1008396,0.03382444,-0.1986794,-64.3933,21.08254,-76.14051,-64.31133,20.85976,-75.68769,LB
0.04736328,-0.2587891,-0.3947754,0.4434273,-0.3371145,0.1674199,-32.76675,-5.237605,-146.6406,-33.05879,-5.729765,-146.3196,-0.3693848,-0.9299316,0.2404785,0.2808397,0.1254275,-0.2597481,-64.39411,21.08344,-76.15125,-64.64011,21.03508,-76.48627,LB
0.04516602,-0.2644043,-0.3991699,0.3518243,-0.2302443,-0.01578617,-32.77329,-5.244015,-146.6301,-33.35233,-5.388898,-146.0997,-0.3649902,-0.9328613,0.2419434,0.2655725,0.1559618,-0.1070763,-64.39941,21.07893,-76.15823,-64.854,20.7431,-76.42155,LB
0.04711914,-0.2595215,-0.3955078,0.07701516,-0.2455115,0.1216183,-32.77843,-5.25651,-146.6217,-33.08686,-5.688284,-146.3007,-0.3703613,-0.9372559,0.2514648,0.02129769,0.07962596,-0.2292137,-64.40049,21.07631,-76.15823,-64.46939,20.88971,-75.98942,LB
0.04272461,-0.2583008,-0.4072266,0.1686182,0.1667023,0.07581687,-32.76528,-5.250189,-146.6334,-32.24496,-5.062995,-147.2626,-0.3671875,-0.9460449,0.2365723,-0.2077099,0.04909158,-0.336084,-64.41987,21.06817,-76.17756,-65.21674,20.6331,-76.87751,LB
0.04003906,-0.260498,-0.3991699,0.229687,0.01403052,0.03001523,-32.76655,-5.241011,-146.6316,-32.99732,-4.801622,-146.5647,-0.376709,-0.9433594,0.246582,0.38771,0.1864962,-0.3666183,-64.4155,21.07203,-76.18651,-64.48631,21.12389,-76.35548,LB
0.04223633,-0.2624512,-0.402832,0.229687,-0.5661222,0.2284887,-32.76668,-5.244923,-146.6272,-32.94175,-5.020469,-146.5793,-0.3701172,-0.9404297,0.2421875,0.2350382,0.4765725,-0.2902825,-64.41995,21.07485,-76.19753,-64.81091,20.86316,-76.5239,LB
0.04223633,-0.2541504,-0.4038086,-0.1061909,-0.6119237,0.3811603,-32.75371,-5.249594,-146.6386,-32.04527,-5.058722,-147.4615,-0.3725586,-0.9321289,0.248291,0.219771,0.3849695,-0.427687,-64.41543,21.08099,-76.20158,-64.34437,21.1175,-76.10702,LB
0.04467773,-0.2602539,-0.4077148,-0.01458788,-0.4134504,0.1979542,-32.74677,-5.256225,-146.6443,-32.39615,-5.277269,-147.0704,-0.373291,-0.9296875,0.2414551,0.2045038,0.3239008,-0.2444809,-64.41297,21.08888,-76.21014,-64.44296,21.23762,-76.44935,LB
0.04223633,-0.2526855,-0.4008789,0.1838853,-0.4287176,0.2132213,-32.73077,-5.259269,-146.6567,-32.08192,-5.093337,-147.4184,-0.3710938,-0.9245605,0.2453613,0.3266413,0.262832,-0.2139466,-64.406,21.09504,-76.21236,-64.30438,21.20349,-76.16433,LB
0.04296875,-0.2548828,-0.3989258,0.1838853,-0.4134504,0.3200917,-32.72215,-5.263483,-146.6603,-32.42569,-5.186318,-147.0592,-0.3718262,-0.9267578,0.2407227,0.2350382,0.04909158,-0.2292137,-64.40375,21.09826,-76.22019,-64.45438,21.22247,-76.4464,LB
0.04467773,-0.2617188,-0.3996582,0.2602212,-0.4287176,0.259023,-32.725,-5.271372,-146.6514,-33.05618,-5.342842,-146.4027,-0.3735352,-0.9333496,0.2492676,-0.131374,-0.04251146,-0.4124198,-64.40372,21.09846,-76.22334,-64.30608,21.13937,-76.07445,LB
0.0402832,-0.2575684,-0.4016113,0.5197632,-0.5813893,0.03001523,-32.71373,-5.271014,-146.6581,-32.54338,-4.826141,-147.011,-0.3728027,-0.9377441,0.2644043,-0.2382443,-0.1035802,-0.3971527,-64.39947,21.09374,-76.21107,-64.01589,20.93854,-75.31786,LB
0.04541016,-0.2531738,-0.4038086,0.6113663,-0.3065802,0.350626,-32.68955,-5.278651,-146.6702,-31.92447,-5.442548,-147.5041,-0.3693848,-0.9289551,0.2597656,0.1129008,0.04909158,-0.3208168,-64.39143,21.09162,-76.19994,-64.07493,20.95406,-75.43419,LB
0.04516602,-0.2631836,-0.3991699,0.5502977,-0.2302443,-0.0005190372,-32.69228,-5.284392,-146.6612,-33.23068,-5.39644,-146.2188,-0.3710938,-0.9318848,0.2529297,0.03656495,0.2170305,-0.5498245,-64.38846,21.09342,-76.20097,-64.26973,21.02248,-75.84737,LB
0.04223633,-0.2587891,-0.3881836,0.5350306,-0.4134504,0.2742901,-32.70127,-5.288241,-146.6432,-33.53463,-5.172957,-145.9615,-0.3686523,-0.9372559,0.2521973,-0.05503809,0.1254275,-0.3971527,-64.39188,21.08935,-76.20162,-64.51917,20.79785,-75.94183,LB
0.04052734,-0.2636719,-0.4069824,0.3670917,-0.2455115,0.0147481,-32.69515,-5.283556,-146.6451,-32.80914,-4.777308,-146.756,-0.388916,-0.9387207,0.2458496,-0.02450383,0.03382444,-0.3971527,-64.38236,21.10513,-76.21451,-63.8886,21.84027,-76.3984,LB
0.04931641,-0.2648926,-0.4025879,0.2144198,-0.382916,0.2437558,-32.70085,-5.300748,-146.6325,-33.14826,-5.842943,-146.2064,-0.3696289,-0.935791,0.2536621,0.05183208,0.171229,-0.03074045,-64.38196,21.10309,-76.2077,-64.40295,20.8685,-75.84989,LB
0.0390625,-0.2504883,-0.4035645,-0.04512215,-0.4745191,-0.168458,-32.68161,-5.295272,-146.6594,-31.70787,-4.701415,-147.8633,-0.388916,-0.9382324,0.246582,-0.1466411,0.3239008,-0.04600763,-64.37348,21.12239,-76.21124,-63.85753,21.84612,-76.35356,LB
0.0390625,-0.2585449,-0.3969727,-0.1825268,-0.3065802,0.0147481,-32.68966,-5.288146,-146.6586,-32.94974,-4.713659,-146.6278,-0.3674316,-0.9362793,0.2434082,-0.07030535,0.339168,0.1066641,-64.38288,21.12088,-76.21336,-64.79185,20.79742,-76.39566,LB
0.04467773,-0.2570801,-0.3991699,0.0006792545,-0.2607787,-0.01578617,-32.68827,-5.29373,-146.6622,-32.62087,-5.375688,-146.8278,-0.3696289,-0.9387207,0.246582,0.0976336,0.5529084,0.183,-64.38719,21.12356,-76.21171,-64.67018,20.84875,-76.2654,LB
0.0390625,-0.260498,-0.4055176,0.06174803,-0.291313,-0.01578617,-32.68545,-5.285093,-146.6691,-32.59584,-4.63347,-146.9936,-0.364502,-0.9301758,0.2580566,0.1587023,0.5529084,0.0,-64.38402,21.1235,-76.19781,-64.35302,20.68661,-75.51686,LB
0.04003906,-0.2617188,-0.4016113,0.2449541,-0.2607787,0.2437558,-32.68761,-5.278461,-146.6645,-32.96168,-4.774584,-146.605,-0.3652344,-0.9318848,0.2451172,0.1587023,0.6597786,0.06086259,-64.3888,21.12525,-76.19781,-64.73206,20.75861,-76.2393,LB
0.0390625,-0.2607422,-0.3986816,0.1380839,-0.2149771,0.1063511,-32.69303,-5.269806,-146.6601,-33.05987,-4.687732,-146.5229,-0.3618164,-0.9355469,0.2519531,0.1129008,0.4460382,0.09139694,-64.3947,21.11885,-76.19051,-64.76673,20.47753,-75.9001,LB
0.03808594,-0.2561035,-0.4033203,0.06174803,-0.3218473,0.259023,-32.68426,-5.260298,-146.6691,-32.30008,-4.557833,-147.3007,-0.3718262,-0.9279785,0.2561035,0.219771,0.6445115,-0.04600763,-64.38469,21.12833,-76.17999,-64.05563,21.11879,-75.63095,LB
0.04321289,-0.2590332,-0.4069824,0.1228168,-0.2455115,-0.1073892,-32.67538,-5.261073,-146.6806,-32.33033,-5.11858,-147.1671,-0.3723145,-0.9284668,0.2521973,0.0976336,0.7971831,-0.1223435,-64.37871,21.14058,-76.17519,-64.15739,21.15531,-75.84987,LB
0.04199219,-0.2575684,-0.3972168,0.229687,-0.5050534,0.3200917,-32.6748,-5.264654,-146.6762,-32.81552,-5.068892,-146.6953,-0.3671875,-0.9306641,0.2587891,0.1892367,0.5834427,0.06086259,-64.37303,21.1426,-76.16074,-64.23398,20.81286,-75.49747,LB
0.04125977,-0.2666016,-0.404541,0.3670917,-0.2149771,0.1216183,-32.68091,-5.259873,-146.6669,-33.24969,-4.867641,-146.302,-0.3637695,-0.9353027,0.262207,0.0976336,0.59871,-0.1528779,-64.37184,21.13916,-76.14692,-64.38513,20.53064,-75.35719,LB
0.046875,-0.2602539,-0.4003906,0.3060229,-0.3981832,-0.04632068,-32.68001,-5.272262,-146.6653,-32.84591,-5.606151,-146.5569,-0.3647461,-0.9353027,0.25,0.00603056,0.7666489,-0.1223435,-64.37824,21.13978,-76.14599,-64.69584,20.64391,-76.01624,LB
0.04614258,-0.2666016,-0.3972168,0.3670917,-0.3371145,0.3048244,-32.69484,-5.28196,-146.6423,-33.69102,-5.509351,-145.7392,-0.3691406,-0.9306641,0.2473145,0.00603056,0.7055801,-0.09180916,-64.38016,21.14683,-76.14691,-64.47863,20.97372,-76.12466,LB
0.04467773,-0.2629395,-0.402832,0.489229,-0.06230533,-0.01578617,-32.69274,-5.28342,-146.6396,-32.97347,-5.30613,-146.4921,-0.3752441,-0.9348145,0.2480469,0.03656495,0.690313,-0.06127481,-64.37806,21.15882,-76.14826,-64.30392,21.20547,-76.1664,LB
0.04248047,-0.2631836,-0.3979492,0.32129,-0.1386412,0.3048244,-32.70075,-5.281551,-146.6259,-33.32946,-5.088083,-146.1815,-0.3671875,-0.9350586,0.2629395,-0.1008396,0.1864962,-0.09180916,-64.37638,21.15255,-76.13329,-64.21995,20.70797,-75.33227,LB
0.04296875,-0.2602539,-0.4040527,0.2754886,-0.3371145,0.1216183,-32.69548,-5.283053,-146.6289,-32.63945,-5.108871,-146.8623,-0.3659668,-0.9382324,0.2512207,-0.05503809,0.5834427,-0.2444809,-64.38326,21.15099,-76.13409,-64.68027,20.64574,-75.99318,LB
0.04321289,-0.2573242,-0.4018555,0.4434273,-0.2149771,0.4880307,-32.68516,-5.283832,-146.6297,-32.48367,-5.174496,-147.0041,-0.3500977,-0.935791,0.2509766,-0.1008396,0.4002366,-0.01547329,-64.40263,21.13081,-76.12961,-65.2824,19.86728,-75.89941,LB
0.04174805,-0.2607422,-0.3984375,0.6571679,-0.031771,-0.01578617,-32.68296,-5.278833,-146.6266,-33.05804,-5.010564,-146.4657,-0.3710938,-0.9362793,0.2475586,-0.07030535,0.4765725,0.03032825,-64.4061,21.13452,-76.13037,-64.52457,20.9659,-76.19027,LB
0.04150391,-0.2575684,-0.4033203,0.2907557,-0.06230533,0.1216183,-32.67326,-5.273369,-146.6342,-32.42637,-4.956787,-147.1029,-0.3728027,-0.9345703,0.2504883,0.08236647,0.6292443,-0.168145,-64.40332,21.14313,-76.13081,-64.33181,21.07183,-76.02044,LB
0.046875,-0.2626953,-0.3981934,0.32129,-0.1081069,-0.07685494,-32.68004,-5.281625,-146.6261,-33.23257,-5.611998,-146.1724,-0.3669434,-0.9399414,0.2475586,0.06709921,0.690313,0.04559542,-64.41,21.14338,-76.13187,-64.78303,20.6823,-76.21512,LB
0.04370117,-0.2587891,-0.401123,-0.04512215,-0.4287176,0.1216183,-32.6806,-5.286909,-146.6278,-32.67474,-5.230724,-146.8035,-0.3686523,-0.9394531,0.2570801,0.06709921,0.9498549,0.3814733,-64.40948,21.14911,-76.1178,-64.43335,20.73145,-75.70857,LB
0.04003906,-0.2626953,-0.3984375,-0.01458788,-0.3371145,0.4574962,-32.69251,-5.28204,-146.6145,-33.26527,-4.795686,-146.2996,-0.3659668,-0.9362793,0.2536621,0.1129008,0.858252,-0.03074045,-64.41093,21.15214,-76.11265,-64.56485,20.67012,-75.83794,LB
0.04418945,-0.2626953,-0.3991699,0.3976259,-0.1386412,0.1674199,-32.69659,-5.284104,-146.6054,-33.18902,-5.283378,-146.2828,-0.3684082,-0.932373,0.2426758,0.08236647,0.6139771,0.09139694,-64.41507,21.15665,-76.1169,-64.67879,20.92633,-76.39239,LB
0.04272461,-0.2661133,-0.4001465,0.0922823,0.2125039,0.2437558,-32.71082,-5.276911,-146.5905,-33.4759,-5.080622,-146.0375,-0.3701172,-0.9311523,0.2497559,0.3571756,0.5376411,0.183,-64.40915,21.16147,-76.11195,-64.38152,21.00243,-76.00399,LB
0.04418945,-0.2590332,-0.3979492,-0.04512215,0.3804427,0.06054974,-32.71528,-5.272118,-146.589,-32.9006,-5.316865,-146.5623,-0.3691406,-0.9279785,0.2473145,-0.390916,0.7513816,0.3509389,-64.415,21.1698,-76.10638,-64.4142,21.02545,-76.09133,LB
0.04370117,-0.2575684,-0.4050293,-0.4268017,0.3346412,0.07581687,-32.71331,-5.2658,-146.5997,-32.30335,-5.202211,-147.1774,-0.373291,-0.9528809,0.2463379,-0.4519846,0.9498549,0.2593359,-64.43048,21.17578,-76.10976,-64.85645,20.77078,-76.46593,LB
0.04736328,-0.2558594,-0.3962402,-0.289397,0.5178473,0.091084,-32.71662,-5.267556,-146.6005,-32.66611,-5.734228,-146.7076,-0.3740234,-0.9379883,0.239502,-0.5435878,0.430771,0.03032825,-64.44312,21.18108,-76.12027,-64.66263,21.12429,-76.65739,LB
0.04418945,-0.2580566,-0.4013672,0.2449541,0.2583054,0.091084,-32.71033,-5.264226,-146.6048,-32.58193,-5.290947,-146.8835,-0.3754883,-0.9465332,0.2524414,-0.3451145,0.171229,-0.07654199,-64.44836,21.17941,-76.12051,-64.45146,20.97186,-76.07668,LB
0.04418945,-0.2641602,-0.4008789,0.6266336,0.2888396,0.1216183,-32.71139,-5.259875,-146.596,-33.22421,-5.258943,-146.2528,-0.3771973,-0.9355469,0.2651367,0.6777863,0.1406947,0.09139694,-64.42472,21.18193,-76.10222,-63.76487,21.20161,-75.27328,LB
0.04272461,-0.2617188,-0.4104004,0.04648089,-0.5355878,0.1063511,-32.70425,-5.262352,-146.6052,-32.38646,-5.0163,-147.1312,-0.3759766,-0.9350586,0.2502441,0.6930535,0.2322977,0.3356718,-64.41109,21.18602,-76.09667,-64.21902,21.22714,-76.05528,LB
0.04003906,-0.2634277,-0.4130859,-0.3657329,-0.9478015,0.1216183,-32.70364,-5.264478,-146.6148,-32.40461,-4.672033,-147.1767,-0.3671875,-0.9262695,0.255127,0.5251145,0.4918396,0.6410153,-64.39982,21.18785,-76.07808,-64.2329,20.91602,-75.63796,LB
0.0402832,-0.2600098,-0.4199219,-0.5184045,-0.642458,-0.1531909,-32.69014,-5.261889,-146.6434,-31.64787,-4.662785,-147.9298,-0.3701172,-0.9248047,0.2480469,0.1129008,0.8277176,0.9005573,-64.39569,21.19893,-76.06361,-64.27633,21.13394,-76.01695,LB
0.04272461,-0.2548828,-0.4040527,-0.4420686,0.2583054,-0.168458,-32.68485,-5.255064,-146.6609,-32.1008,-5.110534,-147.3963,-0.3730469,-0.9333496,0.2451172,-0.08557248,1.255198,0.9158244,-64.39785,21.21611,-76.05478,-64.44075,21.13537,-76.29512,LB
0.04833984,-0.2556152,-0.401123,0.0,0.9453281,-0.4585342,-32.67756,-5.252128,-146.6751,-32.32037,-5.803041,-147.0348,-0.3725586,-0.9291992,0.2536621,-0.2840458,1.102527,0.5799466,-64.39655,21.23092,-76.04079,-64.12393,21.14608,-75.78151,LB
0.03881836,-0.2634277,-0.3974609,0.1380839,1.403344,-0.5043359,-32.69032,-5.220914,-146.6722,-33.41035,-4.654116,-146.1805,-0.3757324,-0.9326172,0.2463379,-0.1466411,0.7208474,0.4578092,-64.39618,21.24183,-76.03837,-64.27772,21.28194,-76.23369,LB
0.04150391,-0.2578125,-0.4057617,0.2602212,1.174336,-0.5959387,-32.67862,-5.197919,-146.6922,-32.29621,-4.934314,-147.2363,-0.378418,-0.927002,0.2521973,-0.6046565,0.7361145,0.2746031,-64.39452,21.25781,-76.03082,-63.86895,21.49948,-75.8625,LB
0.04516602,-0.260498,-0.4013672,0.0922823,1.006397,-0.9928856,-32.68009,-5.187013,-146.7055,-32.82024,-5.392307,-146.6267,-0.3754883,-0.9326172,0.2609863,-0.6809924,0.6445115,0.1219313,-64.39425,21.26597,-76.01736,-63.88039,21.19242,-75.44765,LB
0.04638672,-0.255127,-0.3986816,0.1075497,0.8537251,-0.7028093,-32.67374,-5.182667,-146.7209,-32.44161,-5.597215,-146.9593,-0.3762207,-0.9306641,0.2473145,-0.3756489,0.9651221,0.4730763,-64.39556,21.28164,-76.01325,-64.18359,21.3401,-76.15965,LB
0.04150391,-0.2624512,-0.3920898,0.1991527,0.3651755,-0.4585342,-32.69052,-5.174546,-146.7103,-33.64956,-5.027104,-145.8752,-0.3601074,-0.9306641,0.2470703,-0.131374,0.0,0.5646794,-64.40668,21.26611,-76.00712,-64.86157,20.50487,-76.09383,LB
0.0456543,-0.2675781,-0.3984375,-0.1672597,0.487313,-0.2905953,-32.71339,-5.172568,-146.695,-33.71133,-5.433816,-145.7344,-0.3771973,-0.934082,0.2495117,-0.1771755,0.7208474,0.5952138,-64.40446,21.27764,-75.99999,-64.16514,21.3126,-76.08855,LB
0.0456543,-0.2609863,-0.4030762,-0.1519923,0.487313,-0.2447939,-32.71634,-5.171052,-146.6982,-32.75612,-5.431077,-146.6823,-0.3693848,-0.9353027,0.2438965,-0.009236574,0.7361145,0.5952138,-64.40997,21.28048,-75.99917,-64.67372,20.91468,-76.36687,LB
0.04321289,-0.2648926,-0.4040527,-0.3504658,0.319374,-0.168458,-32.72915,-5.165156,-146.6948,-33.09919,-5.111009,-146.4057,-0.373291,-0.9326172,0.2470703,0.1129008,0.6597786,0.6562824,-64.4073,21.28761,-75.99319,-64.35933,21.15218,-76.1823,LB
0.04321289,-0.2624512,-0.3974609,-0.2130611,0.1056336,0.03001523,-32.74335,-5.163982,-146.6846,-33.28294,-5.184103,-146.2092,-0.3718262,-0.9250488,0.2487793,0.4640458,0.858252,0.6562824,-64.39614,21.29876,-75.98345,-64.19043,21.21426,-75.98895,LB
0.0480957,-0.2600098,-0.3952637,-0.2588627,0.3499084,-0.07685494,-32.75518,-5.171651,-146.6764,-33.14442,-5.804598,-146.2186,-0.3696289,-0.927002,0.2524414,0.1129008,0.8429847,0.534145,-64.39108,21.30604,-75.97202,-64.2262,21.04301,-75.80462,LB
0.05126953,-0.2556152,-0.3981934,-0.4573359,0.487313,-0.168458,-32.75648,-5.184733,-146.6811,-32.48416,-6.183961,-146.7863,-0.3723145,-0.9299316,0.2463379,0.02129769,0.7361145,0.442542,-64.39006,21.31388,-75.96975,-64.35581,21.15738,-76.18391,LB
0.04516602,-0.262207,-0.4042969,-0.2588627,0.9300611,-0.1073892,-32.76097,-5.175371,-146.682,-32.80344,-5.354617,-146.651,-0.3747559,-0.9384766,0.2409668,0.06709921,0.2780993,0.4120076,-64.39342,21.31433,-75.97646,-64.604,21.14534,-76.58801,LB
0.04614258,-0.2634277,-0.3991699,0.01594663,0.09036642,0.04528236,-32.77047,-5.180752,-146.6712,-33.24778,-5.510869,-146.1785,-0.3811035,-0.932373,0.2456055,0.4640458,0.7055801,0.4883435,-64.38008,21.32975,-75.97569,-64.06752,21.56701,-76.29659,LB
0.04370117,-0.2592773,-0.4030762,-0.09092379,-0.031771,0.06054974,-32.76838,-5.181804,-146.6746,-32.59887,-5.210033,-146.8828,-0.3752441,-0.9316406,0.25,0.7083206,0.8429847,0.2746031,-64.36554,21.34068,-75.97259,-64.17386,21.25678,-76.02245,LB
0.04394531,-0.2565918,-0.404541,0.0006792545,-0.2455115,0.3658931,-32.75768,-5.186603,-146.6805,-32.23427,-5.241274,-147.2382,-0.3752441,-0.9274902,0.2487793,0.647252,0.5376411,0.5036107,-64.35085,21.34865,-75.96646,-64.10719,21.34392,-76.03661,LB
0.03955078,-0.2575684,-0.3981934,0.0922823,-0.2760458,-0.0005190372,-32.75654,-5.182276,-146.6828,-32.76838,-4.767379,-146.7983,-0.3735352,-0.9331055,0.2463379,0.7999237,0.4765725,0.3662061,-64.33969,21.35187,-75.96632,-64.38102,21.1591,-76.22887,LB
0.04394531,-0.2565918,-0.40625,-0.09092379,0.07509923,0.182687,-32.74528,-5.182039,-146.6935,-32.12666,-5.22561,-147.348,-0.3706055,-0.9313965,0.2561035,0.6930535,0.5071069,0.2593359,-64.32648,21.35208,-75.95655,-64.18848,20.98998,-75.66836,LB
0.03979492,-0.2624512,-0.3974609,-0.07565641,0.3041069,0.0147481,-32.75761,-5.169449,-146.6846,-33.30629,-4.776038,-146.2623,-0.3742676,-0.9279785,0.2548828,0.3266413,0.4918396,0.2746031,-64.31494,21.3573,-75.94756,-63.98954,21.25164,-75.70911,LB
0.04345703,-0.2617188,-0.4023438,0.2449541,0.3804427,0.4269619,-32.75669,-5.163936,-146.6766,-32.89172,-5.173452,-146.5995,-0.378418,-0.9279785,0.239502,0.05183208,0.4155039,-0.07654199,-64.31264,21.3672,-75.96092,-64.23813,21.54653,-76.55935,LB
0.04418945,-0.253418,-0.3979492,0.1991527,0.4262443,-0.09212208,-32.74368,-5.158068,-146.6876,-32.33052,-5.350925,-147.1206,-0.3740234,-0.9335938,0.2421875,-0.2077099,0.7361145,-0.0002061129,-64.32079,21.38036,-75.97092,-64.48569,21.19588,-76.4605,LB
0.04711914,-0.2585449,-0.3986816,0.5655649,0.5483816,-0.2142596,-32.73613,-5.160106,-146.6892,-32.78224,-5.663015,-146.6079,-0.3776855,-0.9311523,0.2409668,0.02129769,0.7513816,-0.3666183,-64.32018,21.39258,-75.98718,-64.30625,21.43872,-76.51469,LB
0.03125,-0.2585449,-0.3981934,0.3060229,0.4262443,-0.0310533,-32.73522,-5.125956,-146.6921,-32.91516,-3.765879,-146.8145,-0.3737793,-0.9353027,0.2412109,-0.03977096,0.9345879,-0.1070763,-64.32562,21.40157,-75.99966,-64.56311,21.15508,-76.5324,LB
0.04980469,-0.2587891,-0.3981934,0.5044961,0.1972366,-0.2447939,-32.72944,-5.140276,-146.6919,-32.81729,-5.986959,-146.502,-0.3754883,-0.9331055,0.2419434,-0.009236574,0.6750459,0.09139694,-64.32763,21.4091,-76.00782,-64.41916,21.28221,-76.47485,LB
0.04956055,-0.2644043,-0.3898926,0.4128931,-0.06230533,0.1063511,-32.74738,-5.158499,-146.6644,-33.93003,-6.005652,-145.396,-0.3789063,-0.9370117,0.2424316,-0.08557248,0.7513816,-0.09180916,-64.32945,21.41956,-76.01926,-64.35602,21.37967,-76.51187,LB
0.04638672,-0.263916,-0.4101563,0.3976259,-0.1539084,-0.0005190372,-32.73808,-5.166401,-146.668,-32.59388,-5.432918,-146.8428,-0.380127,-0.9343262,0.2397461,-0.07030535,0.4613054,0.1066641,-64.33021,21.42857,-76.0298,-64.31219,21.50838,-76.63002,LB
0.04199219,-0.2607422,-0.3928223,0.32129,-0.123374,0.03001523,-32.7471,-5.166678,-146.6559,-33.42505,-5.08957,-146.0863,-0.3754883,-0.9331055,0.2597656,0.219771,0.2475649,0.07612977,-64.31891,21.42743,-76.01847,-63.92669,21.18958,-75.51909,LB
0.04077148,-0.2626953,-0.4001465,0.2144198,-0.1844428,0.3811603,-32.75199,-5.163425,-146.6452,-33.14921,-4.868498,-146.4016,-0.3757324,-0.9328613,0.2641602,0.02129769,0.2933664,-0.1223435,-64.30795,21.42685,-76.00556,-63.78645,21.18315,-75.28277,LB
0.04614258,-0.2612305,-0.401123,0.229687,-0.123374,0.3200917,-32.75184,-5.171969,-146.6384,-32.9021,-5.505963,-146.5222,-0.3757324,-0.9331055,0.2478027,0.5098474,0.04909158,-0.1223435,-64.29977,21.42429,-76.01035,-64.24933,21.26494,-76.16096,LB
0.04125977,-0.2641602,-0.3996582,0.06174803,-0.3218473,0.2895572,-32.76237,-5.17171,-146.6257,-33.32375,-4.922444,-146.2183,-0.3771973,-0.935791,0.2414551,0.2808397,0.2017633,-0.03074045,-64.29814,21.42518,-76.02142,-64.42471,21.32049,-76.54149,LB
0.04370117,-0.263916,-0.4018555,0.2602212,0.01403052,0.03001523,-32.7661,-5.171946,-146.6197,-33.14029,-5.193819,-146.3488,-0.3774414,-0.9335938,0.251709,0.4945802,0.09489316,-0.09180916,-64.28657,21.42453,-76.02167,-64.08289,21.32319,-75.96602,LB
0.04467773,-0.2592773,-0.4016113,-0.06038928,-0.1691756,0.06054974,-32.76538,-5.177783,-146.6219,-32.68563,-5.339435,-146.7709,-0.3647461,-0.9321289,0.2453613,0.3266413,0.06435877,-0.06127481,-64.29106,21.41154,-76.02667,-64.7514,20.72735,-76.22678,LB
0.04467773,-0.2565918,-0.4023438,-0.1367252,-0.1844428,0.3048244,-32.75958,-5.184093,-146.6263,-32.36843,-5.348711,-147.0835,-0.3742676,-0.9335938,0.2358398,0.219771,0.2780993,0.1371985,-64.29472,21.41247,-76.04007,-64.64642,21.24007,-76.80395,LB
0.06079102,-0.2602539,-0.3964844,-0.06038928,-0.3218473,0.2437558,-32.76475,-5.230912,-146.6108,-32.97639,-7.304235,-146.0172,-0.3737793,-0.9326172,0.255127,0.3419085,0.262832,0.2288015,-64.28645,21.41053,-76.03117,-64.11518,21.13557,-75.75227,LB
0.04541016,-0.2634277,-0.3979492,-0.04512215,-0.2302443,0.3048244,-32.77677,-5.238387,-146.5963,-33.33272,-5.435425,-146.1097,-0.3693848,-0.9309082,0.2458496,0.2808397,0.1864962,0.1677328,-64.28689,21.40485,-76.03224,-64.51508,20.98915,-76.2079,LB
0.04077148,-0.2561035,-0.3996582,0.1228168,-0.3065802,-0.07685494,-32.76978,-5.236311,-146.6059,-32.51741,-4.909292,-147.0214,-0.3710938,-0.9287109,0.2348633,0.2045038,0.09489316,0.03032825,-64.29197,21.40166,-76.04683,-64.69135,21.17557,-76.78424,LB
0.03833008,-0.2570801,-0.3947754,0.1533511,-0.5661222,0.2132213,-32.77112,-5.232936,-146.6034,-32.94961,-4.65148,-146.6389,-0.3718262,-0.9321289,0.2548828,0.4182443,0.09489316,-0.01547329,-64.28379,21.39593,-76.0411,-64.19051,21.04544,-75.74931,LB
0.04174805,-0.2573242,-0.3989258,0.1228168,-0.5355878,0.2437558,-32.76752,-5.236667,-146.6045,-32.68177,-5.025819,-146.8363,-0.371582,-0.9338379,0.2531738,-0.009236574,0.03382444,-0.2750153,-64.28404,21.38869,-76.04155,-64.28966,21.00903,-75.86125,LB
0.04882813,-0.2592773,-0.3955078,0.32129,-0.3218473,0.4116948,-32.76842,-5.254561,-146.5922,-33.04868,-5.894825,-146.2936,-0.3723145,-0.9304199,0.239502,0.1434351,0.2322977,-0.2902825,-64.28735,21.38798,-76.05617,-64.55481,21.18257,-76.55906,LB
0.04492188,-0.260498,-0.3937988,0.32129,-0.3371145,0.5490992,-32.77494,-5.262792,-146.5754,-33.31443,-5.434811,-146.128,-0.3706055,-0.932373,0.239502,0.2350382,0.262832,-0.5650916,-64.29185,21.38494,-76.07429,-64.67346,21.05609,-76.57431,LB
0.04418945,-0.2561035,-0.4020996,0.3670917,-0.5813893,0.2742901,-32.7608,-5.271997,-146.5824,-32.33807,-5.295757,-147.1243,-0.3710938,-0.9379883,0.2438965,0.2503054,0.2780993,-0.8093664,-64.29565,21.38037,-76.09285,-64.66592,20.9516,-76.40754,LB
0.04321289,-0.2590332,-0.407959,0.3518243,-0.4745191,0.5643663,-32.7458,-5.275731,-146.587,-32.269,-5.109898,-147.2296,-0.3740234,-0.9316406,0.2548828,0.4029771,0.2780993,-0.4734885,-64.28559,21.38021,-76.09304,-64.08841,21.16824,-75.75426,LB
0.04956055,-0.2590332,-0.4018555,0.3518243,-0.7035267,0.5490992,-32.73823,-5.298232,-146.5822,-32.60892,-5.918144,-146.7237,-0.3735352,-0.9279785,0.2490234,0.479313,0.262832,-0.504023,-64.27697,21.38111,-76.09851,-64.18343,21.24463,-76.02095,LB
0.04321289,-0.2626953,-0.3999023,0.2602212,0.0,0.5032978,-32.74261,-5.295481,-146.5701,-33.14842,-5.160683,-146.3472,-0.3745117,-0.9353027,0.251709,0.5556489,-0.05777865,-0.1223435,-64.26817,21.37543,-76.09779,-64.24492,21.13951,-75.9726,LB
0.04492188,-0.2607422,-0.4025879,0.2449541,-0.9172672,0.06054974,-32.73952,-5.310065,-146.5715,-32.76819,-5.350466,-146.6868,-0.3720703,-0.9309082,0.2553711,0.3724428,0.2933664,-0.336084,-64.26007,21.37381,-76.09496,-64.13727,21.07891,-75.70888,LB
0.04443359,-0.260498,-0.3994141,0.840374,-0.6271908,0.6559694,-32.73141,-5.319553,-146.5607,-32.95138,-5.323477,-146.5106,-0.3735352,-0.934082,0.2453613,0.3571756,0.5681756,-0.4124198,-64.25825,21.37758,-76.10499,-64.43118,21.1452,-76.29329,LB
0.04077148,-0.2553711,-0.4025879,0.5502977,-0.3065802,0.4574962,-32.71435,-5.315128,-146.5689,-32.25585,-4.888011,-147.285,-0.3879395,-0.9331055,0.2556152,0.4640458,0.1559618,-0.8399009,-64.23735,21.38917,-76.1105,-63.53185,21.84969,-75.80478,LB
0.04833984,-0.2607422,-0.4013672,0.4586947,-0.1691756,0.4727633,-32.70974,-5.326656,-146.5615,-32.82097,-5.767161,-146.5471,-0.3710938,-0.935791,0.2458496,0.2808397,0.2322977,-0.8399009,-64.23969,21.38448,-76.12616,-64.56019,20.98386,-76.27603,LB
0.04589844,-0.2614746,-0.3981934,0.2907557,-0.550855,0.2742901,-32.71362,-5.33829,-146.5524,-33.11774,-5.5035,-146.3089,-0.3774414,-0.9309082,0.2412109,-0.1771755,0.04909158,-0.6872291,-64.24358,21.3861,-76.14368,-64.3041,21.42966,-76.49741,LB
0.04931641,-0.2592773,-0.4001465,0.1533511,-0.8867329,0.5185649,-32.71214,-5.361794,-146.5461,-32.74468,-5.905174,-146.5922,-0.3735352,-0.9338379,0.2509766,0.2655725,-0.347855,-0.5650916,-64.24047,21.37603,-76.14834,-64.27042,21.12115,-75.98879,LB
0.0612793,-0.2541504,-0.3964844,0.4128931,-0.6271908,0.610168,-32.6989,-5.41205,-146.5382,-32.35378,-7.413615,-146.5999,-0.3681641,-0.935791,0.2539063,0.3724428,-0.8211374,-0.8399009,-64.23931,21.35227,-76.1543,-64.45617,20.79163,-75.82956,LB
0.04443359,-0.2624512,-0.407959,0.7945726,-0.7493282,0.5949008,-32.68526,-5.419497,-146.5362,-32.60075,-5.233625,-146.8763,-0.3789063,-0.9477539,0.2502441,0.9525955,-0.9127405,-0.9620381,-64.22852,21.33448,-76.16985,-64.40018,21.13384,-76.22443,LB
0.04101563,-0.2626953,-0.4023438,0.6571679,-1.069939,0.8239083,-32.68201,-5.424412,-146.5242,-33.00558,-4.878862,-146.5424,-0.3769531,-0.9294434,0.2438965,0.0,-0.6226641,-0.7482977,-64.22829,21.32703,-76.1841,-64.21673,21.41944,-76.33248,LB
0.04296875,-0.2631836,-0.3959961,0.1075497,-1.818031,0.7628398,-32.69597,-5.444143,-146.5041,-33.45406,-5.163779,-146.0432,-0.3701172,-0.9331055,0.2485352,0.7999237,-0.6531985,-0.427687,-64.22199,21.31095,-76.18816,-64.46236,20.97123,-76.09394,LB
0.03442383,-0.2580566,-0.3991699,-0.2283282,-2.016504,0.5185649,-32.70111,-5.447748,-146.5042,-32.78528,-4.142261,-146.8872,-0.3691406,-0.9294434,0.251709,0.8609924,-0.8516718,-0.1834122,-64.21142,21.29171,-76.18455,-64.32602,20.97452,-75.87251,LB
0.04516602,-0.2578125,-0.4055176,0.0,-1.39055,0.610168,-32.69283,-5.466625,-146.5083,-32.28693,-5.369543,-147.16,-0.3696289,-0.9343262,0.2561035,0.738855,-0.6226641,-0.1528779,-64.20231,21.27439,-76.17712,-64.2989,20.88368,-75.70068,LB
0.04174805,-0.2592773,-0.3979492,0.01594663,-0.6729923,0.610168,-32.69758,-5.467651,-146.5007,-32.94234,-5.023261,-146.5782,-0.3703613,-0.9318848,0.2556152,0.3724428,-0.5768626,-0.427687,-64.19727,21.25983,-76.17387,-64.22409,20.97059,-75.69953,LB
0.03735352,-0.2583008,-0.4018555,0.1838853,-0.291313,0.442229,-32.6935,-5.451715,-146.5046,-32.61971,-4.471021,-146.998,-0.3713379,-0.9250488,0.2514648,0.2503054,-0.4241909,-0.8093664,-64.1926,21.25231,-76.17831,-64.13551,21.17476,-75.84128,LB
0.04516602,-0.2624512,-0.4072266,0.2907557,-0.3523817,0.1368854,-32.68819,-5.454384,-146.5088,-32.64186,-5.326125,-146.817,-0.3708496,-0.9296875,0.2592773,0.2350382,-0.4089237,-0.6872291,-64.18623,21.24162,-76.17439,-64.04688,21.01849,-75.47741,LB
0.04125977,-0.2565918,-0.4003906,0.4281602,-0.3065802,0.1521528,-32.67847,-5.448976,-146.5167,-32.51661,-4.958645,-147.013,-0.3713379,-0.9338379,0.2646484,-0.03977096,-0.3936565,-0.7482977,-64.18256,21.22972,-76.16683,-63.97369,20.93587,-75.24656,LB
0.03808594,-0.2602539,-0.4018555,0.6419008,-0.4287176,0.3964274,-32.6717,-5.437264,-146.5164,-32.81155,-4.548284,-146.7941,-0.3696289,-0.9360352,0.253418,-0.222977,-0.1035802,-0.7177633,-64.1905,21.22091,-76.17136,-64.41564,20.86512,-75.86602,LB
0.04296875,-0.2634277,-0.3986816,0.32129,-0.6271908,0.1521528,-32.6799,-5.439889,-146.5079,-33.30262,-5.138268,-146.1985,-0.369873,-0.9294434,0.2529297,-0.299313,0.003290057,-0.7482977,-64.19601,21.21666,-76.17441,-64.2613,21.00614,-75.81045,LB
0.04492188,-0.2602539,-0.3962402,0.5655649,-0.6577252,0.1674199,-32.68058,-5.449022,-146.5016,-33.12958,-5.413112,-146.3157,-0.3684082,-0.9272461,0.2565918,-0.07030535,-0.1646488,-0.4734885,-64.19642,21.20896,-76.16943,-64.16442,20.95301,-75.57777,LB
0.03833008,-0.2634277,-0.3933105,0.3365571,-0.5050534,0.1216183,-32.69579,-5.44005,-146.488,-33.68791,-4.629213,-145.9089,-0.3652344,-0.9367676,0.2502441,0.05183208,-0.2104504,-0.504023,-64.2058,21.1945,-76.17393,-64.70341,20.64035,-76.02374,LB
0.04248047,-0.2592773,-0.4089355,0.1533511,-0.4897862,-0.07685494,-32.68436,-5.438726,-146.505,-32.23702,-5.013875,-147.2799,-0.3693848,-0.9333496,0.2578125,0.03656495,-0.02724427,-0.6566947,-64.20588,21.18782,-76.17201,-64.23688,20.88069,-75.5955,LB
0.03808594,-0.2641602,-0.4060059,0.07701516,-0.6577252,0.1368854,-32.68823,-5.429537,-146.5065,-32.93466,-4.495841,-146.6807,-0.3740234,-0.9335938,0.2458496,0.06709921,-0.1035802,-0.3971527,-64.20849,21.18609,-76.17968,-64.38576,21.17735,-76.26347,LB
0.03735352,-0.2595215,-0.394043,0.0922823,-0.5661222,0.3658931,-32.69814,-5.419799,-146.4982,-33.25176,-4.526536,-146.3602,-0.3662109,-0.9223633,0.2468262,-0.131374,-0.1035802,-0.4887558,-64.21455,21.18052,-76.18394,-64.41498,20.98382,-76.03304,LB
0.03955078,-0.2587891,-0.3964844,0.229687,-0.2302443,0.3048244,-32.70087,-5.410289,-146.495,-33.00315,-4.775075,-146.5637,-0.3718262,-0.9333496,0.255127,-0.299313,-0.5310611,-0.5803587,-64.21891,21.16952,-76.18382,-64.21301,21.02079,-75.75166,LB
0.04516602,-0.260498,-0.3942871,0.5044961,0.1514351,0.04528236,-32.70553,-5.409195,-146.4876,-33.28044,-5.459488,-146.1566,-0.3706055,-0.9343262,0.253418,-0.2840458,-0.5615954,-0.8093664,-64.22512,21.15738,-76.18824,-64.33469,20.94804,-75.84943,LB
0.03833008,-0.262207,-0.4016113,0.6571679,-0.1539084,0.07581687,-32.70219,-5.394657,-146.4884,-33.02121,-4.569142,-146.5821,-0.3833008,-0.9309082,0.2548828,0.2045038,-0.4089237,-0.9009695,-64.21139,21.16142,-76.19357,-63.68883,21.65963,-75.79249,LB
0.04296875,-0.2578125,-0.4111328,0.5350306,-0.4745191,0.182687,-32.6793,-5.394939,-146.507,-31.95103,-5.060007,-147.5547,-0.3679199,-0.9372559,0.2514648,-0.03977096,-0.2715191,-0.7788321,-64.21914,21.14947,-76.20069,-64.56991,20.76378,-75.97746,LB
0.04199219,-0.260498,-0.4018555,0.2754886,-0.5966565,0.3964274,-32.67788,-5.396034,-146.5052,-32.81099,-5.011125,-146.7108,-0.373291,-0.9345703,0.2548828,0.0976336,-0.01197708,-0.7330306,-64.2171,21.14779,-76.2032,-64.1891,21.07422,-75.7875,LB
0.04199219,-0.2602539,-0.4072266,0.1533511,-0.6577252,0.3353589,-32.67097,-5.397099,-146.5119,-32.44484,-4.965893,-147.0828,-0.371582,-0.9331055,0.2495117,-0.009236574,-0.05777865,-0.6414275,-64.22038,21.14483,-76.20954,-64.37441,21.04197,-76.04866,LB
0.03808594,-0.2619629,-0.4057617,0.04648089,-0.4745191,0.1979542,-32.67115,-5.390029,-146.5148,-32.7322,-4.508818,-146.8798,-0.3723145,-0.9316406,0.2536621,0.03656495,0.07962596,-0.6719618,-64.21901,21.14545,-76.21672,-64.19297,21.08643,-75.81111,LB
0.04174805,-0.2626953,-0.4023438,0.06174803,-0.6271908,0.5185649,-32.67683,-5.390759,-146.5075,-33.00074,-4.965553,-146.5311,-0.3637695,-0.9367676,0.2585449,0.1434351,-0.347855,-0.7482977,-64.22305,21.12788,-76.21482,-64.52623,20.52232,-75.57188,LB
0.04199219,-0.262207,-0.4147949,0.1533511,-0.7645955,0.4727633,-32.66438,-5.392004,-146.5178,-32.16669,-4.891021,-147.373,-0.3625488,-0.9279785,0.2509766,-0.1161069,-0.2562519,-0.7330306,-64.23198,21.11482,-76.21851,-64.58455,20.66332,-75.86068,LB
0.04370117,-0.2568359,-0.3947754,0.3365571,-0.5966565,0.1368854,-32.66391,-5.398961,-146.517,-32.88822,-5.301284,-146.5777,-0.3632813,-0.9326172,0.2492676,-0.2840458,-0.04251146,-0.9162367,-64.24578,21.10434,-76.22791,-64.71354,20.62227,-76.015,LB
0.03491211,-0.2634277,-0.402832,0.6266336,-0.1844428,0.1979542,-32.6631,-5.376665,-146.5155,-33.08413,-4.148642,-146.5889,-0.3713379,-0.9372559,0.244873,-0.1771755,-0.2257175,0.0,-64.2557,21.09841,-76.2303,-64.61163,20.97332,-76.34744,LB
0.04345703,-0.2597656,-0.3999023,0.7029693,-0.2302443,0.2895572,-32.65726,-5.376431,-146.5139,-32.8532,-5.207022,-146.6311,-0.3725586,-0.9328613,0.25,-0.1924427,-0.347855,0.0,-64.25951,21.09356,-76.22618,-64.31453,21.09459,-76.02423,LB
0.03955078,-0.2626953,-0.4042969,0.7182367,-0.2302443,0.2437558,-32.65135,-5.366077,-146.5138,-32.8896,-4.689514,-146.6918,-0.3713379,-0.9367676,0.2539063,0.02129769,-0.08831299,-0.9925726,-64.26099,21.08912,-76.2334,-64.34924,20.93678,-75.85755,LB
0.04394531,-0.2646484,-0.4104004,0.4434273,-0.291313,0.350626,-32.64515,-5.365882,-146.5149,-32.66754,-5.142242,-146.828,-0.3671875,-0.9313965,0.2456055,-0.02450383,-0.1493817,-0.8857023,-64.26864,21.08248,-76.24607,-64.62526,20.86697,-76.21638,LB
0.03808594,-0.2592773,-0.4008789,0.3365571,-0.6577252,0.3048244,-32.64283,-5.359455,-146.5167,-32.77639,-4.561095,-146.8268,-0.3735352,-0.9382324,0.2480469,0.1892367,-0.1035802,-0.3513512,-64.26961,21.08035,-76.25031,-64.45631,21.05183,-76.19986,LB
0.04736328,-0.2636719,-0.4025879,0.3060229,-0.8409313,0.2284887,-32.64632,-5.377044,-146.5102,-33.04225,-5.62081,-146.3592,-0.369873,-0.9321289,0.2644043,0.2655725,0.1254275,-0.3971527,-64.26028,21.07846,-76.23574,-63.99849,20.89405,-75.22964,LB
0.03808594,-0.2614746,-0.4030762,0.32129,-0.7951298,0.5490992,-32.64609,-5.371059,-146.5075,-32.85523,-4.532367,-146.7534,-0.3684082,-0.9350586,0.2434082,0.5709161,0.07962596,-0.06127481,-64.26169,21.07541,-76.23958,-64.72222,20.87124,-76.38551,LB
0.04052734,-0.2634277,-0.4111328,0.4128931,-0.6729923,0.1521528,-32.63757,-5.368423,-146.516,-32.52345,-4.744617,-147.0457,-0.3708496,-0.9377441,0.2536621,0.5251145,0.2322977,0.09139694,-64.25672,21.07521,-76.23105,-64.39939,20.89435,-75.8804,LB
0.04101563,-0.2609863,-0.407959,0.0922823,-0.3981832,0.2284887,-32.63301,-5.363726,-146.5238,-32.47788,-4.84088,-147.0734,-0.3652344,-0.9333496,0.2612305,0.2808397,0.4613054,-0.03074045,-64.25361,21.07345,-76.21471,-64.30748,20.64813,-75.39145,LB
0.04248047,-0.2624512,-0.3959961,0.04648089,-0.01650381,0.1368854,-32.64735,-5.358889,-146.5138,-33.38412,-5.109741,-146.1231,-0.3735352,-0.9467773,0.2490234,0.1739695,0.59871,0.1219313,-64.2586,21.07847,-76.21365,-64.6311,20.88464,-76.25161,LB
0.03735352,-0.2653809,-0.4091797,0.0922823,-0.001236677,-0.04632068,-32.6502,-5.339325,-146.5197,-32.8577,-4.379766,-146.7768,-0.369873,-0.9335938,0.2478027,0.3724428,0.59871,0.06086259,-64.25804,21.08476,-76.21124,-64.50455,20.95297,-76.13818,LB
0.03979492,-0.2600098,-0.4020996,0.03121376,0.07509923,0.259023,-32.65195,-5.326449,-146.5217,-32.76073,-4.750744,-146.8089,-0.3701172,-0.9335938,0.2546387,0.4945802,0.5834427,0.3509389,-64.25167,21.09025,-76.1973,-64.3028,20.93046,-75.77233,LB
0.04345703,-0.260498,-0.3913574,0.1991527,-0.1539084,0.091084,-32.66573,-5.327807,-146.5097,-33.48706,-5.281225,-145.9875,-0.369873,-0.9394531,0.251709,0.5403817,0.6750459,0.0,-64.24939,21.0948,-76.19338,-64.53478,20.82167,-76.00124,LB
0.04418945,-0.2531738,-0.4082031,0.06174803,0.1667023,0.2132213,-32.64468,-5.323925,-146.5324,-31.65852,-5.256196,-147.8058,-0.3730469,-0.9348145,0.2539063,0.219771,0.9193206,0.2746031,-64.24582,21.10767,-76.18231,-64.23232,21.06206,-75.84159,LB
0.03759766,-0.2585449,-0.3979492,0.1228168,0.2430381,0.2132213,-32.64801,-5.304709,-146.5331,-32.89531,-4.529855,-146.714,-0.3691406,-0.9313965,0.2570801,0.219771,0.7513816,0.4578092,-64.2423,21.114,-76.16456,-64.22073,20.90908,-75.60854,LB
0.04418945,-0.260498,-0.3945313,0.2602212,-0.031771,0.182687,-32.65665,-5.305879,-146.5236,-33.27165,-5.339847,-146.1896,-0.3676758,-0.9331055,0.253418,0.3419085,0.6445115,0.4578092,-64.24095,21.11759,-76.15092,-64.42597,20.81982,-75.81947,LB
0.04223633,-0.2634277,-0.4023438,0.229687,0.5941832,-0.1837251,-32.66155,-5.29141,-146.5248,-33.07037,-5.019169,-146.4518,-0.3657227,-0.9289551,0.2539063,0.3571756,0.7971831,0.5646794,-64.23875,21.12286,-76.13422,-64.39297,20.7949,-75.73077,LB
0.03295898,-0.260498,-0.3962402,0.1991527,0.487313,-0.1531909,-32.67022,-5.258414,-146.5258,-33.23129,-3.975915,-146.4689,-0.3703613,-0.9328613,0.2600098,0.08236647,0.9651221,0.4730763,-64.23529,21.13222,-76.11457,-64.12262,20.92881,-75.4766,LB
0.04370117,-0.2636719,-0.4001465,0.1533511,0.8231909,-0.687542,-32.67909,-5.245358,-146.5306,-33.22654,-5.210654,-146.2599,-0.3662109,-0.9284668,0.2497559,-0.1466411,1.209397,0.5952138,-64.24232,21.14437,-76.10255,-64.47917,20.85112,-75.95099,LB
0.046875,-0.2575684,-0.4025879,0.2907557,0.0,-0.4890685,-32.66994,-5.252483,-146.5465,-32.43549,-5.601593,-146.9644,-0.3674316,-0.9375,0.2543945,-0.3756489,1.362069,0.6562824,-64.25327,21.15589,-76.08729,-64.51301,20.71905,-75.8213,LB
0.04370117,-0.2644043,-0.4042969,0.2907557,0.0,-0.4127328,-32.6729,-5.250815,-146.5509,-33.03185,-5.169122,-146.4613,-0.3688965,-0.9318848,0.2387695,-0.4519846,1.453672,0.5799466,-64.26993,21.17375,-76.08902,-64.75397,20.98048,-76.59993,LB
0.04418945,-0.2602539,-0.4035645,0.3823588,0.0,-0.4432673,-32.66707,-5.250953,-146.5626,-32.66217,-5.257674,-146.8106,-0.3710938,-0.9343262,0.2475586,-0.1924427,1.484206,0.8852901,-64.27692,21.19216,-76.07755,-64.47808,21.00329,-76.16628,LB
0.03808594,-0.2619629,-0.3979492,0.2754886,1.067466,-0.5959387,-32.67468,-5.222698,-146.5669,-33.23634,-4.570494,-146.368,-0.3671875,-0.9335938,0.2468262,-0.1771755,0.9803894,0.9005573,-64.28667,21.19814,-76.06719,-64.64342,20.81884,-76.17765,LB
0.03955078,-0.262207,-0.4001465,0.4281602,1.235405,-0.5959387,-32.67706,-5.194604,-146.5736,-33.10837,-4.726036,-146.468,-0.3679199,-0.9328613,0.2521973,-0.03977096,0.7971831,0.0,-64.29042,21.20276,-76.06351,-64.44464,20.84339,-75.88318,LB
0.04345703,-0.2641602,-0.3925781,0.3060229,1.098,-0.5806718,-32.69451,-5.179519,-146.5649,-33.77462,-5.247358,-145.7087,-0.3718262,-0.9353027,0.2539063,-0.1161069,0.5834427,0.9921603,-64.2922,21.20708,-76.04449,-64.29418,20.98984,-75.84161,LB
0.04541016,-0.2636719,-0.3964844,0.1228168,0.746855,-0.870748,-32.70787,-5.173905,-146.5661,-33.45295,-5.447743,-145.9879,-0.3688965,-0.9309082,0.2612305,-0.05503809,1.08726,0.0,-64.28916,21.2166,-76.03117,-64.10002,20.88376,-75.37847,LB
0.04174805,-0.2634277,-0.4042969,0.1686182,1.20487,-0.7791452,-32.7102,-5.151609,-146.578,-32.94823,-4.944706,-146.5871,-0.3708496,-0.9226074,0.2436523,-0.1771755,1.51474,0.0,-64.29227,21.23929,-76.03518,-64.3147,21.23783,-76.23172,LB
0.04199219,-0.260498,-0.4030762,-0.04512215,1.632351,-0.7333436,-32.71127,-5.126191,-146.5923,-32.73275,-5.000479,-146.7905,-0.3632813,-0.9267578,0.2541504,-0.3756489,1.530008,0.0,-64.30025,21.24966,-76.02802,-64.43373,20.7083,-75.67719,LB
0.04052734,-0.2629395,-0.3986816,-0.04512215,1.754489,-0.8249464,-32.72311,-5.094886,-146.5983,-33.27052,-4.850471,-146.2844,-0.3730469,-0.9326172,0.2407227,-0.9405342,1.667412,0.0,-64.31894,21.27261,-76.03792,-64.54322,21.17169,-76.52301,LB
0.04370117,-0.2641602,-0.40625,-0.5489388,1.876626,-0.7028093,-32.73439,-5.068465,-146.6089,-32.88309,-5.153179,-146.612,-0.3666992,-0.9304199,0.2497559,-0.8794656,1.621611,0.8394885,-64.3356,21.28778,-76.02437,-64.50571,20.83916,-75.97793,LB
0.0456543,-0.262207,-0.3972168,-0.4878702,1.327008,-0.5196033,-32.752,-5.057171,-146.6079,-33.25659,-5.479124,-146.1763,-0.3679199,-0.9343262,0.2490234,-0.650458,0.9345879,0.7631527,-64.34983,21.2924,-76.01411,-64.5689,20.83173,-76.07206,LB
0.04174805,-0.2585449,-0.3974609,-0.2130611,0.9758626,-0.4127328,-32.75809,-5.042318,-146.6142,-32.90014,-5.031785,-146.6184,-0.3701172,-0.9360352,0.2458496,-0.4672519,0.4002366,0.6257481,-64.36184,21.29101,-76.01011,-64.60662,20.92876,-76.27429,LB
0.04370117,-0.2634277,-0.3981934,0.1838853,0.7773893,0.0,-32.76699,-5.035403,-146.605,-33.32927,-5.229805,-146.1542,-0.3747559,-0.9289551,0.2548828,0.03656495,0.2017633,0.3967404,-64.35397,21.29312,-75.99895,-63.99317,21.25795,-75.72401,LB
0.04248047,-0.2595215,-0.3989258,0.4281602,0.4720459,-0.1989923,-32.76333,-5.029771,-146.6079,-32.89856,-5.10076,-146.6068,-0.3703613,-0.9348145,0.2495117,0.2045038,0.4155039,0.3356718,-64.3532,21.29229,-75.99532,-64.46581,20.94617,-76.06383,LB
0.03881836,-0.265625,-0.4052734,0.3365571,-0.0470382,-0.1837251,-32.76555,-5.021471,-146.6081,-33.12186,-4.580167,-146.4801,-0.3691406,-0.932373,0.2463379,-0.1466411,0.0,0.7784199,-64.35922,21.28536,-75.98794,-64.54667,20.94588,-76.19841,LB
0.04272461,-0.2648926,-0.3996582,-0.2588627,-0.031771,-0.1226563,-32.78178,-5.023348,-146.6002,-33.38659,-5.092027,-146.124,-0.3649902,-0.9326172,0.2478027,0.02129769,0.7361145,0.6562824,-64.3654,21.28484,-75.98058,-64.68413,20.71848,-76.10228,LB
0.04223633,-0.2597656,-0.394043,-0.1825268,0.319374,-0.2447939,-32.79371,-5.020463,-146.5971,-33.24392,-5.113832,-146.2615,-0.3701172,-0.9260254,0.2424316,-0.4519846,1.224664,0.5799466,-64.37398,21.29993,-75.97916,-64.4619,21.13914,-76.33645,LB
0.04345703,-0.2626953,-0.4001465,-0.1672597,1.098,-0.5654044,-32.80291,-5.007663,-146.6006,-33.13088,-5.187481,-146.3594,-0.3725586,-0.9291992,0.2429199,-0.7725954,1.08726,0.6257481,-64.3863,21.31395,-75.9776,-64.42204,21.20173,-76.36069,LB
0.04785156,-0.2536621,-0.3955078,-0.04512215,1.296473,-0.4738016,-32.79718,-5.006023,-146.6125,-32.48551,-5.815045,-146.8687,-0.3769531,-0.9265137,0.2458496,-0.558855,0.873519,0.3509389,-64.3881,21.32899,-75.97706,-64.09255,21.46686,-76.19125,LB
0.04248047,-0.2602539,-0.3942871,0.03121376,1.113267,-0.6264734,-32.80629,-4.9923,-146.614,-33.27545,-5.138115,-146.2255,-0.369873,-0.927002,0.2597656,-0.7267939,0.9040535,0.1524656,-64.39117,21.33604,-75.9635,-64.00753,21.01677,-75.41137,LB
0.04516602,-0.2626953,-0.3984375,0.06174803,1.159069,-0.8096795,-32.81385,-4.983542,-146.618,-33.22953,-5.406334,-146.218,-0.373291,-0.9257813,0.2480469,-0.9099999,0.690313,-0.0002061129,-64.40008,21.34506,-75.96513,-64.16746,21.2799,-76.04508,LB
0.04370117,-0.2597656,-0.4018555,0.1075497,0.8079236,0.0,-32.8104,-4.975569,-146.6207,-32.72589,-5.218277,-146.7552,-0.3725586,-0.9311523,0.25,0.0,0.7666489,-0.01547329,-64.39754,21.35273,-75.96613,-64.27347,21.12752,-76.00298,LB
0.04174805,-0.2666016,-0.4023438,0.1686182,0.7621221,-0.8249464,-32.81964,-4.964473,-146.6226,-33.38819,-4.943578,-146.1504,-0.3737793,-0.9333496,0.2392578,0.0,0.9193206,0.2288015,-64.40099,21.36235,-75.97595,-64.56947,21.20266,-76.61429,LB
0.04467773,-0.2597656,-0.404541,0.0006792545,0.4109771,-0.687542,-32.8142,-4.965329,-146.6385,-32.5478,-5.309315,-146.9136,-0.3730469,-0.9233398,0.2434082,0.0,0.7055801,0.09139694,-64.3979,21.37226,-75.98038,-64.24658,21.33921,-76.26494,LB
0.0480957,-0.2575684,-0.4018555,-0.2283282,0.4262443,-0.4890685,-32.81073,-4.974834,-146.6508,-32.47292,-5.753879,-146.8946,-0.3764648,-0.9382324,0.239502,-0.7573281,0.4002366,0.07612977,-64.41238,21.3756,-75.99309,-64.56582,21.24518,-76.67181,LB
0.04736328,-0.2619629,-0.4033203,-0.09092379,-0.0470382,-0.3516641,-32.81236,-4.98852,-146.6545,-32.82537,-5.624527,-146.5733,-0.3769531,-0.9328613,0.2441406,-0.5283206,0.6445115,0.1371985,-64.41776,21.38459,-75.99842,-64.2924,21.35137,-76.36079,LB
0.02929688,-0.4121094,-0.2646484,0.01594663,-1.024137,-0.168458,-55.10476,-0.725045,-124.2882,-57.13338,-3.42323,-122.6421,0.1352539,-0.987793,0.3383789,0.05183208,0.7513816,0.4272748,-69.7263,-6.725686,-70.83016,-69.75036,-7.380753,-71.25311,LR
0.01855469,-0.40625,-0.2670898,-0.5336719,-1.207344,0.0,-55.14278,-0.7720033,-124.2684,-56.61366,-2.185565,-123.2956,0.1359863,-0.9890137,0.3366699,0.5403817,0.4002366,0.9463588,-69.72063,-6.733609,-70.82692,-69.84032,-7.416042,-71.364,LR
0.02148438,-0.4099121,-0.2717285,-1.220695,-1.39055,-0.2295268,-55.18542,-0.8270322,-124.2564,-56.37755,-2.501402,-123.504,0.1394043,-0.9909668,0.3476563,0.219771,0.06435877,1.358572,-69.70888,-6.749219,-70.80726,-69.29447,-7.561414,-70.84253,LR
0.01977539,-0.4040527,-0.2717285,-1.617641,-1.131008,-0.6264734,-55.22567,-0.8736306,-124.2583,-56.00875,-2.325669,-123.8894,0.1403809,-0.9848633,0.3378906,-0.03977096,0.3086336,1.541779,-69.70766,-6.763269,-70.79325,-69.61919,-7.678558,-71.23991,LR
0.02050781,-0.4042969,-0.2751465,-2.014588,-1.11574,-0.1531909,-55.26455,-0.9205849,-124.2595,-55.68868,-2.401275,-124.2032,0.128418,-0.9819336,0.3408203,-0.131374,0.09489316,1.724985,-69.70844,-6.767473,-70.77221,-69.64957,-7.043207,-71.00858,LR
0.01806641,-0.4018555,-0.2753906,-2.350466,-1.283679,-0.260061,-55.3042,-0.96352,-124.266,-55.51986,-2.123837,-124.3958,0.1264648,-0.9821777,0.3366699,0.2961069,-0.2257175,1.618114,-69.7077,-6.774333,-70.75745,-69.88905,-6.944565,-71.22338,LR
0.01879883,-0.3964844,-0.2614746,-2.548939,-1.39055,0.06054974,-55.36365,-1.008661,-124.2474,-56.52792,-2.266664,-123.3746,0.1254883,-0.9790039,0.3364258,0.3266413,-0.4852595,1.495977,-69.70624,-6.783739,-70.74535,-69.85856,-6.911771,-71.17821,LR
0.01904297,-0.3945313,-0.2746582,-2.27413,-1.268412,0.5643663,-55.39386,-1.053746,-124.2498,-55.09132,-2.268495,-124.813,0.1271973,-0.9797363,0.3413086,0.6319848,-0.347855,1.389107,-69.69433,-6.793312,-70.72749,-69.6062,-6.98967,-70.94158,LR
0.02050781,-0.4057617,-0.2705078,-1.984054,-1.207344,0.8849771,-55.43789,-1.097397,-124.2258,-56.23412,-2.408045,-123.6563,0.128418,-0.9794922,0.347168,0.0,-0.4241909,1.114298,-69.6864,-6.804156,-70.7104,-69.29803,-7.044568,-70.63703,LR
0.01611328,-0.404541,-0.2697754,-1.770313,-0.9172672,1.129252,-55.48025,-1.126893,-124.1982,-56.25484,-1.897992,-123.6771,0.1259766,-0.9821777,0.3417969,0.8915268,-0.04251146,1.053229,-69.67259,-6.806838,-70.69984,-69.65102,-6.906985,-70.95679,LR
0.01416016,-0.4020996,-0.2697754,-1.984054,0.0,1.007115,-55.52192,-1.137856,-124.1763,-56.10519,-1.675058,-123.8419,0.1286621,-0.9802246,0.3361816,0.0,-0.1646488,0.9310915,-69.67586,-6.814672,-70.69655,-69.83559,-7.07755,-71.21954,LR
0.01611328,-0.4067383,-0.2746582,-2.136725,-0.9783359,1.037649,-55.56137,-1.167089,-124.1577,-55.92435,-1.880427,-124.0091,0.1320801,-0.9814453,0.3549805,0.9678626,0.2933664,0.8700229,-69.64606,-6.818319,-70.67542,-68.89755,-7.212642,-70.27927,LR
0.015625,-0.4033203,-0.2729492,-2.045122,0.0,0.8849771,-55.59757,-1.180501,-124.1429,-55.86809,-1.83766,-124.0684,0.1252441,-0.9858398,0.3481445,0.9678626,0.7055801,0.9463588,-69.62749,-6.808202,-70.66186,-69.42879,-6.831066,-70.69315,LR
0.015625,-0.4042969,-0.2800293,-2.075656,-0.8409313,0.9307787,-55.62115,-1.205647,-124.1401,-55.25056,-1.819715,-124.6877,0.1218262,-0.989502,0.3427734,0.8151909,0.0,0.5952138,-69.61925,-6.804753,-70.6604,-69.81462,-6.635745,-71.02631,LR
0.01977539,-0.4018555,-0.2722168,-1.632908,-0.4745191,0.0,-55.64745,-1.234706,-124.1389,-55.81625,-2.333078,-124.0815,0.125,-0.9916992,0.3422852,0.4335115,0.0,0.2746031,-69.6174,-6.804552,-70.66536,-69.82436,-6.794696,-71.09671,LR
0.02148438,-0.4025879,-0.2746582,-1.113824,-0.4592519,0.0,-55.66319,-1.267246,-124.1415,-55.61555,-2.524175,-124.2651,0.130127,-0.9863281,0.3405762,0.5098474,0.9193206,-0.09180916,-69.61183,-6.797115,-70.67545,-69.71353,-7.108411,-71.10235,LR
0.01879883,-0.3999023,-0.2717285,-0.381,-0.550855,0.0,-55.67034,-1.294532,-124.142,-55.74078,-2.226646,-124.1662,0.1196289,-0.9873047,0.3479004,0.6014504,0.9193206,-0.2597481,-69.60203,-6.778048,-70.68015,-69.56339,-6.519466,-70.71938,LR
0.01782227,-0.4033203,-0.2729492,0.03121376,-0.4897862,0.0,-55.67361,-1.317278,-124.1404,-55.85501,-2.095865,-124.0625,0.1264648,-0.9821777,0.3400879,0.0976336,0.858252,-0.5650916,-69.60314,-6.769456,-70.69522,-69.72454,-6.937198,-71.0463,LR
0.0168457,-0.4020996,-0.2722168,0.1686182,-0.3371145,0.9765801,-55.67469,-1.335626,-124.1247,-55.8516,-1.986912,-124.0742,0.119873,-0.9807129,0.3417969,0.1129008,0.59871,-0.6261602,-69.604,-6.756946,-70.70886,-69.72923,-6.584031,-70.91724,LR
0.01635742,-0.4023438,-0.2932129,0.3365571,-0.3523817,0.350626,-55.63374,-1.351731,-124.1583,-53.87447,-1.881842,-126.0606,0.1096191,-0.9765625,0.3466797,-0.2382443,0.690313,-0.7788321,-69.60699,-6.732428,-70.71749,-69.5785,-6.038413,-70.56796,LR
0.01733398,-0.3977051,-0.2739258,0.580832,-0.06230533,0.2895572,-55.62086,-1.366665,-124.1618,-55.38874,-2.05573,-124.5323,0.1191406,-0.9782715,0.3347168,-0.558855,0.781916,-0.5192901,-69.62332,-6.718514,-70.73507,-70.04,-6.573131,-71.24036,LR
