xa_S1,ya_S1,za_S1,xgb_S1,ybg_S1,zbg_S1,tilt_x_S1,tilt_y_S1,tilt_z_S1,tilt_accx_S1,tilt_accy_S1,tilt_accz_S1,xa_S2,ya_S2,za_S2,xgb_S2,ybg_S2,zbg_S2,tilt_x_S2,tilt_y_S2,tilt_z_S2,tilt_accx_S2,tilt_accy_S2,tilt_accz_S2,Posture
-0.1135254,-0.2167969,1.101563,0.03656495,-0.4852595,0.09139694,-10.97895,5.867624,-12.51008,-11.07679,5.774052,-12.52536,0.002441406,0.1503906,-0.4492188,-0.1061909,-0.5203207,-0.1989923,17.99244,-0.5462968,-162.0353,18.50939,-0.2952793,-161.4881,LR
-0.1118164,-0.213623,1.089844,0.4182443,-0.866939,0.1371985,-10.9739,5.852514,-12.50737,-11.0336,5.749316,-12.4752,0.001953125,0.1489258,-0.447998,-0.02985501,-0.6577252,0.03001523,17.99994,-0.5491356,-162.0264,18.38794,-0.2370356,-161.6104,LR
-0.1135254,-0.2158203,1.086426,0.1434351,-0.3173206,0.2746031,-10.97598,5.848148,-12.50647,-11.17632,5.851906,-12.65084,0.0,0.1513672,-0.4477539,-0.07565641,-0.5050534,0.06054974,18.0124,-0.5455771,-162.0114,18.67828,-0.0,-161.3217,LR
-0.1206055,-0.2111816,1.096924,0.3266413,-0.4089237,0.01506107,-10.96833,5.848416,-12.50613,-10.83362,6.162135,-12.50059,0.009277344,0.1464844,-0.4453125,-0.02985501,-0.4134504,0.07581687,18.01581,-0.5634181,-162.0052,18.20479,-1.133742,-161.7574,LR
-0.1152344,-0.2092285,1.095215,0.2655725,0.2017633,-0.03074045,-10.96021,5.852422,-12.50253,-10.75742,5.900414,-12.30337,0.001708984,0.1472168,-0.4616699,-0.07565641,-0.4592519,-0.0005190372,18.0081,-0.5629422,-162.0114,17.68627,-0.2020686,-162.3125,LR
-0.1120605,-0.2043457,1.099854,0.2961069,0.171229,0.1219313,-10.94609,5.852298,-12.48996,-10.47217,5.72038,-11.96382,-0.004150391,0.1394043,-0.4609375,-0.2283282,-0.4287176,-0.04632068,17.98112,-0.5481095,-162.0352,16.82659,0.4938026,-163.1657,LR
-0.1132813,-0.2165527,1.090576,0.1587023,0.3697023,0.01506107,-10.94829,5.857036,-12.49256,-11.17239,5.817431,-12.63101,0.002929688,0.1411133,-0.4511719,-0.1214581,-0.642458,0.04528236,17.96706,-0.5536932,-162.0463,17.3678,-0.3550829,-162.6283,LR
-0.1147461,-0.2089844,1.094971,0.08236647,0.3849695,0.07612977,-10.94307,5.863095,-12.48726,-10.74796,5.877083,-12.28359,0.008300781,0.1499023,-0.4516602,-0.1519923,-0.2149771,-0.1531909,17.97264,-0.5657654,-162.0399,18.35769,-0.9992968,-161.6132,LR
-0.1147461,-0.2143555,1.096436,0.00603056,0.2780993,-0.01547329,-10.94418,5.867206,-12.4878,-11.00331,5.864247,-12.50307,-0.0009765625,0.1472168,-0.4501953,0.1380839,0.04456491,0.091084,17.97738,-0.5514324,-162.0356,18.10804,0.11813,-161.8915,LR
-0.1176758,-0.232666,1.085693,0.1434351,0.6597786,0.1371985,-10.96374,5.880555,-12.50611,-12.02726,6.049703,-13.50399,0.002441406,0.1503906,-0.4560547,0.3060229,0.319374,0.1063511,17.98734,-0.5415349,-162.0283,18.25047,-0.2912905,-161.747,LR
-0.1120605,-0.2116699,1.0979,0.08236647,0.2322977,0.0,-10.9604,5.880823,-12.50211,-10.8574,5.72321,-12.30608,0.004638672,0.1481934,-0.4470215,0.4586947,0.227771,0.091084,18.00114,-0.5386425,-162.0194,18.3401,-0.5643282,-161.6506,LR
-0.1147461,-0.2133789,1.103271,0.03656495,0.1254275,0.0,-10.95843,5.88166,-12.49977,-10.88886,5.830437,-12.38539,0.0004882813,0.152832,-0.4516602,0.3365571,-0.09283972,-0.0005190372,18.01996,-0.5304079,-162.0051,18.6947,-0.05867333,-161.3052,LR
-0.107666,-0.2141113,1.09375,0.1434351,-0.3020534,0.1524656,-10.95764,5.869944,-12.49472,-11.02413,5.517873,-12.35906,0.004150391,0.1540527,-0.4416504,0.2144198,-0.2607787,0.1216183,18.04728,-0.5338007,-161.9785,19.22857,-0.5083808,-160.7642,LR
-0.1118164,-0.2160645,1.097412,0.02129769,-0.439458,0.06086259,-10.95982,5.860264,-12.49392,-11.0823,5.708992,-12.49965,0.008056641,0.1479492,-0.4519043,0.1228168,-0.5813893,-0.2447939,18.05065,-0.5510848,-161.9795,18.12527,-0.9706856,-161.8469,LR
-0.1135254,-0.2131348,1.093018,0.1739695,-0.6226641,0.2898702,-10.95759,5.850323,-12.48895,-10.97642,5.820859,-12.45841,0.0009765625,0.1459961,-0.4482422,-0.06038928,-0.4592519,-0.1226563,18.04956,-0.5491879,-161.9809,18.04081,-0.1186902,-161.9588,LR
-0.1130371,-0.2226563,1.093994,0.2045038,-0.866939,0.2593359,-10.96433,5.836202,-12.49251,-11.44475,5.781461,-12.8576,0.0007324219,0.1477051,-0.4580078,0.06174803,-0.5355878,-0.4127328,18.04696,-0.5478214,-161.9898,17.87421,-0.08720182,-162.1256,LR
-0.1125488,-0.2126465,1.098877,0.2655725,-0.347855,-0.07654199,-10.95907,5.829207,-12.49078,-10.89645,5.742145,-12.3498,0.002197266,0.1413574,-0.4519043,0.01594663,-0.1691756,0.07581687,18.03365,-0.5446694,-162.0015,17.36969,-0.2658795,-162.6281,LR
-0.1154785,-0.2287598,1.089844,0.3724428,0.1101603,0.04559542,-10.97021,5.832649,-12.50493,-11.79023,5.920354,-13.23158,0.006591797,0.1455078,-0.4487305,-0.2283282,-0.5050534,-0.3974657,18.02712,-0.5611714,-162.0107,17.96428,-0.8005757,-162.0167,LR
-0.1135254,-0.215332,1.096191,0.1739695,0.171229,0.03032825,-10.968,5.835907,-12.50455,-11.05582,5.802557,-12.5202,0.001464844,0.1472168,-0.451416,-0.07565641,-0.550855,0.04528236,18.02671,-0.5615808,-162.0086,18.06221,-0.1767617,-161.9369,LR
-0.1115723,-0.2141113,1.110352,0.1587023,0.01855725,0.03032825,-10.96353,5.83216,-12.49936,-10.86111,5.634911,-12.26756,-0.001953125,0.1523438,-0.4384766,0.07701516,-0.0470382,-0.1226563,18.05049,-0.5462191,-161.987,19.15903,0.2410774,-160.8393,LR
-0.1115723,-0.213623,1.098145,0.3113741,-0.1493817,0.1219313,-10.95875,5.827228,-12.49515,-10.9533,5.695344,-12.37819,-0.002197266,0.1481934,-0.4506836,0.01594663,-0.07757253,-0.0310533,18.05375,-0.5311279,-161.9836,18.20165,0.2653606,-161.7963,LR
-0.1152344,-0.2119141,1.101563,0.2350382,-0.3631221,0.01506107,-10.95275,5.822649,-12.49206,-10.8316,5.865212,-12.3516,0.002929688,0.1491699,-0.4436035,-0.1672597,-0.4592519,0.1063511,18.06177,-0.5348796,-161.9705,18.5858,-0.3586582,-161.4105,LR
-0.119873,-0.21875,1.102051,0.1587023,-0.699,0.2593359,-10.95446,5.817034,-12.49322,-11.16274,6.089919,-12.75361,0.001708984,0.1425781,-0.4562988,-0.1519923,-0.6882596,0.1979542,18.04549,-0.5377213,-161.9813,17.35217,-0.2048238,-162.6465,LR
-0.1147461,-0.2041016,1.083008,0.1892367,-0.4699924,0.07612977,-10.94507,5.813128,-12.4863,-10.61462,5.944131,-12.19954,-0.0002441406,0.1455078,-0.4538574,-0.1672597,-0.7493282,0.07581687,18.03764,-0.537395,-161.985,17.77598,0.02934929,-162.224,LR
-0.1113281,-0.21875,1.0896,0.2045038,-0.3325878,0.3204046,-10.94906,5.806386,-12.48576,-11.29462,5.720497,-12.69488,0.004638672,0.145752,-0.4499512,-0.1214581,-0.3676488,0.03001523,18.03405,-0.5432899,-161.9858,17.94772,-0.5619137,-162.0429,LR
-0.1157227,-0.2199707,1.093262,0.4335115,0.171229,0.07612977,-10.95,5.811265,-12.4911,-11.31479,5.924443,-12.8085,0.0009765625,0.1469727,-0.4501953,-0.197794,-0.3218473,0.0147481,18.03206,-0.5395183,-161.9842,18.07997,-0.118149,-161.9196,LR
-0.1213379,-0.2072754,1.087402,0.06709921,0.3849695,-0.09180916,-10.94455,5.825804,-12.49173,-10.72696,6.255307,-12.45518,0.004394531,0.1472168,-0.4614258,-0.2130611,-0.123374,0.1368854,18.02218,-0.5409383,-161.9885,17.6944,-0.5198424,-162.2975,LR
-0.1142578,-0.2106934,1.094482,0.02129769,0.4613054,-0.01547329,-10.94213,5.83313,-12.48917,-10.83893,5.853071,-12.35218,-0.01538086,0.1418457,-0.4587402,0.0922823,-0.1997099,0.1521528,18.00655,-0.4963616,-162.0009,17.17289,1.834679,-162.7233,LR
-0.1137695,-0.213623,1.086914,0.0976336,0.4155039,0.07612977,-10.94305,5.839859,-12.48934,-11.06031,5.864125,-12.55358,-0.0004882813,0.1474609,-0.4555664,0.03121376,-0.291313,-0.06158781,18.0056,-0.4895482,-162.0031,17.93608,0.05842574,-162.0638,LR
-0.1184082,-0.2128906,1.101807,0.05183208,0.3697023,0.0,-10.94093,5.848962,-12.4889,-10.87479,6.023317,-12.46725,0.003417969,0.1486816,-0.4536133,0.1686182,0.01403052,0.07581687,18.01091,-0.4877558,-161.9989,18.1472,-0.4102405,-161.8478,LR
-0.1213379,-0.213623,1.09668,0.1434351,0.2170305,0.1677328,-10.93915,5.859134,-12.48919,-10.95743,6.198031,-12.62692,0.007324219,0.1433105,-0.453125,0.229687,-0.123374,0.1216183,18.00504,-0.497473,-162.0056,17.54853,-0.882937,-162.4278,LR
-0.1096191,-0.2138672,1.101563,0.02129769,0.07962596,0.1219313,-10.93874,5.85471,-12.48376,-10.93453,5.579425,-12.30717,0.006835938,0.1447754,-0.454834,0.2907557,-0.2149771,0.091084,18.0023,-0.5070938,-162.0107,17.6546,-0.8205062,-162.3251,LR
-0.1098633,-0.2111816,1.099365,-0.1466411,-0.1188473,0.2440687,-10.93854,5.847969,-12.47485,-10.82111,5.605008,-12.21785,0.005126953,0.1469727,-0.4541016,0.2907557,-0.4287176,0.06054974,18.0052,-0.5155626,-162.0107,17.93341,-0.6154313,-162.0553,LR
-0.1113281,-0.2033691,1.092285,0.00603056,-0.4089237,0.03032825,-10.92956,5.839437,-12.46458,-10.49381,5.721953,-11.98366,0.002441406,0.1472168,-0.4475098,0.0006792545,-0.4287176,-0.06158781,18.00929,-0.517492,-162.0072,18.20934,-0.2969225,-161.788,LR
-0.1140137,-0.2163086,1.095459,0.2503054,-0.5157939,0.09139694,-10.92952,5.831668,-12.4656,-11.11138,5.83009,-12.5827,0.005371094,0.1484375,-0.4543457,-0.07565641,-0.550855,0.0147481,18.00975,-0.5286558,-162.0047,18.09135,-0.6438111,-161.8964,LR
-0.1140137,-0.2143555,1.101563,0.1892367,-0.2562519,0.07612977,-10.92705,5.82704,-12.46369,-10.95461,5.801124,-12.4296,-0.003173828,0.1481934,-0.4536133,-0.07565641,-0.4745191,0.06054974,18.01027,-0.5174369,-162.0018,18.09156,0.3810597,-161.9041,LR
-0.1152344,-0.2167969,1.096924,0.2961069,-0.3783893,0.3814733,-10.92656,5.822618,-12.46113,-11.12024,5.884058,-12.61632,0.002441406,0.1403809,-0.4577637,-0.2588627,-0.4134504,0.091084,17.98724,-0.5190088,-162.0194,17.0488,-0.2921461,-162.9485,LR
-0.1108398,-0.2143555,1.078125,0.4029771,-0.3173206,0.09139694,-10.92586,5.816659,-12.4629,-11.18758,5.757916,-12.61656,0.005859375,0.1430664,-0.4504395,-0.1367252,-0.5050534,0.1521528,17.97787,-0.5302591,-162.0241,17.61924,-0.7103058,-162.3655,LR
-0.1098633,-0.2177734,1.087402,0.1892367,0.01855725,-0.04600763,-10.92994,5.813751,-12.46717,-11.26888,5.657585,-12.64281,0.001708984,0.1455078,-0.4594727,-0.1214581,-0.3981832,-0.1837251,17.96797,-0.5295705,-162.0349,17.57207,-0.2031636,-162.4267,LR
-0.1208496,-0.2219238,1.099609,0.1129008,0.2170305,-0.01547329,-10.93655,5.823641,-12.4769,-11.34368,6.148771,-12.94212,0.002685547,0.145752,-0.4489746,-0.1214581,-0.2455115,0.182687,17.96664,-0.5288668,-162.0319,17.98484,-0.3259656,-162.012,LR
-0.1181641,-0.2165527,1.093994,0.03656495,0.3239008,-0.06127481,-10.93999,5.832578,-12.48235,-11.13365,6.048249,-12.70755,-0.003173828,0.1459961,-0.453125,-0.07565641,-0.2455115,0.1216183,17.96329,-0.5144996,-162.0321,17.85844,0.3819742,-162.1372,LR
-0.1101074,-0.2155762,1.091797,0.08236647,0.4460382,-0.01547329,-10.94219,5.835929,-12.48297,-11.11446,5.650426,-12.5011,0.0009765625,0.1455078,-0.4550781,0.03121376,-0.07757253,0.2284887,17.95907,-0.5076161,-162.0336,17.73125,-0.1171113,-162.2683,LR
-0.112793,-0.213623,1.095459,0.2808397,0.3544351,-0.07654199,-10.93905,5.839488,-12.48308,-10.97802,5.770747,-12.43591,0.005859375,0.1474609,-0.4443359,0.3060229,0.2735725,-0.1531909,17.97155,-0.5077834,-162.0278,18.35787,-0.7170536,-161.6271,LR
-0.1123047,-0.2124023,1.090576,0.03656495,0.3239008,0.06086259,-10.93902,5.842895,-12.48101,-10.96448,5.77175,-12.42435,0.005371094,0.1489258,-0.4562988,0.2602212,0.2430381,0.06054974,17.97743,-0.5068774,-162.0246,18.07436,-0.6411178,-161.9135,LR
-0.1157227,-0.208252,1.094971,0.00603056,0.09489316,0.04559542,-10.93436,5.845982,-12.47622,-10.71019,5.92747,-12.27515,0.001464844,0.1499023,-0.4501953,0.229687,-0.1539084,0.1521528,17.98981,-0.5026907,-162.0134,18.41621,-0.1768805,-161.5829,LR
-0.1123047,-0.2141113,1.107666,0.1434351,-0.07304579,0.1066641,-10.93114,5.841613,-12.47129,-10.88585,5.684831,-12.31316,0.002929688,0.1499023,-0.4492188,0.3670917,-0.031771,0.04528236,18.00447,-0.5001929,-162.0033,18.45326,-0.3544497,-161.5431,LR
-0.119873,-0.2128906,1.09375,-0.131374,-0.179916,0.0,-10.93346,5.84494,-12.4737,-10.95052,6.140224,-12.59188,0.008056641,0.1464844,-0.4509277,0.0922823,-0.1539084,0.0,18.00562,-0.5119218,-162.0028,17.99376,-0.9735157,-161.9781,LR
-0.1135254,-0.2143555,1.092529,-0.009236574,-0.5615954,0.1066641,-10.93578,5.836229,-12.47301,-11.04251,5.822131,-12.51769,0.006103516,0.1491699,-0.4436035,0.1380839,-0.550855,0.1979542,18.01922,-0.5247243,-161.9878,18.58454,-0.747172,-161.3993,LR
-0.1086426,-0.2219238,1.092773,0.2045038,-0.4241909,0.09139694,-10.94255,5.824564,-12.47703,-11.42485,5.56478,-12.74104,0.0009765625,0.1496582,-0.4443359,0.0006792545,-0.4897862,-0.1073892,18.03113,-0.5238165,-161.9773,18.61416,-0.1193374,-161.3854,LR
-0.1091309,-0.2138672,1.101318,0.08236647,-0.3631221,0.1219313,-10.94123,5.813853,-12.47167,-10.93734,5.555907,-12.29877,0.005126953,0.1486816,-0.4541016,-0.1367252,-0.5813893,0.091084,18.03107,-0.5341815,-161.9737,18.12837,-0.6147501,-161.8605,LR
-0.1142578,-0.2092285,1.094727,0.219771,-0.2867863,0.1677328,-10.93444,5.810425,-12.46548,-10.76302,5.85326,-12.28523,0.006347656,0.1459961,-0.4567871,-0.04512215,-0.4134504,0.2284887,18.02425,-0.5447428,-161.976,17.72306,-0.7583605,-162.2596,LR
-0.1149902,-0.2211914,1.087158,0.1892367,0.1406947,0.04559542,-10.94173,5.814634,-12.4738,-11.43822,5.917457,-12.91519,0.001953125,0.145752,-0.4545898,-0.1061909,-0.4745191,0.1063511,18.01774,-0.5455117,-161.9794,17.77689,-0.2344133,-162.2215,LR
-0.1171875,-0.2128906,1.092041,0.1892367,0.06435877,-0.0002061129,-10.93952,5.819541,-12.47524,-10.96987,6.012665,-12.54567,0.002197266,0.1416016,-0.4575195,-0.1061909,-0.2302443,-0.0310533,17.99976,-0.5432433,-161.9963,17.19703,-0.2628627,-162.8008,LR
-0.1140137,-0.2167969,1.0979,0.1434351,0.5223741,-0.04600763,-10.94086,5.827173,-12.47795,-11.11195,5.817208,-12.57709,0.002929688,0.1494141,-0.4516602,-0.02985501,-0.1844428,0.1368854,18.00542,-0.5421466,-161.9882,18.30441,-0.3528382,-161.6919,LR
-0.111084,-0.2141113,1.095459,0.06709921,0.5071069,0.0,-10.94114,5.831752,-12.47676,-11.0042,5.683414,-12.41795,0.003662109,0.1472168,-0.4553223,-0.02985501,-0.1997099,-0.0310533,18.0032,-0.5430088,-161.9904,17.91674,-0.4384662,-162.0775,LR
-0.1157227,-0.2080078,1.102539,-0.222977,0.262832,-0.06127481,-10.93813,5.836754,-12.47178,-10.62695,5.8887,-12.18283,-0.01171875,0.1459961,-0.4521484,-0.02985501,-0.1691756,0.1674199,18.00049,-0.5063782,-161.9891,17.88934,1.41286,-162.0512,LR
-0.1101074,-0.2111816,1.098633,0.00603056,0.06435877,0.2746031,-10.93584,5.833385,-12.46293,-10.82785,5.620973,-12.23136,0.004638672,0.1489258,-0.4543457,0.2754886,-0.3065802,-0.1989923,18.00747,-0.5118742,-161.9892,18.14726,-0.555848,-161.8436,LR
-0.1159668,-0.2148438,1.087158,-0.07030535,0.1254275,0.03032825,-10.9405,5.838041,-12.46637,-11.11725,5.974021,-12.65696,0.003417969,0.1430664,-0.4384766,0.489229,-0.1386412,-0.01578617,18.01591,-0.5121665,-161.9881,18.06999,-0.424589,-161.9247,LR
-0.1115723,-0.2143555,1.097168,0.1434351,0.09489316,0.06086259,-10.93957,5.836665,-12.46457,-10.99939,5.699486,-12.42122,0.0004882813,0.1462402,-0.449707,0.32129,0.2583054,0.182687,18.0206,-0.4993093,-161.9854,18.014,-0.05916088,-161.9859,LR
-0.1115723,-0.2172852,1.084229,0.1739695,0.1101603,-0.1223435,-10.9437,5.836782,-12.47099,-11.27426,5.761561,-12.69572,0.002929688,0.1516113,-0.4516602,0.2602212,0.05983204,-0.06158781,18.03512,-0.4954901,-161.9754,18.55529,-0.3523237,-161.4411,LR
-0.1164551,-0.2138672,1.098145,0.06709921,0.003290057,-0.03074045,-10.94306,5.838946,-12.47209,-10.96063,5.942601,-12.50324,0.006835938,0.151123,-0.4521484,0.2754886,-0.1539084,-0.1837251,18.04805,-0.504273,-161.9686,18.47937,-0.8215117,-161.5011,LR
-0.1118164,-0.2163086,1.098877,0.2045038,-0.4547252,-0.01547329,-10.94279,5.829513,-12.47276,-11.08023,5.701475,-12.49428,0.006835938,0.1472168,-0.4543457,0.06174803,-0.4134504,0.1674199,18.04703,-0.5166657,-161.9673,17.95143,-0.8200225,-162.0286,LR
-0.1147461,-0.2150879,1.093994,0.1892367,-0.4699924,0.0,-10.94243,5.823534,-12.47455,-11.06375,5.876024,-12.56233,0.009521484,0.1503906,-0.4470215,0.06174803,-0.7035267,-0.168458,18.05881,-0.5398047,-161.9579,18.59046,-1.156529,-161.3709,LR
-0.1140137,-0.2126465,1.095703,0.128168,-0.5768626,-0.06127481,-10.94021,5.815232,-12.47434,-10.92548,5.832496,-12.41882,0.003173828,0.1435547,-0.4465332,-0.1825268,-0.5661222,-0.01578617,18.05138,-0.5450845,-161.9624,17.82151,-0.3876932,-162.174,LR
-0.1103516,-0.2150879,1.086182,0.2350382,-0.347855,0.0,-10.94085,5.807641,-12.4758,-11.145,5.691343,-12.54743,0.002197266,0.1413574,-0.4633789,-0.09092379,-0.4134504,0.2284887,18.02831,-0.5454577,-161.9805,16.96456,-0.2598627,-163.0333,LR
-0.1193848,-0.2207031,1.091553,0.2045038,-0.08831299,0.1219313,-10.94632,5.812567,-12.48341,-11.36465,6.118863,-12.9461,0.003662109,0.1506348,-0.4541016,-0.1367252,-0.382916,0.1979542,18.03275,-0.5489485,-161.9708,18.35118,-0.4385544,-161.6432,LR
-0.1140137,-0.2138672,1.094482,0.1892367,-0.1951832,0.1371985,-10.94458,5.810197,-12.48145,-10.9985,5.837508,-12.48597,0.003417969,0.1472168,-0.4533691,-0.4115343,-0.1844428,0.1216183,18.02583,-0.5488975,-161.9697,17.98903,-0.4108313,-162.006,LR
-0.1147461,-0.2099609,1.090088,0.1739695,0.2475649,-0.01547329,-10.94001,5.815659,-12.47964,-10.84371,5.901325,-12.37989,0.002441406,0.1503906,-0.4587402,-0.2283282,-0.3523817,0.1368854,18.02497,-0.5488946,-161.9653,18.15066,-0.2897511,-161.8469,LR
-0.1166992,-0.2150879,1.088623,-0.1924427,0.2475649,-0.07654199,-10.94632,5.823055,-12.48455,-11.11435,6.003494,-12.6687,-0.002441406,0.1503906,-0.453125,-0.06038928,-0.01650381,-0.06158781,18.03085,-0.5322834,-161.9596,18.36058,0.2929874,-161.6369,LR
-0.1135254,-0.2133789,1.093994,-0.131374,0.4155039,0.1066641,-10.94878,5.828608,-12.48256,-10.97922,5.815646,-12.45839,0.006347656,0.145752,-0.458252,0.3976259,0.1514351,0.1063511,18.02892,-0.5345371,-161.9656,17.64224,-0.7562767,-162.3405,LR
-0.1176758,-0.2119141,1.096924,0.02129769,0.430771,-0.06127481,-10.94696,5.838624,-12.48303,-10.87335,6.012817,-12.46079,-0.001953125,0.1479492,-0.4492188,0.3670917,0.2888396,-0.2295268,18.03832,-0.5148683,-161.9651,18.22902,0.2366085,-161.7693,LR
-0.1120605,-0.2138672,1.082275,0.02129769,0.003290057,-0.03074045,-10.95011,5.837902,-12.48535,-11.12018,5.80006,-12.5763,0.01000977,0.1450195,-0.451416,0.1838853,0.05983204,0.1674199,18.038,-0.527352,-161.9649,17.80576,-1.20942,-162.1505,LR
-0.1105957,-0.2219238,1.093018,-0.222977,-0.02724427,0.06086259,-10.96476,5.833762,-12.48984,-11.42042,5.662969,-12.78142,0.0002441406,0.1413574,-0.4519043,-0.1672597,-0.4134504,0.0147481,18.02217,-0.5234735,-161.978,17.36988,-0.02954237,-162.6301,LR
-0.1164551,-0.2131348,1.099609,0.2503054,0.4155039,0.06086259,-10.95999,5.84191,-12.48825,-10.90995,5.935761,-12.45516,0.01538086,0.1489258,-0.4577637,-0.197794,-0.1386412,-0.1379237,18.01906,-0.5516434,-161.9782,18.01193,-1.83007,-161.8889,LR
-0.1149902,-0.2128906,1.094727,-0.07030535,0.5529084,-0.1223435,-10.96074,5.850937,-12.48955,-10.94615,5.886881,-12.46338,-0.0007324219,0.1459961,-0.4567871,0.0922823,-0.1539084,0.2437558,18.01444,-0.540972,-161.9808,17.72465,0.08750818,-162.2751,LR
-0.1103516,-0.2143555,1.092773,0.1434351,0.6597786,0.03032825,-10.96043,5.856155,-12.48817,-11.0433,5.659224,-12.44155,-0.0004882813,0.1462402,-0.4660645,0.229687,-0.0470382,0.2132213,18.00594,-0.5296986,-161.9896,17.42064,0.0572737,-162.5793,LR
-0.1186523,-0.2121582,1.086914,0.2808397,0.3239008,0.07612977,-10.95671,5.866103,-12.48942,-10.98123,6.115479,-12.60649,-0.01489258,0.1494141,-0.4511719,0.2602212,0.07509923,-0.01578617,18.01618,-0.4820315,-161.9819,18.31395,1.794779,-161.5921,LR
-0.1171875,-0.2175293,1.093018,0.1739695,0.03382444,0.07612977,-10.95872,5.869366,-12.4932,-11.19326,6.002732,-12.73814,-0.0004882813,0.1489258,-0.4550781,0.3670917,0.1819695,-0.07685494,18.02367,-0.4685474,-161.981,18.12084,0.05842708,-161.8791,LR
-0.1140137,-0.2124023,1.087891,0.08236647,-0.1035802,0.07612977,-10.95811,5.867912,-12.49211,-10.98888,5.87281,-12.49441,-0.005615234,0.1491699,-0.447998,0.2907557,-0.1081069,0.3811603,18.03577,-0.4471388,-161.9672,18.41486,0.6813378,-161.5716,LR
-0.1135254,-0.2155762,1.100098,0.1129008,-0.08831299,0.0,-10.95789,5.864908,-12.49202,-11.03011,5.782609,-12.48786,0.001708984,0.1503906,-0.4570313,0.1991527,-0.3065802,-0.07685494,18.04226,-0.446773,-161.9647,18.21418,-0.2035111,-161.7846,LR
-0.1118164,-0.2128906,1.105469,0.06709921,-0.1188473,-0.01547329,-10.95468,5.859307,-12.48785,-10.84652,5.672206,-12.27218,0.001953125,0.1481934,-0.4484863,0.0006792545,-0.2302443,-0.2447939,18.04713,-0.4459605,-161.9633,18.28494,-0.2369186,-161.7134,LR
-0.1181641,-0.2297363,1.0896,0.1434351,-0.3936565,0.1677328,-10.97025,5.857479,-12.5024,-11.83869,6.057229,-13.33851,0.003417969,0.1450195,-0.4528809,0.1075497,-0.5050534,-0.07685494,18.04287,-0.4527019,-161.97,17.75541,-0.4118153,-162.2395,LR
-0.1142578,-0.2175293,1.096924,0.3571756,-0.6226641,0.04559542,-10.96875,5.847852,-12.5042,-11.15787,5.833802,-12.62583,0.003662109,0.1464844,-0.4536133,-0.1672597,-0.550855,0.1216183,18.03748,-0.4605488,-161.9707,17.89617,-0.4401691,-162.0981,LR
-0.1091309,-0.2126465,1.093262,0.4335115,-0.3020534,0.1982672,-10.96208,5.83838,-12.49785,-10.95385,5.596265,-12.33227,0.004882813,0.1435547,-0.4658203,-0.1214581,-0.5355878,0.1063511,18.01749,-0.4706895,-161.987,17.12716,-0.5739289,-162.8626,LR
-0.1130371,-0.2177734,1.082275,0.3724428,-0.2257175,0.1219313,-10.9637,5.83522,-12.50157,-11.31707,5.846236,-12.77359,0.005126953,0.1467285,-0.4560547,-0.06038928,-0.1539084,0.0147481,18.01299,-0.4756501,-161.9901,17.83372,-0.6131401,-162.155,LR
-0.1130371,-0.2172852,1.106934,0.08236647,0.3849695,0.1524656,-10.96429,5.838242,-12.49898,-11.04961,5.722226,-12.4767,0.001464844,0.1420898,-0.453125,-0.1214581,0.01403052,-0.1073892,17.99903,-0.4694519,-162.0038,17.41017,-0.1767372,-162.5889,LR
-0.1166992,-0.2124023,1.102783,0.03656495,0.06435877,-0.04600763,-10.96129,5.841135,-12.49761,-10.8429,5.93246,-12.39441,0.003173828,0.1437988,-0.4521484,-0.06038928,-0.2607787,-0.1379237,17.991,-0.4715615,-162.0128,17.64205,-0.3832623,-162.3535,LR
-0.1208496,-0.2163086,1.098145,-0.08557248,0.339168,0.07612977,-10.96488,5.85255,-12.50084,-11.07805,6.162589,-12.71493,0.007324219,0.1450195,-0.4528809,-0.06038928,-0.382916,-0.0005190372,17.98536,-0.4854073,-162.0171,17.7537,-0.8824068,-162.2229,LR
-0.1152344,-0.2185059,1.094971,0.02129769,0.2322977,-0.04600763,-10.96977,5.85676,-12.50576,-11.22496,5.892341,-12.71332,-0.001953125,0.1435547,-0.4587402,0.01594663,-0.3218473,-0.1531909,17.97342,-0.4757741,-162.0314,17.37645,0.2328074,-162.6219,LR
-0.1140137,-0.2124023,1.091309,-0.03977096,0.3544351,-0.09180916,-10.97008,5.861939,-12.50613,-10.95566,5.855212,-12.4565,0.0007324219,0.1520996,-0.4555664,0.1533511,-0.06230533,0.1521528,17.98546,-0.468922,-162.0193,18.46255,-0.08737422,-161.5372,LR
-0.114502,-0.2163086,1.098389,-0.02450383,0.5223741,0.1371985,-10.97268,5.869178,-12.50522,-11.08229,5.839956,-12.56154,-0.0007324219,0.1442871,-0.4587402,0.06174803,-0.2607787,-0.07685494,17.97591,-0.4618874,-162.0309,17.45985,0.08726338,-162.5399,LR
-0.1147461,-0.2141113,1.093262,0.03656495,0.4765725,-0.09180916,-10.97309,5.876882,-12.5071,-11.02187,5.880774,-12.52748,-0.0004882813,0.1499023,-0.453125,0.3365571,0.1361679,-0.09212208,17.98745,-0.4494756,-162.0255,18.30519,0.05861683,-161.6947,LR
-0.1035156,-0.217041,1.094971,0.0976336,0.4002366,0.0,-10.97546,5.871189,-12.50468,-11.16312,5.298067,-12.38591,0.003173828,0.1501465,-0.4509277,0.4434273,0.3804427,-0.2295268,18.00253,-0.4425459,-162.02,18.41591,-0.382614,-161.5798,LR
-0.1091309,-0.215332,1.096924,0.0976336,0.1559618,0.1524656,-10.97557,5.867575,-12.50058,-11.05303,5.575823,-12.4116,0.001953125,0.1479492,-0.449707,0.2449541,0.2888396,0.03001523,18.01029,-0.4341765,-162.0149,18.21054,-0.2363767,-161.7878,LR
-0.1103516,-0.2141113,1.084717,-0.07030535,-0.05777865,0.01506107,-10.9793,5.863367,-12.50075,-11.11012,5.69966,-12.52013,0.002685547,0.1525879,-0.4472656,0.1075497,-0.3218473,-0.1379237,18.02841,-0.4367361,-161.9998,18.83713,-0.3255949,-161.1598,LR
-0.111084,-0.2111816,1.099121,0.1434351,-0.2715191,0.1982672,-10.97405,5.855471,-12.49279,-10.82227,5.668088,-12.24865,0.006835938,0.1464844,-0.4396973,0.1686182,-0.3523817,0.091084,18.03879,-0.4500823,-161.9896,18.42333,-0.8450469,-161.5559,LR
-0.1064453,-0.213623,1.08374,0.2350382,-0.7142672,0.07612977,-10.97309,5.837949,-12.49022,-11.09891,5.50437,-12.4201,0.002685547,0.1447754,-0.4675293,-0.04512215,-0.4134504,0.1063511,18.02146,-0.4534461,-162.0041,17.20542,-0.3143828,-162.7915,LR
-0.1152344,-0.2128906,1.098389,0.2655725,-0.607397,0.0,-10.96794,5.829871,-12.48899,-10.91068,5.88047,-12.4289,0.0004882813,0.1484375,-0.4543457,0.01594663,-0.382916,-0.1531909,18.02311,-0.4511766,-162.0044,18.09252,-0.05853072,-161.9074,LR
-0.1140137,-0.2189941,1.089844,0.4335115,-0.607397,0.2135344,-10.96824,5.821465,-12.49136,-11.30168,5.856039,-12.76447,0.002685547,0.144043,-0.4384766,-0.1061909,-0.3981832,0.091084,18.0248,-0.4546741,-161.9992,18.18544,-0.3333883,-161.8113,LR
-0.1188965,-0.2199707,1.102295,0.3419085,0.06435877,0.09139694,-10.96829,5.826745,-12.49581,-11.2221,6.038126,-12.78081,-0.001220703,0.1418457,-0.4558105,-0.2588627,-0.5203207,-0.0005190372,18.00621,-0.4502992,-162.0135,17.28579,0.1465127,-162.7135,LR
-0.1176758,-0.2138672,1.087646,0.2655725,0.1559618,0.1066641,-10.96625,5.8337,-12.49731,-11.06137,6.059834,-12.64947,-0.001464844,0.1503906,-0.4545898,-0.197794,-0.4134504,0.06054974,18.00929,-0.4438653,-162.0062,18.30552,0.1752829,-161.6936,LR
-0.1162109,-0.2126465,1.09668,-0.02450383,0.339168,0.2288015,-10.96556,5.840792,-12.49321,-10.91387,5.939037,-12.46022,-0.0009765625,0.1494141,-0.4555664,-0.197794,-0.382916,-0.01578617,18.00955,-0.4379075,-162.0031,18.15812,0.1167039,-161.8415,LR
-0.1220703,-0.2133789,1.087158,-0.02450383,0.4460382,0.07612977,-10.96732,5.855848,-12.49713,-11.03678,6.287582,-12.74147,0.0004882813,0.1503906,-0.4545898,-0.1214581,-0.0470382,-0.0005190372,18.01357,-0.4310555,-161.997,18.3056,-0.05842782,-161.6943,LR
-0.1171875,-0.2133789,1.087402,-0.009236574,0.4918396,0.07612977,-10.96891,5.867176,-12.49837,-11.03964,6.036679,-12.61895,-0.0009765625,0.1467285,-0.4602051,0.06174803,0.02929771,-0.09212208,18.00788,-0.4196869,-162.0047,17.68395,0.1158372,-162.3156,LR
-0.1184082,-0.2167969,1.095215,-0.1466411,0.3239008,0.01506107,-10.97436,5.875673,-12.50239,-11.13366,6.053945,-12.71034,0.002441406,0.1496582,-0.4626465,0.3365571,0.01403052,0.259023,18.01118,-0.4168404,-162.0022,17.92527,-0.287673,-162.0723,LR
-0.1184082,-0.2128906,1.09375,-0.131374,0.3086336,-0.01547329,-10.97585,5.884011,-12.50369,-10.95206,6.065754,-12.55618,0.001708984,0.142334,-0.4523926,0.2602212,0.07509923,0.0147481,18.00408,-0.4115289,-162.0127,17.46476,-0.2064651,-162.5339,LR
-0.1240234,-0.2116699,1.100586,-0.08557248,0.1559618,0.1982672,-10.97398,5.894917,-12.50203,-10.81962,6.314689,-12.56619,0.002197266,0.1535645,-0.4511719,0.06174803,0.02929771,-0.09212208,18.02084,-0.4081507,-161.9978,18.79672,-0.264154,-161.2013,LR
-0.1103516,-0.2053223,1.089355,0.1129008,-0.3173206,0.09139694,-10.96526,5.886053,-12.4922,-10.62081,5.684899,-12.0779,0.006347656,0.1491699,-0.4533691,0.0006792545,-0.4134504,-0.1073892,18.02465,-0.42171,-161.995,18.21085,-0.7619704,-161.7721,LR
-0.1152344,-0.2192383,1.094238,0.1892367,-0.2715191,0.1524656,-10.96837,5.881981,-12.49504,-11.26889,5.895353,-12.75384,0.0004882813,0.1523438,-0.4516602,-0.07565641,-0.5966565,0.1063511,18.03583,-0.4232205,-161.9807,18.6391,-0.05869257,-161.3608,LR
-0.1135254,-0.220459,1.095459,0.2655725,-0.5615954,0.2135344,-10.97149,5.872108,-12.4971,-11.31963,5.801105,-12.75473,0.003417969,0.1491699,-0.4665527,-0.04512215,-0.3523817,-0.01578617,18.02905,-0.4279322,-161.9867,17.73008,-0.3998044,-162.2651,LR
-0.1125488,-0.2165527,1.095703,0.2045038,-0.5005267,0.0,-10.97151,5.862393,-12.49829,-11.1227,5.754222,-12.55693,0.004394531,0.1420898,-0.4458008,0.01594663,-0.3676488,0.06054974,18.02225,-0.4355402,-161.9923,17.67781,-0.538111,-162.3135,LR
-0.1157227,-0.2177734,1.094482,0.2350382,-0.3325878,-0.0002061129,-10.97247,5.858665,-12.50229,-11.19259,5.920406,-12.69795,0.002685547,0.144043,-0.4506836,-0.04512215,-0.550855,0.03001523,18.01563,-0.4414311,-161.9975,17.7241,-0.3252059,-162.2727,LR
-0.1159668,-0.2160645,1.096436,0.06709921,-0.1035802,0.1371985,-10.97379,5.858458,-12.50236,-11.08761,5.924459,-12.60678,0.008056641,0.1442871,-0.4443359,-0.09092379,-0.7951298,-0.1531909,18.01372,-0.4640507,-161.9994,17.98716,-0.9879916,-161.9839,LR
-0.1152344,-0.2167969,1.102051,0.1739695,-0.2409847,0.1066641,-10.97316,5.854904,-12.50194,-11.07034,5.85789,-12.55949,0.002441406,0.1477051,-0.4472656,-0.197794,-0.6271908,0.04528236,18.01604,-0.4699288,-161.9932,18.27504,-0.2969723,-161.7224,LR
-0.1140137,-0.2124023,1.095215,0.1892367,-0.04251146,-0.04600763,-10.96928,5.853886,-12.50084,-10.91793,5.835226,-12.41345,0.007568359,0.1411133,-0.4462891,-0.02985501,-0.550855,0.091084,18.00617,-0.487155,-162.0006,17.5442,-0.926357,-162.4298,LR
-0.1169434,-0.2111816,1.090332,0.1434351,0.1559618,0.03032825,-10.9658,5.85932,-12.50006,-10.90063,6.010975,-12.48388,0.001708984,0.1442871,-0.4633789,-0.1367252,-0.291313,-0.0005190372,17.98994,-0.4857293,-162.0147,17.29545,-0.2017566,-162.7033,LR
-0.1162109,-0.2333984,1.088867,0.03656495,0.5223741,0.01506107,-10.98658,5.868964,-12.51915,-12.03194,5.957595,-13.46594,0.003173828,0.1437988,-0.447998,0.1380839,-0.09283972,0.4880307,17.98808,-0.4851091,-162.0112,17.79522,-0.3864825,-162.2003,LR
-0.112793,-0.2124023,1.090332,0.1587023,0.5223741,0.1066641,-10.98384,5.875221,-12.51597,-10.96636,5.797916,-12.4385,0.0007324219,0.1477051,-0.4519043,0.2144198,0.2735725,0.1368854,17.99347,-0.4731508,-162.007,18.09998,-0.08826661,-161.8998,LR
-0.1203613,-0.2038574,1.102051,-0.1466411,0.6292443,-0.06127481,-10.97471,5.889561,-12.50903,-10.41952,6.12972,-12.12378,0.001464844,0.1452637,-0.4516602,0.2754886,0.3957099,-0.1531909,17.99423,-0.4614088,-162.0125,17.82882,-0.1768994,-162.1702,LR
-0.1176758,-0.215332,1.097412,-0.1771755,0.6292443,0.1371985,-10.97862,5.901155,-12.50892,-11.0397,6.006773,-12.60436,0.0007324219,0.1469727,-0.4509277,0.07701516,-0.1691756,0.182687,17.99652,-0.4564372,-162.0085,18.05252,-0.08848167,-161.9472,LR
-0.1157227,-0.2148438,1.104004,0.03656495,-0.1341145,-0.07654199,-10.97758,5.898651,-12.50915,-10.95381,5.874531,-12.46418,0.004638672,0.1459961,-0.442627,0.1075497,-0.5355878,-0.1837251,18.00325,-0.4665858,-162.0058,18.25369,-0.5702148,-161.7368,LR
-0.1044922,-0.2155762,1.094482,-0.1466411,-0.4241909,0.09139694,-10.98206,5.88147,-12.50455,-11.09352,5.351397,-12.34646,0.002441406,0.1428223,-0.4506836,0.1838853,-0.4134504,-0.168458,17.99755,-0.4692493,-162.0164,17.58324,-0.2958738,-162.4141,LR
-0.1120605,-0.2077637,1.092041,0.2350382,-0.4699924,0.2898702,-10.9733,5.87206,-12.49415,-10.71697,5.756398,-12.1975,0.006347656,0.1433105,-0.4472656,0.0922823,-0.6119237,-0.1226563,17.99425,-0.4843461,-162.0222,17.76455,-0.774323,-162.2174,LR
-0.1154785,-0.2177734,1.102051,0.1587023,-0.5005267,0.183,-10.97388,5.864645,-12.49373,-11.11871,5.869234,-12.60787,-0.0004882813,0.1462402,-0.4597168,-0.1061909,-0.550855,-0.04632068,17.98584,-0.4810571,-162.0295,17.64635,0.05799229,-162.3535,LR
-0.119873,-0.222168,1.098633,0.2350382,-0.04251146,0.1066641,-10.97851,5.868857,-12.50121,-11.36662,6.104369,-12.94082,0.004638672,0.1437988,-0.447998,-0.06038928,-0.3676488,-0.1837251,17.98113,-0.4881373,-162.0355,17.79474,-0.5648494,-162.1957,LR
-0.111084,-0.2185059,1.095459,0.2961069,0.2322977,0.1371985,-10.97907,5.868476,-12.50143,-11.22437,5.679111,-12.61281,0.008056641,0.1484375,-0.4516602,-0.01458788,-0.3371145,-0.1073892,17.98497,-0.5057205,-162.033,18.19034,-0.9708484,-161.782,LR
-0.1206055,-0.2128906,1.097168,0.1739695,0.171229,-0.04600763,-10.97373,5.878315,-12.50392,-10.91685,6.159049,-12.57182,-0.0004882813,0.1472168,-0.4611816,0.1533511,0.1056336,0.04528236,17.9816,-0.4928975,-162.0376,17.70393,0.05778959,-162.296,LR
-0.1203613,-0.2150879,1.093262,0.1739695,-0.179916,0.2593359,-10.973,5.881411,-12.50412,-11.06501,6.165358,-12.70485,0.006591797,0.1472168,-0.4560547,0.32129,-0.01650381,-0.04632068,17.98446,-0.4990433,-162.0394,17.8886,-0.788057,-162.0929,LR
-0.109375,-0.213623,1.095703,0.02129769,-0.01197708,0.0,-10.97281,5.875523,-12.50113,-10.97901,5.595809,-12.35456,0.006347656,0.1459961,-0.4509277,0.2907557,-0.09283972,0.3048244,17.98782,-0.5057728,-162.035,17.93864,-0.7672841,-162.0438,LR
-0.1235352,-0.2141113,1.098877,0.02129769,-0.2867863,0.2898702,-10.97221,5.879732,-12.50041,-10.95834,6.296793,-12.67771,-0.01342773,0.1479492,-0.4477539,0.06174803,-0.3218473,-0.1837251,17.99452,-0.4677676,-162.0299,18.27719,1.631051,-161.645,LR
-0.1176758,-0.215332,1.087158,0.219771,-0.7295343,-0.09180916,-10.97233,5.872631,-12.50613,-11.14007,6.060895,-12.7194,0.005371094,0.1455078,-0.4494629,-0.1214581,-0.7493282,-0.07685494,17.99159,-0.4824548,-162.0314,17.93749,-0.6513731,-162.0499,LR
-0.1169434,-0.2207031,1.091553,0.0976336,-0.5463283,0.1219313,-10.9788,5.867041,-12.51199,-11.36729,5.994654,-12.88864,-0.0009765625,0.1481934,-0.4511719,-0.2741299,-0.8409313,-0.01578617,17.9914,-0.482811,-162.0273,18.18341,0.1178236,-161.8162,LR
-0.1166992,-0.21875,1.090576,0.2350382,-0.5768626,0.04559542,-10.98135,5.861008,-12.51724,-11.27927,5.989399,-12.80795,0.003173828,0.144043,-0.4555664,-0.1519923,-0.4134504,-0.07685494,17.98025,-0.4868443,-162.0369,17.54574,-0.3805897,-162.4499,LR
-0.1157227,-0.2214355,1.082275,0.2045038,-0.02724427,0.2135344,-10.98871,5.862991,-12.52375,-11.49944,5.980219,-12.99939,0.004638672,0.1437988,-0.453125,-0.197794,-0.4745191,-0.06158781,17.96986,-0.4952637,-162.0448,17.60592,-0.5590465,-162.3846,LR
-0.1135254,-0.2160645,1.094238,0.1129008,0.1406947,0.01506107,-10.9895,5.864034,-12.52453,-11.11159,5.811727,-12.57418,0.006103516,0.1484375,-0.4604492,0.01594663,-0.1539084,0.182687,17.96802,-0.5020772,-162.0436,17.86657,-0.7228163,-162.1178,LR
-0.1169434,-0.217041,1.103027,0.1129008,0.5681756,0.04559542,-10.98948,5.873883,-12.52536,-11.07129,5.938871,-12.59927,0.001464844,0.1452637,-0.4482422,0.0922823,-0.1386412,-0.06158781,17.96914,-0.4976361,-162.0445,17.95608,-0.1781205,-162.043,LR
-0.1137695,-0.217041,1.100342,0.0976336,0.5071069,0.03032825,-10.99027,5.879705,-12.52551,-11.10058,5.792281,-12.55517,0.004882813,0.1477051,-0.4553223,0.1533511,-0.123374,-0.09212208,17.97145,-0.5011855,-162.0453,17.97193,-0.584429,-162.0179,LR
-0.1196289,-0.2158203,1.0979,0.08236647,0.6445115,-0.168145,-10.9904,5.893638,-12.53081,-11.05733,6.102619,-12.66699,0.001464844,0.1486816,-0.4494629,0.1838853,-0.031771,0.2895572,17.98081,-0.4951745,-162.034,18.30404,-0.1772839,-161.695,LR
-0.1166992,-0.2121582,1.094482,0.0976336,0.3086336,0.07612977,-10.98735,5.899817,-12.52857,-10.91001,5.975761,-12.4748,-0.0004882813,0.1538086,-0.4536133,0.1228168,-0.1844428,0.04528236,17.9976,-0.4868142,-162.0181,18.73046,0.05840835,-161.2694,LR
-0.1142578,-0.2141113,1.090332,0.219771,0.07962596,0.03032825,-10.9854,5.900411,-12.52852,-11.05094,5.870969,-12.54854,0.007324219,0.1435547,-0.4589844,0.229687,-0.1081069,-0.0310533,17.98857,-0.4962239,-162.0304,17.36583,-0.8725421,-162.6109,LR
-0.1184082,-0.2182617,1.080811,0.02129769,0.1559618,-0.03074045,-10.99237,5.907435,-12.53722,-11.35078,6.129345,-12.93893,0.003662109,0.1494141,-0.4501953,0.2907557,0.1361679,0.0147481,18.00027,-0.4931445,-162.0223,18.35978,-0.4423374,-161.6345,LR
-0.1162109,-0.2150879,1.099121,0.0976336,0.1406947,0.01506107,-10.99134,5.909834,-12.53705,-11.01246,5.923963,-12.54,0.005859375,0.152832,-0.4555664,0.1838853,-0.3218473,-0.06158781,18.01385,-0.5019851,-162.0116,18.54399,-0.6986215,-161.4419,LR
-0.1147461,-0.2155762,1.098877,0.1739695,-0.2409847,0.09139694,-10.98977,5.905106,-12.53556,-11.04071,5.850568,-12.52968,0.002929688,0.1464844,-0.4492188,-0.01458788,-0.4287176,0.1063511,18.01456,-0.5053526,-162.0085,18.06011,-0.3552529,-161.9361,LR
-0.1142578,-0.2150879,1.092285,0.2045038,-0.5005267,0.1524656,-10.98858,5.896845,-12.534,-11.08095,5.859946,-12.5699,0.009277344,0.1467285,-0.4509277,-0.09092379,-0.4287176,-0.0310533,18.01335,-0.5239637,-162.0076,18.02093,-1.120804,-161.9418,LR
-0.112793,-0.2133789,1.094482,0.4182443,-0.3631221,0.04559542,-10.98217,5.889088,-12.53137,-10.97523,5.775913,-12.43588,0.002929688,0.1503906,-0.4538574,-0.01458788,-0.4897862,0.03001523,18.01953,-0.5277058,-162.0003,18.33282,-0.3510724,-161.6636,LR
-0.1159668,-0.2145996,1.088379,0.2961069,-0.3631221,0.1066641,-10.98003,5.885325,-12.53182,-11.09292,5.967871,-12.63245,0.005371094,0.1491699,-0.4550781,-0.01458788,-0.3371145,-0.1379237,18.02187,-0.5349586,-161.9991,18.14743,-0.6425691,-161.8404,LR
-0.1171875,-0.2124023,1.083252,0.219771,-0.2715191,0.04559542,-10.97782,5.884824,-12.53297,-11.03095,6.059806,-12.62266,0.007568359,0.1442871,-0.451416,-0.1519923,-0.6577252,0.2742901,18.01366,-0.5522266,-162.0001,17.72322,-0.9149287,-162.2516,LR
-0.1149902,-0.2141113,1.101318,0.2961069,0.07962596,0.06086259,-10.97278,5.885337,-12.5303,-10.9438,5.851953,-12.44442,-0.003662109,0.1547852,-0.451416,-0.2435954,-0.382916,0.1063511,18.02832,-0.5380174,-161.9799,18.92565,0.4396739,-161.0688,LR
-0.1113281,-0.2219238,1.088867,0.128168,0.03382444,-0.01547329,-10.98068,5.882546,-12.53682,-11.46161,5.72095,-12.84492,0.005371094,0.1467285,-0.4616699,-0.06038928,-0.4897862,0.3964274,18.01953,-0.5466818,-161.982,17.63024,-0.6352435,-162.3576,LR
-0.1123047,-0.2138672,1.084473,0.2350382,0.1864962,-0.04600763,-10.9798,5.883482,-12.53786,-11.09819,5.801352,-12.55733,0.005126953,0.1435547,-0.4528809,-0.1672597,-0.3981832,-0.1379237,18.00841,-0.5539672,-161.9925,17.58657,-0.6182878,-162.4018,LR
-0.109375,-0.2121582,1.091797,0.05183208,0.09489316,-0.1070763,-10.97831,5.879534,-12.53532,-10.94324,5.616376,-12.33216,0.002441406,0.1513672,-0.4560547,-0.06038928,-0.1386412,0.2132213,18.01458,-0.550748,-161.9822,18.36106,-0.2911045,-161.6365,LR
-0.1137695,-0.217041,1.088379,0.1587023,0.3239008,0.07612977,-10.98078,5.883767,-12.53727,-11.21824,5.853101,-12.68872,0.002197266,0.1469727,-0.4504395,0.03121376,0.1972366,-0.0310533,18.01616,-0.5421477,-161.9816,18.07064,-0.2657034,-161.9273,LR
-0.1147461,-0.215332,1.097412,-0.1008396,0.5834427,-0.0002061129,-10.9835,5.891834,-12.53723,-11.04271,5.85828,-12.53516,-0.001708984,0.1499023,-0.4511719,0.489229,0.2888396,-0.0005190372,18.0306,-0.5229397,-161.9743,18.379,0.2059581,-161.6198,LR
-0.1201172,-0.2145996,1.094482,0.0976336,0.4918396,0.1982672,-10.98297,5.904166,-12.53685,-11.0289,6.146905,-12.66397,0.004394531,0.1501465,-0.4577637,0.4128931,0.1056336,0.06054974,18.03964,-0.5212771,-161.9706,18.15871,-0.522629,-161.8332,LR
-0.1174316,-0.2138672,1.096191,0.1739695,-0.08831299,0.3051374,-10.98015,5.904744,-12.5323,-10.97846,6.002283,-12.54815,0.005126953,0.1496582,-0.4526367,0.1533511,-0.2455115,-0.01578617,18.04684,-0.526543,-161.9653,18.29467,-0.6161507,-161.6942,LR
-0.1166992,-0.2131348,1.097412,-0.009236574,-0.2257175,0.0,-10.97929,5.902742,-12.53135,-10.93078,5.959512,-12.48515,0.005126953,0.1499023,-0.442627,0.06174803,-0.4592519,-0.06158781,18.06098,-0.5353345,-161.9525,18.70828,-0.628563,-161.2804,LR
-0.1157227,-0.2128906,1.10083,0.2350382,-0.4089237,-0.09180916,-10.97399,5.89653,-12.53035,-10.88683,5.892677,-12.41374,0.005859375,0.1455078,-0.4482422,-0.01458788,-0.4439847,-0.01578617,18.05919,-0.5458361,-161.9537,17.98296,-0.7123337,-162.002,LR
-0.111084,-0.2104492,1.081055,0.3571756,-0.2715191,0.1219313,-10.9681,5.889532,-12.52612,-10.95971,5.759478,-12.41427,0.002929688,0.142334,-0.447998,0.01594663,-0.3371145,-0.1226563,18.05075,-0.5470168,-161.9639,17.62528,-0.3570921,-162.3709,LR
-0.1113281,-0.2197266,1.087402,0.1892367,-0.2562519,0.1066641,-10.97328,5.882585,-12.52929,-11.36583,5.730542,-12.76335,0.004394531,0.1477051,-0.4519043,0.03121376,-0.2607787,0.1063511,18.05215,-0.550246,-161.961,18.0992,-0.5295849,-161.8925,LR
-0.1137695,-0.2148438,1.098145,0.2655725,-0.2562519,0.09139694,-10.97041,5.877528,-12.52711,-11.01218,5.805543,-12.48284,0.001464844,0.1455078,-0.4558105,-0.197794,-0.2455115,0.07581687,18.04229,-0.5463584,-161.9666,17.70449,-0.1754106,-162.2946,LR
-0.1174316,-0.2143555,1.090332,0.1434351,0.03382444,-0.0002061129,-10.97009,5.881127,-12.52927,-11.05993,6.03261,-12.63485,0.004150391,0.1452637,-0.4523926,-0.2283282,-0.4592519,-0.04632068,18.03411,-0.5521916,-161.9717,17.80117,-0.5004682,-162.1913,LR
-0.1191406,-0.2155762,1.090332,0.1434351,0.003290057,-0.0002061129,-10.97097,5.885922,-12.53328,-11.11953,6.118453,-12.72955,0.004638672,0.1455078,-0.4501953,-0.04512215,-0.4287176,0.182687,18.03093,-0.5591046,-161.971,17.91048,-0.5617271,-162.0801,LR
-0.1186523,-0.2121582,1.097656,0.2350382,-0.2257175,-0.2444809,-10.96542,5.885828,-12.53619,-10.87756,6.058226,-12.487,0.002197266,0.1435547,-0.4533691,0.01594663,-0.5661222,-0.04632068,18.02192,-0.5609842,-161.9808,17.56966,-0.2647295,-162.4282,LR
-0.1130371,-0.2126465,1.096436,0.2045038,0.1406947,0.07612977,-10.96169,5.885626,-12.53217,-10.91941,5.779181,-12.38786,0.0004882813,0.1459961,-0.4562988,-0.1061909,-0.1386412,-0.01578617,18.01477,-0.5529705,-161.9866,17.74244,-0.05839544,-162.2574,LR
-0.1118164,-0.2133789,1.088135,-0.1008396,0.430771,0.01506107,-10.9647,5.88941,-12.53098,-11.03801,5.758194,-12.48332,-0.0007324219,0.145752,-0.4484863,0.1991527,0.01403052,0.07581687,18.01747,-0.5399251,-161.9857,18.00343,0.08898815,-161.9963,LR
-0.1186523,-0.2145996,1.100342,0.05183208,0.339168,0.06086259,-10.96412,5.897439,-12.53073,-10.9738,6.041589,-12.56337,0.005126953,0.1437988,-0.4589844,0.229687,0.07509923,0.04528236,18.00861,-0.5401633,-161.9971,17.39464,-0.610711,-162.5939,LR
-0.1069336,-0.2158203,1.100098,-0.05503809,0.3239008,0.0,-10.96667,5.893542,-12.52711,-11.0487,5.4487,-12.34967,0.0,0.1452637,-0.4599609,0.1838853,-0.07757253,0.1216183,18.00168,-0.5305004,-162.0048,17.52702,-0.0,-162.473,LR
-0.114502,-0.215332,1.09082,0.0976336,0.07962596,0.1219313,-10.96805,5.894435,-12.52683,-11.10733,5.879669,-12.60276,0.004638672,0.1420898,-0.453125,0.06174803,-0.291313,0.3658931,17.99075,-0.5353657,-162.011,17.4094,-0.5596518,-162.581,LR
-0.114502,-0.213623,1.10791,0.06709921,-0.2715191,0.1066641,-10.96485,5.888447,-12.52152,-10.85718,5.794555,-12.34004,0.004638672,0.1489258,-0.4499512,-0.02985501,-0.3065802,0.04528236,17.99675,-0.54038,-162.0036,18.31271,-0.5607429,-161.6781,LR
-0.1188965,-0.2175293,1.100586,0.219771,-0.2104504,-0.07654199,-10.96467,5.888577,-12.52609,-11.11727,6.049622,-12.69377,0.002685547,0.1489258,-0.458252,0.1075497,-0.2455115,0.259023,17.99846,-0.539568,-161.9996,18.00318,-0.3193334,-161.9938,LR
-0.114502,-0.2175293,1.091797,0.1587023,-0.1493817,-0.04600763,-10.9672,5.886057,-12.53003,-11.20814,5.872404,-12.68888,0.005126953,0.1462402,-0.4536133,-0.04512215,-0.07757253,-0.168458,17.99518,-0.5422434,-162.0045,17.86772,-0.616322,-162.1209,LR
-0.1140137,-0.2126465,1.109131,0.1739695,-0.1035802,0.03032825,-10.96126,5.882111,-12.52444,-10.7977,5.764864,-12.27306,0.00390625,0.1520996,-0.4506836,0.01594663,-0.1539084,0.3353589,18.00847,-0.5430714,-161.9864,18.64819,-0.4705205,-161.3454,LR
-0.114502,-0.2167969,1.093994,0.4029771,-0.3020534,0.2288015,-10.9591,5.877266,-12.52323,-11.14972,5.861882,-12.63192,0.0078125,0.1467285,-0.4418945,-0.1519923,-0.3981832,0.091084,18.01339,-0.5572886,-161.9775,18.36577,-0.9612631,-161.6073,LR
-0.1152344,-0.2131348,1.091797,0.2350382,-0.2104504,0.03032825,-10.95619,5.874911,-12.52256,-10.98653,5.914188,-12.51232,0.002685547,0.1477051,-0.439209,-0.2283282,-0.6882596,0.091084,18.02151,-0.5629013,-161.9648,18.58736,-0.3320572,-161.4094,LR
-0.1149902,-0.2099609,1.09375,0.3113741,-0.2867863,0.2288015,-10.94866,5.871093,-12.51566,-10.8084,5.894831,-12.34557,0.003417969,0.1486816,-0.4572754,-0.06038928,-0.5661222,-0.168458,18.02048,-0.5675559,-161.9675,18.0113,-0.4072704,-161.9838,LR
-0.1184082,-0.2160645,1.097412,0.06709921,0.06435877,0.0,-10.95028,5.875417,-12.51842,-11.07556,6.043126,-12.65378,0.004882813,0.1464844,-0.4536133,-0.1367252,-0.2607787,-0.1073892,18.01584,-0.5720314,-161.9717,17.89574,-0.5868831,-162.094,LR
-0.1103516,-0.2128906,1.08374,0.1892367,0.1559618,-0.03074045,-10.94947,5.87447,-12.51807,-11.05795,5.705781,-12.47641,0.005859375,0.1477051,-0.456543,0.0006792545,-0.1386412,0.1368854,18.01406,-0.5764851,-161.9716,17.92654,-0.699607,-162.0589,LR
-0.1157227,-0.2185059,1.085205,0.2350382,0.5681756,-0.0002061129,-10.95369,5.884135,-12.52442,-11.32176,5.967946,-12.83541,-0.002929688,0.1486816,-0.4626465,0.2449541,0.07509923,0.3353589,18.01393,-0.5568695,-161.9705,17.81562,0.3454192,-162.1808,LR
-0.1108398,-0.2126465,1.10498,0.1739695,0.6445115,-0.01547329,-10.94868,5.88907,-12.51906,-10.83994,5.625596,-12.24431,0.0007324219,0.1447754,-0.4558105,0.2602212,0.2888396,0.091084,18.00964,-0.5435242,-161.9774,17.62096,-0.08774623,-162.3788,LR
-0.1166992,-0.2160645,1.092773,-0.02450383,0.5681756,0.2135344,-10.9525,5.898698,-12.51904,-11.12268,5.980696,-12.665,0.004882813,0.1437988,-0.4445801,0.5044961,0.1972366,-0.2295268,18.01977,-0.5399889,-161.9846,17.92272,-0.5987157,-162.0666,LR
-0.1162109,-0.2138672,1.089355,0.00603056,0.1254275,-0.01547329,-10.95423,5.903193,-12.52093,-11.04618,5.975976,-12.59506,0.002441406,0.1479492,-0.4460449,0.0,-0.382916,0.3811603,18.02637,-0.5407712,-161.9722,18.34998,-0.2976562,-161.6474,LR
-0.1115723,-0.215332,1.090088,0.219771,0.2322977,0.04559542,-10.95427,5.903223,-12.5207,-11.11752,5.733925,-12.54277,-0.005371094,0.1472168,-0.4528809,-0.01458788,-0.1997099,0.091084,18.02576,-0.5199675,-161.9711,18.00647,0.6462052,-161.9811,LR
-0.1091309,-0.2092285,1.097168,0.1892367,0.2933664,-0.1223435,-10.9473,5.901079,-12.51485,-10.74482,5.580386,-12.13827,0.0007324219,0.145752,-0.4553223,-0.1214581,-0.2455115,-0.1226563,18.01846,-0.5149326,-161.9784,17.75022,-0.08777718,-162.2495,LR
-0.1101074,-0.2128906,1.099365,0.1434351,0.3849695,0.1219313,-10.94437,5.901031,-12.50873,-10.90635,5.61577,-12.29894,0.004150391,0.1455078,-0.4589844,0.04648089,-0.4134504,0.0147481,18.01051,-0.5201838,-161.9867,17.58905,-0.4938641,-162.4036,LR
-0.1120605,-0.2111816,1.093262,-0.1008396,0.5223741,-0.2139466,-10.94441,5.905117,-12.5082,-10.87735,5.746936,-12.33512,0.00390625,0.1486816,-0.4560547,0.0922823,-0.1844428,0.2437558,18.01278,-0.521823,-161.9821,18.05624,-0.4665758,-161.9373,LR
-0.1079102,-0.2097168,1.099854,0.2503054,0.7055801,0.03032825,-10.93674,5.907486,-12.49965,-10.74502,5.504983,-12.10313,0.002197266,0.1481934,-0.4438477,0.1228168,-0.0470382,-0.04632068,18.02359,-0.5174589,-161.9739,18.4631,-0.2690404,-161.5348,LR
-0.1181641,-0.2128906,1.096436,0.1129008,0.4765725,0.1524656,-10.93488,5.917125,-12.49783,-10.92644,6.039159,-12.5205,-0.002197266,0.1508789,-0.4555664,0.2754886,0.3651755,0.0147481,18.03365,-0.4964951,-161.9677,18.32414,0.2623314,-161.6738,LR
-0.1157227,-0.2163086,1.098389,-0.1161069,-0.02724427,0.04559542,-10.93951,5.916417,-12.499,-11.08105,5.901779,-12.59004,0.004394531,0.1469727,-0.4455566,0.2449541,0.1209008,-0.01578617,18.04192,-0.4954024,-161.9633,18.25498,-0.5366499,-161.7366,LR
-0.112793,-0.2126465,1.09668,-0.009236574,-0.1188473,0.183,-10.93921,5.911536,-12.49374,-10.9173,5.765554,-12.37948,0.003662109,0.1501465,-0.4467773,0.229687,-0.2455115,0.1063511,18.05596,-0.4980066,-161.9509,18.57514,-0.4451621,-161.4191,LR
-0.1125488,-0.2160645,1.094971,-0.03977096,-0.3936565,0.07612977,-10.94312,5.902687,-12.49362,-11.10541,5.758387,-12.54346,0.005615234,0.1430664,-0.4533691,0.1228168,-0.3523817,0.2132213,18.0469,-0.5067608,-161.9582,17.51249,-0.6767137,-162.4736,LR
-0.1101074,-0.2133789,1.098389,0.1739695,-0.4852595,0.3356718,-10.9405,5.889901,-12.48543,-10.94016,5.620088,-12.33114,0.001464844,0.1462402,-0.4511719,-0.06038928,-0.7340611,0.1063511,18.04432,-0.5102361,-161.9583,17.95919,-0.1769608,-162.0399,LR
-0.1120605,-0.217041,1.096924,0.4182443,-0.7142672,-0.03074045,-10.93867,5.87676,-12.48722,-11.13567,5.722848,-12.55379,0.001708984,0.1394043,-0.4489746,-0.4726033,-0.7493282,0.1063511,18.02147,-0.5152122,-161.9726,17.24918,-0.2082817,-162.7495,LR
-0.1157227,-0.215332,1.087891,0.3266413,-0.5005267,0.07612977,-10.93779,5.871011,-12.48965,-11.1349,5.957195,-12.66446,0.002685547,0.1430664,-0.4516602,-0.07565641,-0.2607787,0.2742901,18.01144,-0.5152368,-161.9775,17.57566,-0.3247705,-162.4211,LR
-0.1135254,-0.2133789,1.088379,0.2350382,0.07962596,0.06086259,-10.93626,5.871648,-12.48937,-11.03389,5.844343,-12.52065,0.001464844,0.144043,-0.4399414,-0.04512215,-0.2149771,-0.2295268,18.01313,-0.5117183,-161.9788,18.12907,-0.1813028,-161.8699,LR
-0.1101074,-0.215332,1.097412,0.2655725,0.3697023,0.06086259,-10.93457,5.87211,-12.48726,-11.04733,5.623005,-12.42831,0.0007324219,0.1450195,-0.4628906,-0.1061909,-0.2149771,-0.04632068,17.99921,-0.5063743,-161.992,17.39529,-0.08651155,-162.6045,LR
-0.1113281,-0.2121582,1.096191,-0.131374,0.4613054,-0.01547329,-10.93579,5.87533,-12.48432,-10.89896,5.694069,-12.32919,0.002685547,0.1491699,-0.4682617,0.03121376,-0.3523817,-0.06158781,17.99308,-0.5076888,-161.9996,17.66958,-0.3130934,-162.3275,LR
-0.1091309,-0.2160645,1.084717,0.1739695,0.2780993,0.1219313,-10.93872,5.874614,-12.48444,-11.21014,5.635095,-12.57976,-0.0009765625,0.1518555,-0.4550781,-0.04512215,-0.550855,0.2284887,18.00162,-0.5033,-161.9872,18.45335,0.1166301,-161.5462,LR
-0.1066895,-0.2126465,1.092773,0.06709921,0.2475649,-0.03074045,-10.93818,5.870244,-12.48085,-10.96092,5.474178,-12.28232,-0.001464844,0.1496582,-0.4567871,0.2449541,-0.1539084,0.04528236,18.00799,-0.4920043,-161.9839,18.14038,0.1746054,-161.8587,LR
-0.1125488,-0.2050781,1.090332,0.128168,0.262832,-0.01547329,-10.92947,5.872554,-12.47365,-10.59716,5.792585,-12.10931,-0.0009765625,0.1555176,-0.4658203,0.32129,0.3957099,-0.1531909,18.0218,-0.4740685,-161.9772,18.46193,0.1139349,-161.5377,LR
-0.1083984,-0.2045898,1.100342,0.2350382,0.339168,-0.07654199,-10.9171,5.870729,-12.46295,-10.48328,5.532041,-11.88274,0.001708984,0.1547852,-0.4506836,0.2602212,0.3041069,0.3048244,18.04428,-0.4642265,-161.9541,18.95466,-0.2054826,-161.0441,LR
-0.109375,-0.2067871,1.09375,0.2045038,0.2017633,-0.1376107,-10.90883,5.868517,-12.45717,-10.6542,5.611829,-12.07253,0.005615234,0.1477051,-0.4519043,0.3823588,0.227771,0.1368854,18.05061,-0.4653505,-161.9509,18.09869,-0.6766797,-161.8878,LR
-0.1164551,-0.2148438,1.100098,0.08236647,0.1101603,0.1219313,-10.90934,5.871289,-12.45684,-10.9906,5.931526,-12.52433,0.008789063,0.1474609,-0.4509277,0.1228168,-0.123374,0.091084,18.05351,-0.4790835,-161.9478,18.1054,-1.06132,-161.8613,LR
-0.1196289,-0.2148438,1.095703,0.2045038,-0.607397,0.1524656,-10.90874,5.867241,-12.45844,-11.0298,6.115334,-12.64908,0.002929688,0.1381836,-0.4511719,0.01594663,-0.6729923,0.2742901,18.03324,-0.4865095,-161.9641,17.02829,-0.3557347,-162.9678,LR
-0.1125488,-0.2094727,1.098389,0.3724428,-0.7753359,0.1371985,-10.89993,5.853451,-12.45157,-10.74224,5.747645,-12.21565,0.0009765625,0.1418457,-0.4484863,-0.3351984,0.0,-0.0310533,18.01867,-0.4791583,-161.9743,17.5509,-0.1189516,-162.4487,LR
-0.1074219,-0.2214355,1.089355,0.2350382,-0.4547252,0.1066641,-10.9072,5.84009,-12.45559,-11.43609,5.519597,-12.73099,0.006347656,0.1481934,-0.4506836,-0.5031376,-0.7493282,-0.01578617,18.0149,-0.4959214,-161.9707,18.20016,-0.7665573,-161.7826,LR
-0.1120605,-0.2329102,1.099609,0.2045038,-0.3631221,0.03032825,-10.92404,5.831819,-12.47058,-11.8993,5.693434,-13.22741,0.004394531,0.1445313,-0.4555664,-0.3504658,-0.382916,0.07581687,18.00147,-0.5021678,-161.978,17.60118,-0.5268007,-162.3904,LR
-0.109375,-0.2114258,1.090088,0.2961069,0.09489316,0.06086259,-10.91966,5.829088,-12.46664,-10.92289,5.625509,-12.31826,0.003173828,0.1430664,-0.4628906,-0.07565641,-0.2149771,-0.04632068,17.98382,-0.5027912,-161.9955,17.17452,-0.3753273,-162.8211,LR
-0.1125488,-0.2180176,1.090576,0.1892367,0.4765725,-0.09180916,-10.92342,5.835084,-12.47224,-11.2468,5.778597,-12.67913,-0.002441406,0.1477051,-0.4504395,0.01594663,-0.3981832,0.1216183,17.98748,-0.492687,-161.9907,18.15475,0.2950837,-161.8427,LR
-0.119873,-0.2126465,1.089355,0.219771,0.5681756,0.09139694,-10.92134,5.850018,-12.47406,-10.98081,6.16416,-12.6304,0.001953125,0.1481934,-0.4509277,-0.2435954,-0.1386412,0.2437558,17.988,-0.4895865,-161.9834,18.19248,-0.2357612,-161.8059,LR
-0.1140137,-0.2143555,1.097656,-0.1924427,0.4613054,0.07612977,-10.92559,5.856215,-12.47291,-10.99224,5.820875,-12.47245,-0.002441406,0.1433105,-0.4606934,0.1533511,-0.1691756,0.182687,17.97608,-0.4764831,-161.9954,17.27942,0.2899276,-162.718,LR
-0.1171875,-0.2126465,1.0896,0.2350382,0.3239008,0.04559542,-10.92325,5.864368,-12.47402,-10.98127,6.025799,-12.56217,0.0002441406,0.1489258,-0.4523926,0.2144198,0.02929771,0.1368854,17.98413,-0.4671102,-161.989,18.22133,-0.02937006,-161.7786,LR
-0.1125488,-0.2133789,1.096436,0.1739695,0.3239008,0.1371985,-10.92136,5.866916,-12.4707,-10.95659,5.75367,-12.40873,0.0078125,0.1479492,-0.449707,0.03121376,-0.1386412,-0.07685494,17.98907,-0.4787145,-161.9857,18.20814,-0.9454264,-161.7656,LR
-0.1152344,-0.215332,1.091309,0.1434351,0.1254275,0.1219313,-10.92286,5.869711,-12.47178,-11.10178,5.914484,-12.61453,0.003173828,0.1513672,-0.4543457,0.229687,-0.07757253,-0.1837251,18.00117,-0.4778749,-161.9801,18.42529,-0.3797151,-161.5705,LR
-0.1184082,-0.2138672,1.093506,0.0976336,-0.04251146,0.07612977,-10.92303,5.873013,-12.47326,-11.00345,6.066038,-12.60152,0.0,0.1520996,-0.4501953,0.1838853,-0.031771,0.259023,18.0172,-0.4687844,-161.9633,18.66767,-0.0,-161.3323,LR
-0.1154785,-0.215332,1.094238,0.2045038,-0.1341145,-0.1223435,-10.92302,5.871816,-12.47734,-11.07286,5.911757,-12.58759,0.002197266,0.1455078,-0.447998,0.1380839,-0.2607787,-0.1837251,18.01862,-0.468332,-161.9667,17.99337,-0.2672687,-162.0045,LR
-0.1179199,-0.2119141,1.088379,0.2503054,-0.5005267,0.1371985,-10.92024,5.868921,-12.47715,-10.95544,6.070444,-12.56147,0.006591797,0.1472168,-0.4477539,-0.06038928,-0.6119237,-0.04632068,18.02133,-0.4839856,-161.9637,18.19848,-0.8012513,-161.7827,LR
-0.1166992,-0.2155762,1.096924,0.03656495,-0.5157939,0.1982672,-10.92245,5.863152,-12.47663,-11.05767,5.95957,-12.59725,0.0,0.1452637,-0.4506836,-0.2435954,-0.7340611,-0.04632068,18.01463,-0.4850966,-161.9678,17.86509,-0.0,-162.1349,LR
-0.114502,-0.2172852,1.087402,0.128168,-0.3631221,0.07612977,-10.92691,5.858457,-12.48053,-11.23949,5.895317,-12.72767,0.001953125,0.1462402,-0.4501953,-0.197794,-0.6119237,0.3048244,18.01134,-0.4891181,-161.964,17.99557,-0.2364101,-162.0028,LR
-0.1186523,-0.2160645,1.093018,0.2503054,-0.2257175,0.1066641,-10.92705,5.859545,-12.48353,-11.11822,6.078751,-12.70887,0.002197266,0.140625,-0.4645996,-0.04512215,-0.3981832,-0.0310533,17.98724,-0.4903761,-161.9883,16.83983,-0.2593514,-163.158,LR
-0.1130371,-0.2202148,1.096191,0.2655725,0.1559618,0.04559542,-10.93062,5.860105,-12.48768,-11.30063,5.772885,-12.72459,0.0,0.1516113,-0.451416,-0.1214581,-0.123374,-0.1226563,17.99701,-0.4823822,-161.9791,18.565,-0.0,-161.435,LR
-0.1123047,-0.2180176,1.103271,0.1739695,0.6139771,0.04559542,-10.93189,5.865982,-12.48791,-11.12218,5.702726,-12.53234,-0.0004882813,0.1469727,-0.4550781,0.04648089,0.1209008,-0.01578617,17.99568,-0.4699058,-161.9817,17.89844,0.05850085,-162.1015,LR
-0.09619141,-0.2092285,1.091797,0.02129769,0.430771,-0.0002061129,-10.92912,5.853481,-12.47636,-10.80758,4.94544,-11.91022,0.002197266,0.1513672,-0.4553223,0.2144198,-0.1997099,-0.04632068,18.0069,-0.4688866,-161.975,18.38865,-0.262374,-161.6093,LR
-0.1140137,-0.2094727,1.089844,-0.131374,0.2475649,-0.1070763,-10.92904,5.857606,-12.47538,-10.82216,5.865662,-12.34348,0.003173828,0.1467285,-0.4538574,0.1380839,-0.1386412,0.2284887,18.0071,-0.4691716,-161.9738,17.9152,-0.381236,-162.0805,LR
-0.1147461,-0.2155762,1.101074,-0.02450383,0.2933664,0.1066641,-10.9312,5.861555,-12.47441,-11.01945,5.839402,-12.50547,0.0002441406,0.145752,-0.4675293,0.0922823,-0.3676488,-0.0310533,17.99461,-0.4657639,-161.9884,17.31483,-0.02856363,-162.6851,LR
-0.111084,-0.2182617,1.091064,0.2808397,-0.05777865,-0.07654199,-10.93357,5.857499,-12.47907,-11.25571,5.701204,-12.6511,-0.0009765625,0.1503906,-0.4528809,0.1838853,0.2735725,-0.0005190372,18.00482,-0.450082,-161.9813,18.37002,0.1172527,-161.6296,LR
-0.1206055,-0.2121582,1.086182,0.1587023,-0.02724427,0.0,-10.93229,5.864336,-12.48275,-10.98628,6.219368,-12.6629,0.0002441406,0.1428223,-0.453125,0.2907557,0.2430381,0.2132213,17.99889,-0.4380966,-161.9886,17.49453,-0.02944267,-162.5054,LR
-0.1162109,-0.2155762,1.093994,0.1587023,0.003290057,0.1219313,-10.93304,5.866097,-12.48366,-11.08673,5.950003,-12.61833,0.003417969,0.1484375,-0.4467773,0.4128931,0.227771,0.0147481,18.01254,-0.4343057,-161.981,18.37807,-0.4159637,-161.6169,LR
-0.1247559,-0.2158203,1.089844,0.128168,-0.1035802,0.0,-10.93511,5.875391,-12.49167,-11.13043,6.406947,-12.88383,0.006103516,0.1503906,-0.4519043,0.229687,0.1819695,0.1216183,18.02378,-0.4376289,-161.9711,18.40552,-0.7342163,-161.5788,LR
-0.1132813,-0.220459,1.103516,0.2655725,-0.2715191,0.1677328,-10.93731,5.868859,-12.49255,-11.24019,5.748353,-12.6591,0.006835938,0.1496582,-0.4453125,0.06174803,-0.3981832,0.07581687,18.03569,-0.4514028,-161.9587,18.57415,-0.8336583,-161.4058,LR
-0.1096191,-0.2211914,1.09375,0.128168,-0.5921298,0.1066641,-10.94422,5.854986,-12.49551,-11.37735,5.610424,-12.7188,0.0002441406,0.1430664,-0.4472656,-0.2283282,-0.9172672,0.1368854,18.02638,-0.4564543,-161.9628,17.73786,-0.02978818,-162.2621,LR
-0.1193848,-0.2172852,1.097656,0.2808397,-0.5463283,0.03032825,-10.94387,5.851656,-12.4997,-11.13315,6.09002,-12.72756,0.001464844,0.142334,-0.449707,-0.289397,0.0,0.091084,18.01285,-0.4508839,-161.9709,17.56269,-0.1779312,-162.4363,LR
-0.1166992,-0.2189941,1.096191,0.5403817,-0.4089237,0.0,-10.94177,5.847808,-12.50481,-11.2358,5.959856,-12.7552,0.0009765625,0.1459961,-0.4599609,-0.2283282,-0.6577252,-0.01578617,18.00143,-0.4538537,-161.9795,17.60991,-0.1159463,-162.3897,LR
-0.1174316,-0.220459,1.080322,0.5251145,-0.08831299,-0.04600763,-10.94458,5.851142,-12.51577,-11.46811,6.0794,-13.01876,0.00390625,0.1435547,-0.4482422,-0.1061909,-0.1081069,-0.3363969,17.99416,-0.4567235,-161.9922,17.75763,-0.4755075,-162.2356,LR
-0.1201172,-0.2094727,1.094971,0.2350382,0.5376411,-0.2444809,-10.93573,5.86923,-12.51969,-10.76701,6.149617,-12.4361,0.005615234,0.1420898,-0.4570313,0.0006792545,-0.4745191,0.091084,17.97967,-0.4680081,-162.0053,17.26911,-0.6721856,-162.717,LR
-0.1135254,-0.2072754,1.094727,0.1587023,-0.7600687,0.3967404,-10.92799,5.85703,-12.5071,-10.66558,5.817889,-12.182,0.001708984,0.1501465,-0.4467773,-0.1214581,-0.3523817,-0.1073892,17.98981,-0.467983,-161.9953,18.5756,-0.2077456,-161.4232,LR
-0.111084,-0.2150879,1.097168,0.2808397,-0.5005267,0.3051374,-10.92604,5.846011,-12.50132,-11.03653,5.673997,-12.44241,0.005371094,0.1469727,-0.4523926,0.04648089,-0.123374,-0.2142596,17.99058,-0.4732547,-161.9981,17.99668,-0.6469385,-161.9909,LR
-0.1130371,-0.220459,1.099365,0.128168,-0.1646488,0.1219313,-10.93138,5.841966,-12.50362,-11.28135,5.756727,-12.69982,0.01367188,0.1503906,-0.4509277,0.07701516,-0.123374,-0.1379237,18.00063,-0.498553,-161.9899,18.43636,-1.647486,-161.4849,LR
-0.1169434,-0.215332,1.092773,0.2655725,-0.01197708,0.1982672,-10.93056,5.844828,-12.5034,-11.08565,5.993875,-12.63865,0.003417969,0.154541,-0.4567871,0.07701516,-0.4134504,-0.1073892,18.01558,-0.5027817,-161.9778,18.69131,-0.4061038,-161.3039,LR
-0.1235352,-0.2121582,1.097412,0.02129769,0.07962596,-0.04600763,-10.92914,5.85524,-12.50622,-10.87474,6.306908,-12.61009,0.0002441406,0.1413574,-0.4501953,-0.1214581,-0.3981832,-0.1073892,18.00212,-0.4991723,-161.9911,17.43184,-0.02964447,-162.5681,LR
-0.1154785,-0.2126465,1.094238,0.03656495,-0.1646488,0.09139694,-10.92878,5.854005,-12.50414,-10.93812,5.914471,-12.46966,0.001220703,0.1445313,-0.458252,-0.2283282,-0.3523817,0.1521528,17.9886,-0.4976253,-161.9988,17.50505,-0.1455575,-162.4943,LR
-0.112793,-0.2128906,1.097412,0.1587023,-0.1188473,0.07612977,-10.92616,5.850294,-12.50051,-10.92249,5.761633,-12.38221,0.0,0.1474609,-0.4516602,-0.197794,-0.4134504,-0.260061,17.98774,-0.4933454,-162.0008,18.08116,-0.0,-161.9188,LR
-0.1113281,-0.2158203,1.096924,0.1587023,0.2322977,0.07612977,-10.92697,5.850213,-12.49911,-11.07532,5.686883,-12.48308,0.005615234,0.1459961,-0.4509277,-0.04512215,-0.123374,0.07581687,17.98614,-0.4987463,-162.0007,17.939,-0.6787601,-162.0473,LR
-0.1149902,-0.2116699,1.108643,0.02129769,0.339168,0.07612977,-10.92319,5.854208,-12.49326,-10.7529,5.817297,-12.25878,-0.002441406,0.1484375,-0.4521484,-0.01458788,-0.001236677,-0.260061,17.98968,-0.4829121,-162.0012,18.17444,0.2939353,-161.823,LR
-0.1103516,-0.2104492,1.100342,-0.1008396,0.339168,0.01506107,-10.92181,5.854955,-12.48689,-10.77474,5.625659,-12.18628,-0.0002441406,0.1491699,-0.4572754,0.229687,0.1209008,-0.1531909,17.99461,-0.470895,-162.0021,18.06708,0.02908209,-161.9329,LR
-0.1108398,-0.2128906,1.093506,-0.02450383,0.2017633,0.1677328,-10.92297,5.854459,-12.48228,-10.9621,5.681881,-12.37968,0.003662109,0.1464844,-0.4538574,0.1838853,-0.1081069,0.2132213,17.99516,-0.4718653,-162.001,17.88716,-0.4399547,-162.1071,LR
-0.1154785,-0.2133789,1.099609,0.3724428,0.1559618,-0.2139466,-10.9175,5.857384,-12.48463,-10.92314,5.886095,-12.44264,0.002441406,0.1513672,-0.439209,0.1991527,-0.3981832,-0.06158781,18.0183,-0.4739131,-161.9815,19.01552,-0.3011038,-160.9819,LR
-0.1096191,-0.2172852,1.091064,0.02129769,-0.3173206,0.2288015,-10.92302,5.848432,-12.48329,-11.20809,5.62747,-12.57442,0.002441406,0.144043,-0.4519043,0.2754886,-0.1539084,0.07581687,18.01557,-0.4725957,-161.9871,17.67926,-0.2949175,-162.3181,LR
-0.1152344,-0.2138672,1.097656,0.1892367,-0.4089237,0.2746031,-10.92111,5.843117,-12.47918,-10.96657,5.883251,-12.4797,0.001708984,0.1496582,-0.4477539,-0.09092379,-0.3981832,0.04528236,18.02355,-0.4731452,-161.977,18.48167,-0.2074064,-161.5171,LR
-0.1154785,-0.2175293,1.094727,0.2503054,-0.3020534,-0.09180916,-10.92257,5.839954,-12.48452,-11.17821,5.906996,-12.67876,-0.0004882813,0.1430664,-0.4580078,-0.01458788,-0.5661222,0.0147481,18.00981,-0.4708383,-161.9903,17.34706,0.05830462,-162.6528,LR
-0.1237793,-0.2182617,1.102051,0.1739695,-0.4089237,0.1066641,-10.92425,5.84289,-12.48979,-11.13425,6.287331,-12.82657,0.001220703,0.1469727,-0.4650879,-0.06038928,-0.7187939,0.1063511,17.99947,-0.4748556,-161.9982,17.53703,-0.1433929,-162.4623,LR
-0.1166992,-0.2155762,1.090088,0.3724428,-0.1341145,0.01506107,-10.92278,5.843966,-12.49325,-11.12453,5.995279,-12.6737,0.003417969,0.1467285,-0.4533691,-0.2435954,-0.6577252,0.1216183,17.99456,-0.4832463,-161.9976,17.93319,-0.4109611,-162.0618,LR
-0.1186523,-0.2148438,1.100098,0.2045038,-0.01197708,-0.07654199,-10.92109,5.847763,-12.49605,-10.98834,6.042621,-12.57667,0.005371094,0.1481934,-0.4648438,-0.2741299,-0.5203207,0.091084,17.98426,-0.4938446,-162.0025,17.68131,-0.6307278,-162.3067,LR
-0.1152344,-0.2150879,1.090576,0.219771,0.3697023,0.1066641,-10.92137,5.854613,-12.4968,-11.09669,5.91853,-12.61197,0.004882813,0.1420898,-0.4592285,-0.06038928,-0.291313,0.091084,17.96753,-0.4998893,-162.017,17.19167,-0.5819641,-162.7979,LR
-0.1130371,-0.2092285,1.093018,-0.009236574,0.4918396,0.0,-10.91868,5.860748,-12.49235,-10.78049,5.799828,-12.2747,0.004638672,0.1462402,-0.453125,0.1991527,-0.123374,0.1063511,17.96882,-0.5028686,-162.0172,17.88594,-0.5581728,-162.1048,LR
-0.1113281,-0.2145996,1.090576,0.08236647,0.4002366,-0.01547329,-10.92062,5.863811,-12.49272,-11.0761,5.719737,-12.49916,0.003417969,0.1491699,-0.4555664,0.07701516,-0.01650381,0.1368854,17.97318,-0.5012243,-162.0121,18.12995,-0.4085221,-161.8651,LR
-0.1174316,-0.2075195,1.095459,-0.222977,0.4002366,-0.04600763,-10.91883,5.872669,-12.48913,-10.66708,6.012531,-12.27969,0.005371094,0.1501465,-0.4555664,0.2754886,-0.1844428,-0.0310533,17.98256,-0.506742,-162.0073,18.2401,-0.6415394,-161.7478,LR
-0.111084,-0.2197266,1.105957,0.02129769,0.2475649,0.03032825,-10.92378,5.871383,-12.48992,-11.18211,5.626396,-12.55062,0.003173828,0.1530762,-0.456543,0.1838853,-0.1081069,-0.0005190372,17.99651,-0.5058551,-161.9964,18.53558,-0.3776446,-161.4603,LR
-0.1159668,-0.2148438,1.094238,0.128168,0.06435877,0.1219313,-10.92425,5.873706,-12.48976,-11.04787,5.937073,-12.57768,0.002929688,0.1486816,-0.4538574,0.0922823,-0.01650381,0.06054974,18.0007,-0.50301,-161.9927,18.13821,-0.3514655,-161.8581,LR
-0.1152344,-0.217041,1.085938,0.128168,-0.07304579,-0.06127481,-10.9287,5.873971,-12.49588,-11.24101,5.940653,-12.75063,0.0002441406,0.1455078,-0.4523926,0.0006792545,-0.1691756,-0.1531909,17.99729,-0.4960254,-161.9985,17.8299,-0.02943542,-162.1701,LR
-0.1237793,-0.21875,1.097168,0.1434351,-0.3783893,0.3204046,-10.93215,5.877199,-12.49931,-11.20633,6.313498,-12.90283,0.001464844,0.151123,-0.4660645,0.0006792545,-0.2607787,0.04528236,17.99666,-0.4933643,-161.9986,17.96539,-0.1713002,-162.0337,LR
-0.1125488,-0.2106934,1.094238,0.05183208,-0.2867863,0.1677328,-10.9296,5.870786,-12.49314,-10.84296,5.767352,-12.31437,0.0078125,0.1489258,-0.4460449,-0.01458788,-0.2760458,0.06054974,18.00573,-0.5065908,-161.988,18.46053,-0.9517963,-161.5132,LR
-0.1105957,-0.2182617,1.086182,0.1129008,-0.2562519,0.1524656,-10.93545,5.863617,-12.49494,-11.305,5.700675,-12.69503,0.002685547,0.1489258,-0.4543457,0.0922823,-0.4134504,0.03001523,18.00993,-0.508973,-161.9847,18.14785,-0.3218135,-161.8491,LR
-0.1196289,-0.2216797,1.098145,0.3113741,-0.2562519,0.1219313,-10.93911,5.86448,-12.50164,-11.3474,6.095135,-12.91933,0.001464844,0.1467285,-0.4536133,-0.1672597,-0.382916,-0.0005190372,18.00576,-0.5079432,-161.9866,17.92455,-0.1760428,-162.0745,LR
-0.1103516,-0.2133789,1.091064,0.128168,-0.2562519,0.1524656,-10.93866,5.856797,-12.4977,-11.01085,5.668655,-12.41697,0.004638672,0.1437988,-0.451416,-0.01458788,-0.5355878,0.1521528,17.9988,-0.5168769,-161.991,17.66843,-0.5609682,-162.3221,LR
-0.1098633,-0.2150879,1.087646,0.2045038,-0.1035802,0.09139694,-10.9395,5.851319,-12.4968,-11.131,5.659028,-12.5199,0.001708984,0.1518555,-0.4545898,0.0006792545,-0.3676488,-0.1989923,18.00827,-0.5160298,-161.9847,18.47174,-0.2042994,-161.527,LR
-0.1123047,-0.2209473,1.094727,0.3724428,0.09489316,0.2593359,-10.94229,5.850534,-12.49819,-11.35262,5.742319,-12.75694,0.002685547,0.1452637,-0.4550781,-0.07565641,-0.2607787,-0.2142596,18.00105,-0.5159848,-161.994,17.70311,-0.3221033,-162.2938,LR
-0.1115723,-0.2138672,1.100586,0.219771,0.262832,-0.2444809,-10.93906,5.851048,-12.49907,-10.94202,5.683015,-12.36232,0.001220703,0.154541,-0.4580078,0.0006792545,-0.07757253,-0.0005190372,18.01395,-0.5096993,-161.9812,18.64536,-0.1446922,-161.354,LR
-0.1159668,-0.2141113,1.097168,0.2350382,0.1559618,-0.1528779,-10.93648,5.854772,-12.5016,-10.98276,5.922654,-12.5131,0.01293945,0.1481934,-0.4611816,-0.09092379,0.02929771,-0.09212208,18.00848,-0.529677,-161.9854,17.80741,-1.530119,-162.1225,LR
-0.1113281,-0.215332,1.100586,0.0976336,0.3086336,-0.09180916,-10.93662,5.855598,-12.50134,-11.01538,5.669253,-12.4213,-0.001220703,0.1501465,-0.4577637,-0.01458788,-0.01650381,-0.0005190372,18.01128,-0.5164225,-161.9825,18.15943,0.1451784,-161.84,LR
-0.1154785,-0.2075195,1.092529,0.06709921,0.2475649,0.09139694,-10.93083,5.860695,-12.49524,-10.69668,5.928442,-12.26376,0.002197266,0.1447754,-0.4550781,0.3518243,-0.001236677,-0.1531909,18.00952,-0.5113859,-161.9923,17.64739,-0.2636218,-162.3505,LR
-0.1159668,-0.217041,1.093994,0.08236647,0.1254275,0.04559542,-10.93413,5.86417,-12.49816,-11.16044,5.93609,-12.67693,0.002685547,0.144043,-0.4543457,0.2449541,-0.09283972,0.1521528,18.00473,-0.5089794,-161.9983,17.59009,-0.3228251,-162.4067,LR
-0.1169434,-0.2158203,1.095703,0.03656495,0.4613054,0.01506107,-10.93654,5.873229,-12.50053,-11.08152,5.978056,-12.62732,0.002197266,0.1503906,-0.4482422,0.3060229,0.2735725,-0.0005190372,18.02008,-0.5001037,-161.9874,18.54701,-0.2662723,-161.4509,LR
-0.1147461,-0.2209473,1.093018,0.1129008,0.2170305,0.1066641,-10.9435,5.876455,-12.50558,-11.36719,5.875041,-12.83185,0.005859375,0.1469727,-0.4555664,0.2907557,-0.1386412,-0.04632068,18.02153,-0.5061656,-161.9905,17.87911,-0.701294,-162.1062,LR
-0.1184082,-0.2128906,1.107178,0.08236647,-0.179916,0.09139694,-10.93989,5.876188,-12.5023,-10.82387,5.995347,-12.40865,0.005371094,0.1428223,-0.4575195,0.03121376,-0.2607787,-0.04632068,18.00827,-0.5127166,-162.0044,17.33549,-0.6420451,-162.6519,LR
-0.1140137,-0.2158203,1.100586,0.1892367,-0.4547252,0.07612977,-10.93906,5.868073,-12.50123,-11.03708,5.804604,-12.50452,0.008300781,0.1474609,-0.4680176,0.06174803,-0.5203207,0.182687,17.99873,-0.5294937,-162.0113,17.48579,-0.9691373,-162.4856,LR
-0.1147461,-0.2202148,1.104736,0.3266413,-0.3783893,0.03032825,-10.93976,5.861474,-12.50412,-11.21461,5.816278,-12.6681,0.0004882813,0.1467285,-0.4643555,-0.06038928,-0.5966565,0.2284887,17.98858,-0.5288236,-162.017,17.53565,-0.05744816,-162.4642,LR
-0.1147461,-0.2158203,1.103516,0.1434351,-0.3783893,0.1524656,-10.93902,5.855218,-12.50158,-11.00807,5.826803,-12.48934,0.002197266,0.1508789,-0.4528809,-0.1672597,-0.6271908,0.091084,17.99486,-0.5327415,-162.0068,18.42548,-0.263732,-161.5725,LR
-0.1115723,-0.2207031,1.090088,0.2961069,-0.4241909,-0.0002061129,-10.94364,5.846449,-12.50719,-11.38767,5.728531,-12.78201,0.006591797,0.1469727,-0.4489746,-0.1367252,-0.5203207,0.03001523,17.99544,-0.5457237,-162.0033,18.12413,-0.7994134,-161.857,LR
-0.1193848,-0.2121582,1.089844,0.219771,-0.02724427,0.183,-10.94058,5.851862,-12.50619,-10.95199,6.137126,-12.59162,0.005615234,0.1462402,-0.4536133,0.03121376,-0.1691756,0.06054974,17.99333,-0.5507963,-162.0047,17.8675,-0.6750142,-162.1189,LR
-0.1181641,-0.2189941,1.093506,0.2961069,-0.05777865,-0.0002061129,-10.94263,5.85494,-12.51247,-11.26083,6.048261,-12.81999,0.0,0.1413574,-0.4504395,-0.2283282,-0.2455115,0.1674199,17.97835,-0.5436301,-162.0135,17.42296,-0.0,-162.577,LR
-0.109375,-0.2145996,1.091797,0.1739695,0.2475649,0.04559542,-10.94237,5.854004,-12.51032,-11.06608,5.614028,-12.44093,0.002441406,0.144043,-0.4519043,-0.1061909,-0.5661222,-0.07685494,17.97091,-0.546423,-162.0207,17.67926,-0.2949175,-162.3181,LR
-0.1149902,-0.2033691,1.095947,0.2655725,0.4460382,-0.03074045,-10.92901,5.860842,-12.50122,-10.45638,5.889913,-12.03384,0.003173828,0.1501465,-0.456543,-0.06038928,0.09036642,-0.07685494,17.97469,-0.5417336,-162.0172,18.20444,-0.3783701,-161.7914,LR
-0.1164551,-0.2097168,1.0979,-0.009236574,0.339168,0.06086259,-10.92567,5.867571,-12.4968,-10.75524,5.948015,-12.32491,0.004638672,0.1442871,-0.4538574,0.2907557,0.2125039,0.06054974,17.97218,-0.5389362,-162.0231,17.63527,-0.5580535,-162.3553,LR
-0.1142578,-0.2158203,1.101074,0.08236647,0.4765725,0.07612977,-10.92658,5.873516,-12.49584,-11.03211,5.814483,-12.50481,-0.0002441406,0.1474609,-0.4528809,0.2449541,-0.01650381,-0.04632068,17.97705,-0.5278127,-162.0226,18.03558,0.02936955,-161.9644,LR
-0.1091309,-0.2119141,1.0979,-0.009236574,0.2322977,0.1066641,-10.92564,5.870946,-12.48934,-10.87245,5.574309,-12.2493,0.01464844,0.1481934,-0.4501953,0.1838853,0.1361679,-0.0310533,17.98462,-0.5505264,-162.0166,18.21129,-1.770251,-161.6968,LR
-0.1105957,-0.2155762,1.096191,0.2503054,0.1101603,-0.06127481,-10.92462,5.868325,-12.48978,-11.07096,5.653559,-12.46364,0.001708984,0.1557617,-0.4562988,0.1686182,-0.031771,0.04528236,18.00419,-0.5440135,-161.9987,18.84768,-0.2030837,-161.1511,LR
-0.1101074,-0.2182617,1.100098,0.1434351,0.04909158,0.03032825,-10.92751,5.863773,-12.49014,-11.16749,5.607055,-12.52862,0.0004882813,0.1425781,-0.4609375,0.3518243,-0.031771,-0.260061,17.99614,-0.5350401,-162.021,17.18798,-0.05798406,-162.8119,LR
-0.1113281,-0.2116699,1.092041,0.219771,-0.3020534,0.2440687,-10.92208,5.853699,-12.48166,-10.9144,5.715262,-12.35297,0.004882813,0.1445313,-0.4553223,0.1380839,-0.2607787,0.2895572,17.99031,-0.5396295,-162.0242,17.60986,-0.5856153,-162.3798,LR
-0.1120605,-0.2109375,1.095215,-0.08557248,0.3086336,0.03032825,-10.92174,5.855607,-12.47767,-10.84636,5.737357,-12.30302,0.001220703,0.1469727,-0.4580078,0.03121376,-0.2455115,-0.0005190372,17.98679,-0.535354,-162.0279,17.79114,-0.145404,-162.2082,LR
-0.1105957,-0.2155762,1.088379,0.05183208,0.4460382,-0.0002061129,-10.92549,5.858899,-12.47913,-11.14766,5.692359,-12.55028,0.0002441406,0.1479492,-0.4528809,0.3060229,0.07509923,-0.2142596,17.99368,-0.5240566,-162.0289,18.09142,-0.02936021,-161.9086,LR
-0.1037598,-0.2126465,1.089355,-0.3145801,0.4613054,0.06086259,-10.93185,5.855769,-12.47368,-10.99692,5.340735,-12.25444,0.002685547,0.1491699,-0.4477539,0.3365571,-0.1691756,-0.1837251,18.00693,-0.5224171,-162.0223,18.42527,-0.326029,-161.5716,LR
-0.1193848,-0.2111816,1.098389,0.02129769,0.4002366,-0.1070763,-10.92934,5.865993,-12.47476,-10.82095,6.092452,-12.45445,-0.001220703,0.1469727,-0.4536133,0.2907557,-0.123374,-0.2295268,18.01011,-0.5108488,-162.0262,17.95249,0.1466794,-162.0469,LR
-0.1147461,-0.2172852,1.08374,-0.1619084,-0.04251146,0.06086259,-10.93865,5.866586,-12.47987,-11.27583,5.926855,-12.77499,0.004638672,0.1474609,-0.4492188,0.4739618,-0.1539084,-0.04632068,18.02032,-0.5141365,-162.0227,18.17208,-0.5621116,-161.8186,LR
-0.1157227,-0.2145996,1.091797,0.128168,-0.2715191,0.2135344,-10.93919,5.864015,-12.4789,-11.05968,5.937577,-12.58837,0.004394531,0.1479492,-0.4577637,0.2449541,0.04456491,0.07581687,18.02171,-0.5136661,-162.0228,17.91006,-0.5233679,-162.0818,LR
-0.1132813,-0.2128906,1.087402,0.1434351,-0.3936565,0.1066641,-10.93868,5.857695,-12.47784,-11.01904,5.83736,-12.50413,0.002441406,0.1477051,-0.451416,0.1380839,-0.123374,0.091084,18.02567,-0.5110964,-162.0185,18.11805,-0.2945072,-161.8794,LR
-0.1181641,-0.2160645,1.091797,0.219771,-0.5615954,0.06086259,-10.93929,5.853493,-12.48161,-11.13072,6.060387,-12.7109,0.003417969,0.1450195,-0.456543,0.07701516,-0.4439847,0.1368854,18.01872,-0.5155774,-162.0236,17.62183,-0.4088159,-162.3731,LR
-0.1186523,-0.2175293,1.098877,0.08236647,-0.4089237,0.1066641,-10.94198,5.851337,-12.48455,-11.13419,6.04626,-12.70706,0.0,0.1464844,-0.454834,-0.04512215,-0.550855,0.3353589,18.01472,-0.5133634,-162.0212,17.85173,-0.0,-162.1483,LR
-0.1147461,-0.2158203,1.096436,0.2655725,-0.1951832,0.1677328,-10.94077,5.848696,-12.48374,-11.07665,5.862777,-12.56743,0.004394531,0.1445313,-0.4509277,-0.2435954,-0.6882596,0.1674199,18.00626,-0.5238479,-162.0227,17.77089,-0.5317171,-162.2206,LR
-0.1171875,-0.2116699,1.0896,0.479313,-0.4089237,0.06086259,-10.93355,5.846247,-12.48356,-10.93206,6.026805,-12.51934,0.002929688,0.1474609,-0.4558105,-0.1672597,-0.8867329,-0.1531909,18.00237,-0.5325445,-162.0257,17.92676,-0.3503802,-162.0696,LR
-0.1186523,-0.2138672,1.107666,0.1434351,0.171229,0.2288015,-10.93026,5.851753,-12.47977,-10.86746,6.004107,-12.45131,0.002929688,0.1445313,-0.4543457,-0.1672597,-0.5661222,0.06054974,17.99279,-0.5372569,-162.0313,17.64597,-0.3520629,-162.3503,LR
-0.1130371,-0.2163086,1.091064,0.2350382,0.339168,0.06086259,-10.93131,5.855758,-12.48147,-11.15554,5.802743,-12.60907,-0.001464844,0.1484375,-0.4577637,-0.2435954,0.05983204,0.2284887,17.98867,-0.5221441,-162.028,17.96606,0.1744058,-162.033,LR
-0.1154785,-0.2155762,1.095703,-0.05503809,0.690313,0.03032825,-10.93491,5.86687,-12.48303,-11.07081,5.903954,-12.58201,0.001464844,0.1455078,-0.4587402,0.32129,0.4720459,-0.01578617,17.98559,-0.5082501,-162.0357,17.59842,-0.174393,-162.4007,LR
-0.1166992,-0.2116699,1.099609,-0.1924427,0.6139771,0.06086259,-10.93577,5.87755,-12.48042,-10.8365,5.949583,-12.39719,0.0009765625,0.1484375,-0.4550781,0.4586947,0.3804427,-0.0310533,17.99393,-0.4948304,-162.0341,18.06526,-0.1168911,-161.9343,LR
-0.1147461,-0.21875,1.093018,0.02129769,0.3697023,0.01506107,-10.94188,5.882979,-12.48528,-11.25704,5.877309,-12.73474,0.003662109,0.1486816,-0.4592285,0.3823588,0.2430381,0.1368854,17.99846,-0.4900548,-162.0325,17.93955,-0.4346807,-162.0548,LR
-0.1193848,-0.2133789,1.093262,-0.2687786,0.171229,-0.1376107,-10.9466,5.890187,-12.48973,-10.98027,6.117505,-12.60665,0.002441406,0.1503906,-0.4465332,0.3976259,-0.3065802,0.1063511,18.0166,-0.4906979,-162.018,18.61306,-0.2968748,-161.3844,LR
-0.1147461,-0.2148438,1.089844,-0.009236574,-0.2562519,0.1524656,-10.94965,5.886569,-12.48966,-11.0921,5.897662,-12.59786,0.006103516,0.1469727,-0.4448242,0.2449541,-0.3065802,0.1063511,18.02527,-0.5000189,-162.0102,18.28227,-0.7464333,-161.7014,LR
-0.1132813,-0.2163086,1.104248,0.02129769,-0.3936565,0.1219313,-10.9509,5.878413,-12.48757,-11.02676,5.748794,-12.46886,0.002929688,0.1442871,-0.4421387,-0.02985501,-0.3676488,-0.0310533,18.02579,-0.5026412,-162.0089,18.07315,-0.3609147,-161.923,LR
-0.1162109,-0.217041,1.097656,0.1587023,-0.4699924,0.1219313,-10.95203,5.872527,-12.48886,-11.12428,5.929537,-12.64172,0.004882813,0.1420898,-0.4560547,0.1228168,-0.123374,-0.0310533,18.01316,-0.5061152,-162.0229,17.30418,-0.5856567,-162.6853,LR
-0.1184082,-0.2189941,1.095459,0.479313,-0.5005267,0.1219313,-10.95077,5.868726,-12.49336,-11.24123,6.050352,-12.80366,-0.0007324219,0.1474609,-0.4523926,-0.07565641,-0.3218473,0.1216183,18.01286,-0.4989602,-162.0196,18.05377,0.08819455,-161.946,LR
-0.112793,-0.2155762,1.089111,0.1892367,-0.347855,0.06086259,-10.95173,5.862257,-12.49445,-11.1382,5.800957,-12.59277,0.004394531,0.1479492,-0.4465332,0.01594663,-0.5966565,-0.2295268,18.01945,-0.5084567,-162.0158,18.33068,-0.5352425,-161.6609,LR
-0.1196289,-0.2177734,1.093506,0.03656495,-0.1035802,0.04559542,-10.95612,5.865969,-12.49992,-11.19808,6.123975,-12.80147,0.002685547,0.1459961,-0.447998,-0.02985501,-0.6577252,-0.3821983,18.01962,-0.5144873,-162.0201,18.04974,-0.3265558,-161.9471,LR
-0.111084,-0.220459,1.102295,0.2961069,-0.179916,0.1219313,-10.95774,5.858876,-12.5006,-11.2544,5.643544,-12.62336,-0.002197266,0.1413574,-0.4541016,-0.3199313,-0.8409313,-0.06158781,18.00034,-0.5112651,-162.0347,17.29067,0.2647069,-162.7072,LR
-0.1052246,-0.2216797,1.093994,0.38771,0.1101603,-0.03074045,-10.96096,5.851022,-12.50389,-11.4037,5.385245,-12.64234,0.003173828,0.1447754,-0.4484863,-0.289397,-0.291313,-0.07685494,17.99388,-0.5130392,-162.0373,17.89012,-0.385856,-162.1054,LR
-0.1115723,-0.2163086,1.088867,0.1434351,0.5071069,-0.06127481,-10.9632,5.856238,-12.50671,-11.17875,5.739095,-12.59987,0.001220703,0.1486816,-0.4560547,-0.02985501,-0.07757253,0.03001523,17.99469,-0.5068349,-162.0349,18.0568,-0.1458078,-161.9426,LR
-0.114502,-0.2062988,1.092773,0.02129769,0.5681756,0.1524656,-10.9563,5.865037,-12.49801,-10.63386,5.878593,-12.18391,0.005126953,0.1540527,-0.4604492,0.3823588,0.1514351,-0.0005190372,18.01037,-0.5065718,-162.0241,18.49765,-0.604984,-161.4917,LR
-0.1081543,-0.2126465,1.086182,-0.009236574,0.5376411,-0.1986794,-10.95779,5.867262,-12.49873,-11.02377,5.581104,-12.38782,-0.01220703,0.145752,-0.451416,0.3823588,-0.001236677,0.03001523,18.01355,-0.4669766,-162.0241,17.88796,1.474098,-162.0473,LR
-0.112793,-0.2111816,1.090332,-0.1008396,0.4002366,0.07612977,-10.95821,5.871783,-12.49533,-10.90485,5.799123,-12.3845,0.002441406,0.151123,-0.4519043,0.4281602,-0.1691756,0.2437558,18.02938,-0.4659952,-162.0101,18.4904,-0.2935572,-161.5071,LR
-0.112793,-0.2160645,1.091797,-0.2077099,0.2170305,0.1371985,-10.96483,5.873274,-12.49509,-11.13631,5.786828,-12.58441,0.004882813,0.1503906,-0.4470215,0.2144198,-0.3065802,0.1674199,18.04381,-0.473045,-161.9954,18.59336,-0.5931511,-161.3965,LR
-0.1157227,-0.2119141,1.101807,0.08236647,-0.2257175,0.1371985,-10.9609,5.870263,-12.49038,-10.8288,5.88864,-12.36054,0.0009765625,0.1450195,-0.4504395,0.07701516,-0.1691756,0.07581687,18.04099,-0.4684358,-161.9975,17.84599,-0.1182414,-162.1536,LR
-0.1118164,-0.2158203,1.100098,0.2655725,-0.347855,0.1524656,-10.95865,5.861662,-12.48752,-11.04399,5.695899,-12.45932,0.001464844,0.1496582,-0.4462891,0.0922823,-0.291313,-0.01578617,18.05229,-0.4669155,-161.987,18.53823,-0.1783017,-161.4608,LR
-0.1115723,-0.2155762,1.095703,0.2961069,-0.2104504,0.1371985,-10.95662,5.855447,-12.48558,-11.07476,5.705584,-12.49132,0.008544922,0.1467285,-0.4467773,0.1533511,-0.2149771,0.03001523,18.05705,-0.4815573,-161.9826,18.17786,-1.040998,-161.7903,LR
-0.1118164,-0.2133789,1.092529,0.1892367,-0.2409847,0.2135344,-10.95461,5.849516,-12.48142,-10.99514,5.736035,-12.43467,0.009765625,0.1462402,-0.4550781,-0.06038928,-0.1386412,0.0,18.05125,-0.4973722,-161.9859,17.81107,-1.170404,-162.1479,LR
-0.1159668,-0.2165527,1.100586,0.2045038,-0.3631221,0.03032825,-10.95395,5.84524,-12.48299,-11.07163,5.902607,-12.58209,0.001708984,0.1472168,-0.4519043,0.01594663,-0.2760458,0.07581687,18.05133,-0.4956031,-161.9841,18.04393,-0.2060203,-161.9548,LR
-0.1081543,-0.2211914,1.08667,0.3571756,-0.2867863,0.2898702,-10.95862,5.835526,-12.4844,-11.4503,5.570342,-12.7665,0.002685547,0.1445313,-0.4367676,-0.1519923,-0.3523817,0.1521528,18.05427,-0.4975601,-161.976,18.30963,-0.3344537,-161.6871,LR
-0.1147461,-0.2189941,1.097412,0.03656495,-0.2715191,0.09139694,-10.96343,5.831916,-12.48729,-11.22579,5.854584,-12.69615,0.003662109,0.1464844,-0.4509277,-0.1367252,-0.4592519,-0.04632068,18.05109,-0.5032108,-161.9771,17.99589,-0.4425409,-161.9983,LR
-0.123291,-0.2180176,1.097168,0.06709921,-0.1646488,0.06086259,-10.96658,5.83865,-12.49383,-11.17029,6.28959,-12.85927,0.001220703,0.1499023,-0.4528809,-0.1214581,-0.6577252,0.091084,18.05457,-0.5057474,-161.9699,18.31434,-0.146613,-161.685,LR
-0.1101074,-0.2138672,1.079834,0.0976336,0.1864962,0.2288015,-10.96874,5.838858,-12.49176,-11.14643,5.711959,-12.55832,0.005371094,0.1469727,-0.4599609,-0.06038928,-0.3676488,-0.04632068,18.04698,-0.5137826,-161.9765,17.71926,-0.637288,-162.2685,LR
-0.1123047,-0.2155762,1.07959,-0.009236574,0.2780993,0.1219313,-10.97417,5.842662,-12.49391,-11.23343,5.824676,-12.68883,0.0007324219,0.1472168,-0.4645996,0.1380839,0.01403052,-0.09212208,18.03984,-0.5050091,-161.9868,17.58173,-0.086105,-162.418,LR
-0.1157227,-0.2148438,1.086914,0.08236647,0.4765725,0.1371985,-10.9758,5.852537,-12.49496,-11.11991,5.962814,-12.6539,-0.001953125,0.1484375,-0.46875,0.1991527,0.02929771,-0.04632068,18.03339,-0.4899264,-161.9963,17.57112,0.2275925,-162.4273,LR
-0.1123047,-0.2133789,1.091553,0.00603056,0.339168,-0.04600763,-10.97627,5.855789,-12.49487,-11.00415,5.765846,-12.45681,0.002197266,0.1508789,-0.4545898,0.1991527,0.04456491,0.03001523,18.04286,-0.4847296,-161.9887,18.36087,-0.2628391,-161.6371,LR
-0.1132813,-0.2141113,1.096924,-0.02450383,0.339168,0.1677328,-10.97686,5.859412,-12.49156,-10.98783,5.787672,-12.45268,0.001708984,0.145752,-0.4536133,0.4586947,-0.1844428,0.091084,18.045,-0.4818565,-161.9913,17.81278,-0.2055122,-162.186,LR
-0.1171875,-0.2099609,1.09668,-0.009236574,0.1864962,-0.1376107,-10.97303,5.864791,-12.49109,-10.7783,5.991289,-12.3666,0.002197266,0.1435547,-0.4499512,0.2449541,-0.2455115,0.2132213,18.0416,-0.4811595,-161.9944,17.69483,-0.2665553,-162.303,LR
-0.1101074,-0.2077637,1.092285,0.06709921,-0.2715191,0.2440687,-10.96691,5.856615,-12.48065,-10.71654,5.655512,-12.1487,0.0007324219,0.1477051,-0.4465332,0.1075497,0.01403052,0.4116948,18.04841,-0.4731145,-161.9824,18.30325,-0.08922416,-161.6965,LR
-0.112793,-0.2094727,1.10376,0.00603056,-0.1188473,-0.06127481,-10.96132,5.852398,-12.47521,-10.69147,5.733158,-12.16372,-0.0002441406,0.1469727,-0.4411621,0.01594663,-0.4287176,0.0,18.0562,-0.4697729,-161.9742,18.42543,0.0300822,-161.5745,LR
-0.1125488,-0.2143555,1.09375,-0.131374,-0.1035802,0.2288015,-10.96478,5.849051,-12.47175,-11.0316,5.766225,-12.48142,0.005859375,0.145752,-0.4475098,-0.01458788,-0.5661222,0.182687,18.05565,-0.4824101,-161.9712,18.03876,-0.7132736,-161.9462,LR
-0.112793,-0.2148438,1.087891,-0.009236574,-0.439458,0.2288015,-10.96788,5.842198,-12.47065,-11.11331,5.807916,-12.5739,0.004150391,0.1496582,-0.4433594,-0.04512215,-0.5813893,0.1979542,18.06687,-0.4920416,-161.9555,18.65161,-0.5081744,-161.3409,LR
-0.1125488,-0.2141113,1.091553,0.3571756,-0.5157939,0.1371985,-10.96374,5.832818,-12.46899,-11.04075,5.777569,-12.49494,0.003173828,0.1418457,-0.4494629,-0.02985501,-0.4897862,-0.2295268,18.05538,-0.4971171,-161.9693,17.51473,-0.3858237,-162.4807,LR
-0.105957,-0.2080078,1.088379,0.1587023,-0.4852595,0.0,-10.95753,5.818271,-12.46172,-10.77001,5.462152,-12.10562,0.002197266,0.1445313,-0.4580078,0.01594663,-0.6729923,0.04528236,18.04477,-0.5016508,-161.979,17.51368,-0.2621293,-162.4842,LR
-0.112793,-0.2114258,1.089111,0.4945802,-0.1341145,-0.0002061129,-10.95017,5.816167,-12.46066,-10.92897,5.805103,-12.40876,0.001220703,0.1462402,-0.4482422,-0.06038928,-0.5050534,-0.168458,18.0443,-0.5025038,-161.9807,18.06899,-0.1483388,-161.9303,LR
-0.1154785,-0.2102051,1.094482,0.2655725,0.06435877,0.1066641,-10.94327,5.819166,-12.45698,-10.81319,5.915648,-12.35998,0.001953125,0.1469727,-0.4577637,-0.2283282,-0.2760458,-0.01578617,18.03628,-0.5008963,-161.9853,17.79994,-0.232758,-162.1984,LR
-0.1147461,-0.2192383,1.081055,0.08236647,0.171229,0.1524656,-10.95131,5.823909,-12.4636,-11.40177,5.938839,-12.89278,0.007080078,0.1433105,-0.4543457,-0.1672597,-0.031771,-0.1837251,18.02171,-0.5086541,-161.9994,17.50442,-0.8514251,-162.4735,LR
-0.1123047,-0.2158203,1.091309,0.1587023,0.262832,0.1066641,-10.95114,5.828906,-12.46318,-11.12933,5.764654,-12.56775,0.005615234,0.1477051,-0.4575195,0.0006792545,-0.09283972,-0.1531909,18.0191,-0.5131381,-162.0034,17.89083,-0.6691637,-162.0958,LR
-0.1083984,-0.2160645,1.095459,0.2808397,-0.4241909,0.09139694,-10.95035,5.817408,-12.46153,-11.10472,5.545023,-12.44385,0.0078125,0.1484375,-0.458252,0.01594663,-0.3218473,-0.0310533,18.01787,-0.5261903,-162.0044,17.94579,-0.9291886,-162.0285,LR
-0.1142578,-0.2150879,1.093506,0.4029771,-0.1646488,0.2898702,-10.9468,5.815713,-12.45917,-11.06902,5.853693,-12.55631,0.003662109,0.1503906,-0.4494629,-0.1367252,-0.3981832,-0.01578617,18.0255,-0.5303738,-161.9944,18.49971,-0.4426978,-161.4946,LR
-0.1105957,-0.2189941,1.104248,0.1434351,0.03382444,-0.03074045,-10.94902,5.812112,-12.46096,-11.1629,5.610816,-12.52622,0.006103516,0.1447754,-0.4492188,-0.2283282,-0.6119237,-0.09212208,18.01887,-0.5435796,-161.9983,17.86168,-0.7409048,-162.1219,LR
-0.1166992,-0.21875,1.108398,0.2655725,0.01855725,-0.0002061129,-10.94822,5.814091,-12.46392,-11.1044,5.897391,-12.60864,0.0007324219,0.1425781,-0.4406738,-0.2130611,-0.6271908,-0.1073892,18.01372,-0.5443545,-162.0015,17.92874,-0.09060407,-162.071,LR
-0.1142578,-0.213623,1.087158,0.08236647,-0.1951832,0.04559542,-10.94911,5.812506,-12.46517,-11.05741,5.887852,-12.56239,-0.002685547,0.1455078,-0.442627,-0.1367252,-0.382916,-0.0005190372,18.01552,-0.5321162,-161.9975,18.19729,0.3302399,-161.7995,LR
-0.111084,-0.2158203,1.087891,0.1587023,0.04909158,0.04559542,-10.95124,5.811319,-12.4668,-11.16431,5.719534,-12.57783,0.003417969,0.1262207,-0.4562988,-0.1825268,-0.1844428,0.1521528,17.96158,-0.5326387,-162.0457,15.46201,-0.4136406,-164.5322,LR
-0.1174316,-0.2116699,1.083252,0.2045038,0.4460382,0.1066641,-10.94888,5.823549,-12.46772,-10.99359,6.073106,-12.59633,0.001220703,0.1462402,-0.453125,-0.1825268,-0.01650381,-0.0310533,17.95758,-0.5251503,-162.0475,17.88675,-0.1468919,-162.1126,LR
-0.1196289,-0.21875,1.097656,0.1129008,0.3544351,0.2440687,-10.95248,5.833957,-12.47096,-11.20605,6.100836,-12.79717,0.002441406,0.145752,-0.4614258,0.1228168,-0.01650381,-0.07685494,17.95083,-0.5206713,-162.0571,17.52969,-0.2890714,-162.4678,LR
-0.1154785,-0.2160645,1.093994,0.02129769,0.4002366,0.1677328,-10.95535,5.841407,-12.47153,-11.11198,5.912273,-12.62251,0.001953125,0.1501465,-0.4545898,0.3060229,0.1056336,-0.01578617,17.96187,-0.51338,-162.0506,18.27771,-0.2337474,-161.7207,LR
-0.1142578,-0.2189941,1.093506,-0.009236574,0.09489316,0.1524656,-10.96168,5.842968,-12.47443,-11.26495,5.849729,-12.72874,-0.001464844,0.1452637,-0.4570313,0.1838853,-0.3218473,-0.1073892,17.95798,-0.5043434,-162.0585,17.63235,0.1750122,-162.3667,LR
-0.1218262,-0.2202148,1.095459,0.128168,-0.1035802,0.1524656,-10.96653,5.849033,-12.48147,-11.29855,6.222323,-12.93842,0.001464844,0.1452637,-0.4489746,0.1380839,-0.2455115,-0.09212208,17.95942,-0.5014227,-162.0601,17.92866,-0.1778575,-162.0704,LR
-0.1162109,-0.215332,1.093994,0.08236647,-0.179916,0.2746031,-10.96748,5.848412,-12.47995,-11.07449,5.950253,-12.60761,0.002441406,0.1418457,-0.4487305,0.2754886,-0.4134504,0.1521528,17.95512,-0.5034165,-162.0657,17.54173,-0.2972297,-162.4556,LR
-0.1008301,-0.2172852,1.089111,0.3724428,-0.439458,0.3051374,-10.96738,5.828738,-12.47395,-11.23594,5.187712,-12.4042,0.004150391,0.1474609,-0.4577637,0.1380839,-0.3218473,-0.06158781,17.95514,-0.5079683,-162.0681,17.85479,-0.4944475,-162.1379,LR
-0.1088867,-0.2185059,1.095703,0.08236647,-0.2409847,-0.1223435,-10.9713,5.819947,-12.47749,-11.22414,5.566304,-12.56089,0.007080078,0.1484375,-0.442627,-0.04512215,-0.3676488,-0.06158781,17.96611,-0.5205905,-162.0565,18.53696,-0.8688537,-161.4412,LR
-0.114502,-0.2155762,1.101074,0.4029771,-0.2867863,0.1219313,-10.96634,5.815874,-12.47614,-11.01969,5.827064,-12.49978,0.001708984,0.1491699,-0.4462891,-0.3199313,-0.550855,-0.07685494,17.97173,-0.522438,-162.0468,18.48182,-0.208087,-161.5169,LR
-0.1123047,-0.217041,1.091064,0.2655725,-0.08831299,0.07612977,-10.96698,5.813551,-12.47799,-11.19311,5.764664,-12.62466,0.007080078,0.1459961,-0.4499512,-0.3199313,-0.7035267,0.1521528,17.96708,-0.5394807,-162.0437,17.97466,-0.8574847,-162.0035,LR
-0.1115723,-0.2155762,1.089355,0.02129769,-0.01197708,0.1677328,-10.97006,5.811851,-12.47721,-11.13703,5.737368,-12.5618,0.0007324219,0.144043,-0.4616699,-0.07565641,-0.4897862,-0.1531909,17.95319,-0.5376264,-162.0585,17.32812,-0.08677211,-162.6716,LR
-0.1152344,-0.2150879,1.0896,0.219771,0.2017633,-0.06127481,-10.96956,5.817052,-12.48102,-11.10628,5.923599,-12.62291,0.0,0.1464844,-0.456543,-0.01458788,-0.06230533,-0.1379237,17.94969,-0.5277898,-162.0636,17.78913,-0.0,-162.2109,LR
-0.125,-0.21875,1.095947,0.2808397,0.3239008,0.03032825,-10.97038,5.833113,-12.48989,-11.21698,6.382024,-12.94669,0.0009765625,0.144043,-0.4528809,0.06174803,-0.031771,-0.1379237,17.94448,-0.5200557,-162.0715,17.64371,-0.1177369,-162.3559,LR
-0.1171875,-0.2167969,1.088379,0.03656495,0.4613054,0.07612977,-10.97448,5.84379,-12.49414,-11.20234,6.027927,-12.75838,-0.0007324219,0.1506348,-0.453125,-0.04512215,0.09036642,-0.1531909,17.9527,-0.5065685,-162.0645,18.38861,0.08788277,-161.6112,LR
-0.114502,-0.2145996,1.094727,-0.08557248,0.5223741,0.04559542,-10.97689,5.8518,-12.49413,-11.03238,5.860349,-12.52698,0.002685547,0.1523438,-0.4624023,0.2144198,-0.06230533,-0.01578617,17.9617,-0.5037351,-162.0587,18.23477,-0.3160489,-161.7623,LR
-0.1147461,-0.2126465,1.097168,0.128168,0.2017633,-0.03074045,-10.97356,5.855172,-12.49313,-10.91066,5.862203,-12.42004,0.002685547,0.1538086,-0.4526367,0.2754886,-0.07757253,0.1216183,17.98161,-0.501162,-162.0405,18.76775,-0.321864,-161.2293,LR
-0.1140137,-0.2148438,1.078857,-0.07030535,-0.08831299,-0.03074045,-10.97909,5.855202,-12.49778,-11.20176,5.917286,-12.7046,0.001464844,0.1455078,-0.456543,0.3823588,-0.06230533,-0.1989923,17.98153,-0.4956188,-162.0492,17.67786,-0.1751551,-162.3212,LR
-0.1096191,-0.2194824,1.090088,0.1739695,-0.1188473,0.1219313,-10.98334,5.848837,-12.49958,-11.3283,5.630116,-12.68361,0.003417969,0.1547852,-0.4523926,0.3060229,-0.07757253,0.1521528,18.00385,-0.4949622,-162.0283,18.88777,-0.4095704,-161.1074,LR
-0.1142578,-0.2167969,1.095459,0.1892367,-0.05777865,-0.01547329,-10.98379,5.847908,-12.502,-11.13559,5.841995,-12.60989,-0.005859375,0.1442871,-0.4567871,0.07701516,-0.123374,0.06054974,17.99555,-0.4729816,-162.0359,17.52861,0.7007873,-162.4565,LR
-0.1125488,-0.217041,1.102539,0.1434351,-0.2409847,-0.03074045,-10.98348,5.841563,-12.5025,-11.08045,5.719626,-12.50299,0.01513672,0.1455078,-0.4538574,0.1380839,0.02929771,0.03001523,17.993,-0.4994722,-162.0374,17.76672,-1.819044,-162.1342,LR
-0.1135254,-0.2197266,1.100342,0.1739695,-0.3325878,0.0,-10.98595,5.835389,-12.50581,-11.23471,5.77726,-12.66771,0.002685547,0.1462402,-0.4489746,-0.06038928,-0.5966565,0.04528236,17.99308,-0.5047709,-162.0351,18.04119,-0.3258614,-161.9557,LR
-0.09667969,-0.21875,1.098633,0.2350382,-0.4547252,0.1982672,-10.98715,5.810651,-12.4984,-11.2187,4.932736,-12.28115,0.006347656,0.1503906,-0.4538574,0.07701516,-0.6882596,-0.01578617,18.00098,-0.5200053,-162.0277,18.33151,-0.7606216,-161.6516,LR
-0.1118164,-0.213623,1.094727,0.1587023,-0.5005267,0.2440687,-10.98479,5.801576,-12.49327,-10.98608,5.724779,-12.42129,0.002685547,0.1447754,-0.4475098,-0.2283282,-0.5661222,0.04528236,17.99614,-0.5244699,-162.0278,17.92679,-0.32714,-162.07,LR
-0.1174316,-0.2131348,1.081055,0.219771,-0.3325878,0.01506107,-10.98365,5.802323,-12.4969,-11.08948,6.083357,-12.6858,0.006591797,0.1442871,-0.4528809,-0.2130611,-0.550855,-0.1073892,17.98648,-0.5379692,-162.0351,17.67004,-0.7945502,-162.3109,LR
-0.1174316,-0.2143555,1.093262,0.1892367,-0.02724427,0.03032825,-10.98183,5.806219,-12.49855,-11.03135,6.017159,-12.60207,0.008056641,0.1447754,-0.4560547,-0.289397,-0.5661222,0.07581687,17.97469,-0.5548247,-162.0405,17.60956,-0.9646488,-162.3623,LR
-0.1105957,-0.2172852,1.09668,0.03656495,-0.1341145,0.07612977,-10.98469,5.801113,-12.49815,-11.15174,5.64949,-12.53405,0.002929688,0.1489258,-0.4570313,-0.197794,-0.4592519,-0.01578617,17.97325,-0.5574633,-162.0389,18.0481,-0.3492042,-161.9483,LR
-0.1147461,-0.2167969,1.095215,0.1892367,0.2322977,0.1066641,-10.98496,5.805866,-12.49909,-11.13748,5.868037,-12.62397,0.001708984,0.1442871,-0.4448242,-0.1519923,-0.3065802,0.07581687,17.97098,-0.5550084,-162.0376,17.97132,-0.2093857,-162.0274,LR
-0.1108398,-0.2143555,1.094727,-0.05503809,0.5529084,-0.1070763,-10.98655,5.811365,-12.49931,-11.02379,5.674398,-12.43122,-0.001220703,0.1479492,-0.4621582,0.1075497,0.1056336,-0.168458,17.96817,-0.5394728,-162.0443,17.7512,0.1441304,-162.2482,LR
-0.1184082,-0.2141113,1.092529,0.05183208,0.5223741,-0.01547329,-10.98656,5.824235,-12.50201,-11.0252,6.070968,-12.62309,0.0004882813,0.1452637,-0.4580078,0.1686182,0.02929771,0.182687,17.96322,-0.5294172,-162.0487,17.59715,-0.05822456,-162.4027,LR
-0.1240234,-0.2094727,1.09375,-0.07030535,0.4002366,0.1219313,-10.98335,5.840729,-12.50114,-10.77446,6.354775,-12.54775,0.001220703,0.152832,-0.4594727,0.3060229,-0.0470382,-0.07685494,17.97643,-0.5224092,-162.0409,18.39835,-0.1444394,-161.601,LR
-0.1184082,-0.2207031,1.09375,0.06709921,0.3544351,0.0,-10.98957,5.850276,-12.50907,-11.34373,6.057558,-12.89792,-0.002441406,0.1467285,-0.4484863,0.3823588,-0.1386412,0.1521528,17.98484,-0.5080703,-162.0355,18.11597,0.2964345,-161.8814,LR
-0.1091309,-0.2163086,1.093018,0.1129008,-0.01197708,0.1371985,-10.99093,5.844973,-12.50683,-11.14022,5.593941,-12.49813,0.00390625,0.1462402,-0.4511719,0.2754886,-0.1081069,0.1063511,17.98837,-0.5089358,-162.0339,17.95865,-0.4718862,-162.0347,LR
-0.1108398,-0.2163086,1.096436,0.08236647,-0.1646488,0.03032825,-10.992,5.838934,-12.50623,-11.10501,5.66404,-12.49897,0.005859375,0.1425781,-0.4501953,0.1533511,-0.2760458,-0.2447939,17.98229,-0.5170325,-162.0451,17.57174,-0.7108778,-162.4129,LR
-0.1154785,-0.2138672,1.095947,0.05183208,-0.3783893,0.07612977,-10.99105,5.834682,-12.50507,-10.98283,5.904421,-12.50432,0.005615234,0.1525879,-0.4455566,-0.1519923,-0.5203207,0.1368854,17.99847,-0.5280026,-162.0238,18.90318,-0.6831018,-161.0835,LR
-0.1203613,-0.2131348,1.098633,0.128168,-0.4547252,0.2593359,-10.98765,5.834076,-12.50236,-10.91527,6.138587,-12.56018,0.003173828,0.1477051,-0.4394531,0.0006792545,-0.3371145,0.1216183,18.01006,-0.5299125,-162.01,18.57762,-0.3922336,-161.4179,LR
-0.1179199,-0.2143555,1.093018,0.1739695,-0.1493817,0.1066641,-10.98618,5.83621,-12.50318,-11.03322,6.043284,-12.61653,0.002685547,0.1459961,-0.4443359,-0.1672597,-0.4134504,0.3048244,18.01118,-0.5319716,-162.0015,18.18873,-0.3289859,-161.8081,LR
-0.1157227,-0.2160645,1.101563,0.1739695,-0.2257175,-0.01547329,-10.98466,5.833884,-12.50423,-11.03808,5.885767,-12.54425,0.009521484,0.1455078,-0.4545898,-0.04512215,-0.7035267,0.04528236,18.0052,-0.55453,-162.0051,17.74549,-1.142798,-162.2153,LR
-0.112793,-0.2119141,1.081543,0.2655725,-0.2409847,0.04559542,-10.98161,5.830533,-12.50377,-11.02758,5.843472,-12.51463,0.0078125,0.1474609,-0.4575195,-0.2435954,-0.6119237,-0.1226563,17.99875,-0.5710569,-162.009,17.86196,-0.9311159,-162.1121,LR
-0.1159668,-0.2185059,1.087402,0.00603056,-0.04251146,0.07612977,-10.98788,5.832676,-12.5089,-11.29946,5.968914,-12.81606,0.0007324219,0.1477051,-0.4560547,0.07701516,-0.3981832,-0.168458,17.9989,-0.5676301,-162.0126,17.94586,-0.0875399,-162.0539,LR
-0.1220703,-0.2163086,1.087158,0.2655725,0.262832,0.09139694,-10.98765,5.845831,-12.51467,-11.18451,6.284387,-12.86912,0.002685547,0.1447754,-0.4560547,-0.197794,-0.3981832,0.091084,17.98825,-0.5685623,-162.0187,17.61185,-0.3215766,-162.385,LR
-0.1140137,-0.2141113,1.099121,0.06709921,0.6597786,-0.06127481,-10.98623,5.854887,-12.51419,-10.96589,5.813694,-12.44563,0.003173828,0.1499023,-0.4587402,0.2449541,-0.031771,0.091084,17.994,-0.5651939,-162.015,18.09541,-0.3767928,-161.9004,LR
-0.09594727,-0.2150879,1.083984,0.1739695,0.5529084,0.09139694,-10.98756,5.845158,-12.50773,-11.18044,4.962026,-12.25817,0.0009765625,0.1503906,-0.4523926,0.1838853,0.01403052,0.04528236,18.00459,-0.5560312,-162.0062,18.38852,-0.1173667,-161.6111,LR
-0.1162109,-0.2072754,1.097168,-0.1008396,0.3697023,0.03032825,-10.98209,5.852527,-12.50154,-10.64,5.941838,-12.22065,-0.0002441406,0.1459961,-0.4511719,0.2907557,-0.031771,0.091084,18.0074,-0.5447876,-162.0061,17.93122,0.02949823,-162.0687,LR
-0.1062012,-0.2141113,1.100342,0.02129769,0.1864962,0.183,-10.98137,5.846458,-12.49391,-10.96167,5.412025,-12.25473,0.0078125,0.152832,-0.4506836,0.3670917,-0.1691756,-0.1379237,18.02724,-0.5551889,-161.993,18.72977,-0.9405136,-161.2448,LR
-0.1186523,-0.2172852,1.099121,0.0976336,-0.1646488,-0.0002061129,-10.9827,5.848014,-12.49791,-11.11963,6.045231,-12.6937,0.006835938,0.1489258,-0.4528809,0.0922823,-0.06230533,0.04528236,18.03207,-0.5614312,-161.988,18.20105,-0.8215054,-161.7791,LR
-0.1152344,-0.2084961,1.091797,-0.009236574,0.1101603,0.03032825,-10.97824,5.851049,-12.49368,-10.75305,5.918834,-12.30859,0.001953125,0.1564941,-0.447998,0.1991527,-0.031771,0.1216183,18.06122,-0.5556662,-161.9603,19.2551,-0.2358159,-160.7433,LR
-0.1123047,-0.217041,1.092285,0.128168,-0.1646488,0.06086259,-10.97928,5.845326,-12.49459,-11.18105,5.758508,-12.61101,0.006591797,0.1472168,-0.4589844,0.3060229,-0.09283972,-0.01578617,18.06013,-0.5615875,-161.9653,17.78165,-0.783498,-162.1999,LR
-0.1149902,-0.2194824,1.094482,0.06709921,-0.3783893,0.0,-10.98429,5.840487,-12.49983,-11.27895,5.881447,-12.75621,0.001464844,0.144043,-0.4477539,0.01594663,-0.3065802,-0.0310533,18.05582,-0.5584312,-161.9698,17.83296,-0.1784385,-162.1661,LR
-0.1135254,-0.2189941,1.089355,0.1892367,0.2322977,0.1371985,-10.98796,5.843764,-12.50299,-11.30707,5.833628,-12.75874,0.004150391,0.1484375,-0.4418945,0.01594663,-0.2149771,0.03001523,18.06627,-0.5606251,-161.9584,18.56703,-0.5101122,-161.4254,LR
-0.1181641,-0.2119141,1.095459,0.06709921,0.262832,0.06086259,-10.98495,5.851658,-12.50181,-10.88687,6.045307,-12.48876,-0.001220703,0.1501465,-0.454834,0.1380839,0.1056336,-0.2142596,18.07235,-0.5449393,-161.957,18.26865,0.1460219,-161.7307,LR
-0.1152344,-0.2165527,1.098633,0.03656495,0.4155039,-0.04600763,-10.98655,5.858244,-12.50418,-11.09136,5.875556,-12.58661,0.002685547,0.1481934,-0.4614258,0.2907557,0.4262443,0.1521528,18.07128,-0.5341245,-161.9595,17.80487,-0.3174918,-162.1921,LR
-0.1140137,-0.2104492,1.085205,-0.05503809,0.4002366,-0.1070763,-10.98595,5.864736,-12.50443,-10.91628,5.888685,-12.43783,0.003417969,0.1530762,-0.4550781,0.3823588,0.2735725,0.259023,18.08729,-0.5275779,-161.9446,18.59108,-0.4078694,-161.4041,LR
-0.1196289,-0.215332,1.099854,-0.1924427,0.1254275,-0.04600763,-10.98934,5.87114,-12.5075,-11.01404,6.09277,-12.62404,0.0002441406,0.1462402,-0.4470215,0.5044961,-0.1081069,-0.1073892,18.09527,-0.5192103,-161.9449,18.11518,-0.02974102,-161.8848,LR
-0.09448242,-0.2128906,1.095459,0.128168,-0.2104504,0.1066641,-10.98683,5.847413,-12.49585,-10.95804,4.839416,-12.0034,0.001708984,0.1484375,-0.4504395,0.03121376,-0.4287176,0.03001523,18.0986,-0.5192574,-161.9408,18.23896,-0.2064599,-161.7598,LR
-0.1220703,-0.2202148,1.098877,0.1434351,-0.5768626,-0.01547329,-10.99027,5.846308,-12.50427,-11.26446,6.216198,-12.90538,0.008789063,0.1467285,-0.4501953,-0.01458788,-0.550855,0.091084,18.09739,-0.5382376,-161.939,18.04871,-1.06339,-161.9178,LR
-0.1174316,-0.2128906,1.097168,0.1434351,-0.7448015,0.2135344,-10.98676,5.838397,-12.50094,-10.92016,5.998166,-12.49475,0.001953125,0.1416016,-0.4482422,-0.1061909,-0.6577252,-0.04632068,18.08451,-0.5419025,-161.9502,17.53139,-0.2380573,-162.4669,LR
-0.1149902,-0.2106934,1.101074,0.3419085,-0.4699924,0.1066641,-10.97751,5.831851,-12.49531,-10.77553,5.85655,-12.29787,-0.0002441406,0.1472168,-0.4494629,-0.2283282,-0.6271908,0.1216183,18.08217,-0.5396927,-161.9467,18.13566,0.02957602,-161.8643,LR
-0.1108398,-0.2172852,1.089844,0.2503054,-0.1188473,0.1982672,-10.97866,5.827383,-12.4948,-11.21898,5.695816,-12.61571,0.0009765625,0.1428223,-0.4645996,-0.197794,-0.6577252,0.1521528,18.05938,-0.5408697,-161.9638,17.08788,-0.1151159,-162.9117,LR
-0.09838867,-0.2172852,1.094482,0.1434351,-0.2562519,-0.0002061129,-10.98068,5.807848,-12.49079,-11.18484,5.038985,-12.29436,0.00390625,0.1455078,-0.4555664,-0.3199313,-0.5661222,-0.07685494,18.04774,-0.5477339,-161.9713,17.71286,-0.46798,-162.2805,LR
-0.1176758,-0.2155762,1.095459,0.1739695,0.1406947,-0.336084,-10.97993,5.814095,-12.49865,-11.07091,6.016757,-12.63679,0.002197266,0.1455078,-0.4550781,-0.2588627,-0.5355878,0.03001523,18.03761,-0.5499224,-161.9767,17.73109,-0.263499,-162.2668,LR
-0.1157227,-0.2167969,1.092041,-0.05503809,0.1406947,-0.03074045,-10.98449,5.818562,-12.50278,-11.16768,5.934054,-12.68237,0.005615234,0.1459961,-0.4533691,0.03121376,-0.5966565,0.1063511,18.03428,-0.5612038,-161.9784,17.84856,-0.6754496,-162.1378,LR
-0.1186523,-0.21875,1.091797,0.219771,0.4460382,-0.0002061129,-10.98687,5.830395,-12.50953,-11.26503,6.082397,-12.84027,-0.002685547,0.1489258,-0.4577637,-0.02985501,-0.1081069,0.2284887,18.03358,-0.545176,-161.9749,18.02114,0.3196414,-161.9758,LR
-0.1142578,-0.2126465,1.091309,0.2350382,0.6597786,-0.07654199,-10.98303,5.840835,-12.50993,-10.9677,5.867418,-12.47305,-0.003173828,0.1494141,-0.4545898,0.1228168,0.01403052,-0.09212208,18.0386,-0.5264659,-161.9728,18.19419,0.380018,-161.8016,LR
-0.1176758,-0.2114258,1.098389,0.00603056,0.4460382,-0.03074045,-10.97998,5.850687,-12.50865,-10.83492,6.005635,-12.42346,0.004882813,0.151123,-0.4489746,0.3060229,0.227771,0.2132213,18.05467,-0.5241759,-161.9578,18.602,-0.5905409,-161.3879,LR
-0.1157227,-0.2131348,1.094971,0.1129008,0.3544351,0.1219313,-10.97772,5.857683,-12.50634,-10.9553,5.922602,-12.4888,0.0002441406,0.1455078,-0.4543457,0.4739618,0.1667023,-0.09212208,18.05524,-0.5119917,-161.9647,17.75807,-0.02932068,-162.2419,LR
-0.1066895,-0.215332,1.0896,0.05183208,0.2170305,0.06086259,-10.97999,5.853245,-12.50413,-11.12715,5.486903,-12.43758,0.003417969,0.1523438,-0.4509277,0.3060229,-0.0470382,0.06054974,18.07197,-0.5106721,-161.9511,18.66679,-0.41144,-161.3283,LR
-0.1171875,-0.213623,1.092285,0.1739695,-0.4241909,0.04559542,-10.97792,5.850157,-12.50488,-11.00431,6.010628,-12.57503,0.0004882813,0.1501465,-0.4553223,0.1991527,-0.291313,-0.1073892,18.07846,-0.5059081,-161.9487,18.25041,-0.05835238,-161.7495,LR
-0.1103516,-0.2175293,1.093506,0.1739695,-0.2409847,0.1066641,-10.97972,5.842661,-12.50471,-11.19546,5.652498,-12.57462,-0.001464844,0.1513672,-0.4543457,0.01594663,-0.4134504,-0.3974657,18.08564,-0.4983625,-161.947,18.42562,0.1752551,-161.5735,LR
-0.1166992,-0.2158203,1.089111,0.06709921,-0.3783893,0.1219313,-10.98207,5.840249,-12.50673,-11.14644,6.00016,-12.69545,-0.0002441406,0.1435547,-0.4501953,0.1380839,-0.382916,0.1063511,18.07968,-0.4934321,-161.9528,17.68602,0.02960289,-162.3139,LR
-0.1174316,-0.2163086,1.103516,0.3571756,-0.5005267,0.1219313,-10.97777,5.83532,-12.50627,-11.02964,5.961709,-12.5735,0.004638672,0.1479492,-0.4416504,-0.09092379,-0.4439847,0.1063511,18.08714,-0.5015019,-161.9416,18.51947,-0.5705952,-161.4711,LR
-0.1157227,-0.215332,1.099365,0.2350382,-0.179916,0.1219313,-10.97521,5.833924,-12.50508,-11.02279,5.89775,-12.53648,0.008056641,0.1386719,-0.4538574,-0.1519923,-0.7493282,0.2284887,18.06291,-0.5219391,-161.959,16.98752,-0.9726013,-162.983,LR
-0.1213379,-0.2177734,1.092773,0.1739695,-0.1951832,0.2288015,-10.97722,5.838671,-12.50864,-11.20345,6.214755,-12.85101,0.001220703,0.1437988,-0.4538574,-0.2741299,-0.5355878,0.1216183,18.04949,-0.5217866,-161.9666,17.58007,-0.1469061,-162.4193,LR
-0.1135254,-0.2150879,1.100098,0.02129769,-0.08831299,0.1524656,-10.9775,5.836348,-12.5057,-11.00574,5.78309,-12.46642,-0.002197266,0.1411133,-0.453125,-0.1061909,-0.1539084,-0.09212208,18.03289,-0.508308,-161.9826,17.29757,0.2652674,-162.7003,LR
-0.1179199,-0.2087402,1.101807,0.2045038,0.430771,0.04559542,-10.9683,5.846009,-12.50044,-10.66818,6.002802,-12.27578,0.002197266,0.1481934,-0.4436035,0.0922823,-0.09283972,0.03001523,18.04305,-0.5048901,-161.973,18.47257,-0.2691737,-161.5253,LR
-0.1149902,-0.2163086,1.090332,0.08236647,0.5834427,-0.1834122,-10.97094,5.855788,-12.50638,-11.16076,5.906092,-12.66283,0.0144043,0.1484375,-0.4487305,0.1838853,-0.01650381,-0.1531909,18.05079,-0.5299469,-161.9681,18.29513,-1.745604,-161.6159,LR
-0.1132813,-0.2165527,1.099609,0.1129008,0.2322977,0.09139694,-10.97154,5.857522,-12.50552,-11.08384,5.771745,-12.53054,0.0004882813,0.1516113,-0.4506836,0.0922823,0.04456491,0.04528236,18.06299,-0.5198696,-161.9562,18.59308,-0.05883566,-161.4068,LR
-0.1157227,-0.2111816,1.097656,-0.05503809,0.262832,-0.0002061129,-10.96955,5.862449,-12.50289,-10.83165,5.910683,-12.37383,0.004394531,0.1433105,-0.4538574,0.07701516,-0.3371145,0.07581687,18.0534,-0.5253384,-161.9653,17.52332,-0.5290117,-162.4682,LR
-0.1108398,-0.2126465,1.09668,-0.1008396,-0.179916,-0.07654199,-10.97013,5.855706,-12.50071,-10.91921,5.666373,-12.33416,0.002197266,0.1464844,-0.4528809,-0.04512215,-0.2455115,0.06054974,18.05014,-0.5237305,-161.9666,17.92361,-0.2644915,-162.0743,LR
-0.1086426,-0.2106934,1.101074,0.128168,-0.1493817,0.03032825,-10.96447,5.847103,-12.49325,-10.78162,5.535325,-12.14998,0.004150391,0.1503906,-0.4458008,-0.02985501,-0.3523817,0.091084,18.06152,-0.5285444,-161.9529,18.64104,-0.505423,-161.3516,LR
-0.1169434,-0.2143555,1.087891,0.2655725,-0.1646488,0.06086259,-10.96297,5.848153,-12.4955,-11.08438,6.020596,-12.65055,0.002685547,0.1447754,-0.4604492,0.04648089,0.01403052,-0.01578617,18.05005,-0.5241429,-161.965,17.45402,-0.3187849,-162.5429,LR
-0.1186523,-0.2138672,1.100342,0.2350382,-0.1035802,0.1066641,-10.959,5.850514,-12.49466,-10.93725,6.042338,-12.53158,0.004394531,0.1425781,-0.4506836,0.1380839,0.05983204,-0.04632068,18.04217,-0.5234334,-161.9751,17.55449,-0.5326453,-162.4369,LR
-0.1166992,-0.2111816,1.098145,-0.03977096,0.003290057,0.1524656,-10.95692,5.852705,-12.49036,-10.82602,5.957667,-12.39194,0.00390625,0.151123,-0.4460449,0.2144198,-0.1081069,-0.09212208,18.05901,-0.5241644,-161.9626,18.71606,-0.4752232,-161.2775,LR
-0.1123047,-0.215332,1.094727,0.08236647,-0.2257175,-0.03074045,-10.95792,5.84707,-12.4912,-11.07132,5.747928,-12.50815,0.0002441406,0.1486816,-0.4453125,0.1075497,-0.5355878,-0.01578617,18.06868,-0.5221501,-161.9543,18.46321,-0.02979528,-161.5368,LR
-0.1147461,-0.2175293,1.091309,0.1587023,-0.2257175,0.1371985,-10.96068,5.844557,-12.49336,-11.21272,5.887352,-12.70007,0.006103516,0.144043,-0.4377441,-0.289397,-0.7035267,-0.0005190372,18.0673,-0.5372252,-161.9506,18.21252,-0.758809,-161.7706,LR
-0.1164551,-0.2167969,1.088623,0.1434351,-0.4699924,0.1371985,-10.96337,5.840542,-12.49624,-11.2007,5.989244,-12.73821,0.002929688,0.1472168,-0.4501953,-0.1519923,-0.7645955,-0.09212208,18.06588,-0.544808,-161.9507,18.10772,-0.3543861,-161.8886,LR
-0.1162109,-0.2145996,1.0896,0.1587023,-0.3325878,0.183,-10.96339,5.838321,-12.49612,-11.08068,5.973941,-12.62457,0.002929688,0.1445313,-0.4609375,0.0,-0.3981832,0.182687,18.05274,-0.5467147,-161.9608,17.40897,-0.3474819,-162.5873,LR
-0.1132813,-0.21875,1.090576,0.219771,-0.08831299,0.0,-10.96655,5.83656,-12.50076,-11.28286,5.815197,-12.72848,-0.0078125,0.1474609,-0.4519043,-0.289397,-0.2302443,0.2132213,18.04882,-0.5203336,-161.9565,18.0695,0.9415766,-161.9043,LR
-0.1154785,-0.2094727,1.094238,0.128168,0.4613054,-0.1070763,-10.9609,5.844963,-12.49894,-10.77872,5.917639,-12.33059,0.005371094,0.1494141,-0.4536133,0.0922823,-0.0470382,0.1368854,18.05371,-0.523459,-161.9507,18.22999,-0.6443388,-161.7578,LR
-0.1115723,-0.215332,1.087402,0.06709921,0.4460382,-0.03074045,-10.96365,5.849133,-12.50083,-11.14401,5.747462,-12.57277,-0.003173828,0.1535645,-0.4641113,0.1991527,-0.1081069,-0.0005190372,18.06192,-0.5072455,-161.9454,18.30787,0.3719785,-161.6881,LR
-0.1140137,-0.213623,1.096191,-0.1619084,0.5223741,-0.03074045,-10.96631,5.856922,-12.50043,-10.96972,5.829043,-12.45638,0.0009765625,0.1459961,-0.4533691,0.2144198,-0.2455115,0.1979542,18.06062,-0.5028185,-161.9468,17.8498,-0.1174748,-162.1498,LR
-0.1135254,-0.2041016,1.094482,0.219771,0.1406947,-0.06127481,-10.95413,5.858157,-12.49217,-10.5082,5.822176,-12.04559,0.001464844,0.1508789,-0.4475098,0.3060229,-0.2302443,0.3048244,18.07654,-0.4997011,-161.9307,18.63156,-0.177718,-161.3675,LR
-0.1169434,-0.2148438,1.089355,-0.1924427,-0.01197708,-0.0002061129,-10.95977,5.861065,-12.49544,-11.0946,6.012351,-12.65555,0.007568359,0.1435547,-0.451416,0.2602212,-0.1539084,0.3048244,18.07161,-0.5102767,-161.9343,17.63884,-0.9153583,-162.3358,LR
-0.1135254,-0.2177734,1.095703,0.03656495,-0.07304579,0.06086259,-10.96369,5.858821,-12.4973,-11.18283,5.802586,-12.63331,0.001953125,0.1484375,-0.4555664,0.1075497,-0.031771,0.1216183,18.0727,-0.5052093,-161.9329,18.04704,-0.2335546,-161.9513,LR
-0.1142578,-0.2111816,1.086914,-0.02450383,0.171229,0.1524656,-10.96351,5.861994,-12.49426,-10.93648,5.891589,-12.4571,-0.01220703,0.1477051,-0.4470215,-0.01458788,-0.07757253,-0.2447939,18.07659,-0.4665399,-161.931,18.27826,1.485273,-161.6572,LR
-0.1159668,-0.2202148,1.094238,-0.009236574,-0.179916,0.06086259,-10.97071,5.86074,-12.49976,-11.31702,5.931542,-12.81386,0.002929688,0.1469727,-0.4440918,0.0922823,-0.2607787,0.091084,18.08274,-0.4684749,-161.9246,18.31164,-0.3588362,-161.6846,LR
-0.1169434,-0.21875,1.096191,0.219771,-0.1188473,0.04559542,-10.97232,5.861112,-12.50405,-11.22333,5.972488,-12.75021,0.008544922,0.1472168,-0.4523926,0.04648089,-0.4745191,-0.0310533,18.08223,-0.4866606,-161.9255,18.02283,-1.02899,-161.9458,LR
-0.1123047,-0.2138672,1.09375,0.2045038,-0.2562519,0.07612977,-10.97001,5.855208,-12.50194,-11.00733,5.754282,-12.45416,0.004394531,0.1489258,-0.4445801,-0.2130611,-0.6729923,0.07581687,18.08783,-0.4975605,-161.9153,18.51902,-0.5370054,-161.4726,LR
-0.121582,-0.2121582,1.105225,0.2350382,-0.439458,0.0,-10.96321,5.854964,-12.50141,-10.80266,6.165988,-12.4755,-0.0007324219,0.1489258,-0.4536133,-0.1519923,-0.5966565,-0.2447939,18.08735,-0.4946222,-161.9171,18.1755,0.0878961,-161.8243,LR
-0.1098633,-0.2109375,1.090332,0.219771,-0.5310611,-0.0002061129,-10.95862,5.843052,-12.49748,-10.89544,5.649718,-12.30513,0.002685547,0.1472168,-0.4465332,-0.07565641,-0.6729923,0.06054974,18.08942,-0.501168,-161.9129,18.24648,-0.3272585,-161.7504,LR
-0.1140137,-0.2189941,1.093506,0.3266413,-0.2867863,-0.09180916,-10.95995,5.838721,-12.50335,-11.2652,5.837315,-12.72312,0.006591797,0.1506348,-0.4592285,-0.1214581,-0.3065802,0.1063511,18.08807,-0.5136831,-161.9087,18.15862,-0.7814121,-161.8234,LR
-0.1086426,-0.2114258,1.099609,0.2808397,0.1864962,0.06086259,-10.95107,5.836985,-12.49587,-10.83216,5.541714,-12.1981,-0.0009765625,0.1411133,-0.4555664,0.1533511,-0.4287176,-0.1531909,18.07277,-0.5073652,-161.9285,17.21051,0.1173209,-162.7891,LR
-0.1149902,-0.2160645,1.101074,0.06709921,-0.2562519,0.03032825,-10.95193,5.833504,-12.49616,-11.04355,5.851254,-12.53253,0.005859375,0.1506348,-0.4567871,0.1075497,-0.2302443,0.1216183,18.07789,-0.5145615,-161.9229,18.24961,-0.6979465,-161.7361,LR
-0.1176758,-0.2109375,1.097412,0.1434351,-0.4089237,0.2440687,-10.94718,5.831048,-12.4909,-10.81978,6.011243,-12.41293,0.004638672,0.1481934,-0.447998,0.1075497,-0.3676488,0.2132213,18.08386,-0.5205788,-161.9153,18.30279,-0.5632196,-161.6879,LR
-0.1096191,-0.2138672,1.090332,0.06709921,-0.2409847,0.06086259,-10.94818,5.823809,-12.48885,-11.04331,5.634421,-12.43001,0.006835938,0.1462402,-0.4484863,0.03121376,-0.4897862,0.1368854,18.0838,-0.5339718,-161.9134,18.0579,-0.8302324,-161.9217,LR
-0.1130371,-0.2199707,1.088623,0.3419085,-0.1951832,0.04559542,-10.95147,5.820693,-12.49439,-11.36406,5.811436,-12.79927,0.004150391,0.1450195,-0.4455566,-0.07565641,-0.7035267,0.091084,18.08158,-0.5437841,-161.9131,18.02827,-0.5074954,-161.9641,LR
-0.1152344,-0.217041,1.097656,0.2045038,-0.1951832,-0.06127481,-10.95194,5.81901,-12.49778,-11.12529,5.880059,-12.61889,0.01000977,0.1428223,-0.4558105,-0.1825268,-0.6577252,-0.0310533,18.06514,-0.5665869,-161.9265,17.39376,-1.200499,-162.5622,LR
-0.1169434,-0.2143555,1.094238,0.4335115,-0.05777865,-0.01547329,-10.94698,5.821525,-12.49964,-11.02237,5.987209,-12.5795,0.004882813,0.145752,-0.4533691,-0.289397,-0.5813893,-0.1073892,18.056,-0.5755505,-161.9329,17.82092,-0.5874463,-162.1687,LR
-0.1123047,-0.204834,1.085938,-0.07030535,0.430771,-0.03074045,-10.9416,5.827483,-12.49291,-10.62649,5.802774,-12.14014,-0.001220703,0.1428223,-0.4562988,0.1991527,-0.3218473,0.06054974,18.04541,-0.565845,-161.9458,17.38014,0.1462807,-162.6192,LR
-0.1103516,-0.2145996,1.097412,0.2350382,0.4155039,0.04559542,-10.93952,5.829763,-12.49041,-11.01044,5.636098,-12.4014,0.001220703,0.1491699,-0.4555664,0.2449541,0.09036642,0.0147481,18.05071,-0.5561178,-161.944,18.13037,-0.1459029,-161.869,LR
-0.1142578,-0.2158203,1.103516,-0.05503809,0.5223741,0.1219313,-10.94171,5.83689,-12.48837,-11.00855,5.802177,-12.47801,0.0004882813,0.1474609,-0.454834,0.2754886,-0.001236677,-0.0310533,18.05301,-0.5461839,-161.9464,17.96311,-0.05851089,-162.0368,LR
-0.1098633,-0.2180176,1.095947,0.1434351,0.4460382,-0.1070763,-10.9447,5.839013,-12.49134,-11.19632,5.61519,-12.55823,0.006347656,0.145752,-0.4521484,0.3823588,0.3346412,-0.1837251,18.05488,-0.5456516,-161.9525,17.8653,-0.7655293,-162.1172,LR
-0.1186523,-0.2070313,1.09668,-0.03977096,0.339168,-0.01547329,-10.93899,5.84859,-12.48725,-10.62988,6.068577,-12.2754,0.003662109,0.1472168,-0.4575195,0.2907557,0.02929771,0.0147481,18.05478,-0.5430391,-161.9564,17.83617,-0.4365585,-162.1581,LR
-0.1191406,-0.2180176,1.101563,-0.03977096,-0.05777865,0.04559542,-10.94343,5.851895,-12.49103,-11.13183,6.05631,-12.70988,0.002685547,0.1459961,-0.4562988,0.4281602,-0.1844428,-0.0005190372,18.05524,-0.5414938,-161.9624,17.74216,-0.3211717,-162.2547,LR
-0.1079102,-0.2133789,1.096436,-0.05503809,-0.1035802,-0.0002061129,-10.94464,5.843593,-12.48726,-10.96109,5.518029,-12.30258,0.002685547,0.1477051,-0.4589844,0.2144198,-0.06230533,0.04528236,18.05405,-0.5379622,-161.9656,17.83833,-0.3191206,-162.1586,LR
-0.1159668,-0.2175293,1.084961,0.4182443,-0.2715191,-0.2139466,-10.9451,5.842385,-12.49667,-11.27464,5.982762,-12.80066,0.0002441406,0.1433105,-0.454834,0.1228168,-0.291313,0.04528236,18.04455,-0.532072,-161.9759,17.48876,-0.02933297,-162.5112,LR
-0.1147461,-0.215332,1.100098,0.02129769,-0.1493817,0.2440687,-10.94622,5.840234,-12.49326,-11.0167,5.844602,-12.50552,0.0002441406,0.1474609,-0.4445801,0.1075497,-0.4134504,0.1216183,18.05224,-0.5281055,-161.9676,18.34995,-0.02986401,-161.65,LR
-0.1135254,-0.2185059,1.096191,0.1739695,-0.5463283,0.0,-10.98382,5.853312,-12.51626,-11.21467,5.79938,-12.6602,0.003662109,0.1462402,-0.456543,-0.01458788,-0.4439847,0.1521528,18.05622,-0.5279268,-161.9834,17.76081,-0.437677,-162.2334,LB
-0.1218262,-0.2167969,1.098145,0.3419085,-0.7906031,0.3509389,-10.98114,5.848853,-12.51597,-11.10139,6.21148,-12.75977,0.004150391,0.1455078,-0.4501953,-0.1061909,-0.7187939,0.03001523,18.05175,-0.5379866,-161.9849,17.91066,-0.5026011,-162.0818,LB
-0.1118164,-0.2160645,1.094482,0.2503054,-0.4241909,-0.01547329,-10.98006,5.840112,-12.51652,-11.11092,5.723603,-12.53205,0.0002441406,0.1469727,-0.4553223,-0.381,-0.5813893,-0.04632068,18.04291,-0.536358,-161.9881,17.88946,-0.02923623,-162.1105,LB
-0.1152344,-0.2172852,1.088623,0.3419085,-0.3173206,-0.06127481,-10.97996,5.837173,-12.52171,-11.22658,5.926407,-12.731,0.005615234,0.1474609,-0.4482422,0.0,-0.3981832,-0.09212208,18.04622,-0.5451197,-161.9852,18.20863,-0.6817784,-161.7777,LB
-0.09912109,-0.217041,1.09375,0.0976336,0.09489316,0.03032825,-10.98251,5.823421,-12.51696,-11.17917,5.07977,-12.30639,0.00390625,0.1430664,-0.4648438,-0.1672597,-0.1997099,0.0147481,18.02497,-0.5463564,-162.003,17.10639,-0.4601655,-162.887,LB
-0.1225586,-0.2219238,1.10083,0.06709921,0.4002366,-0.01547329,-10.98847,5.837404,-12.52622,-11.3297,6.228452,-12.96887,-0.001953125,0.1442871,-0.4592285,-0.1214581,-0.01650381,-0.1073892,18.01141,-0.5310385,-162.0158,17.44229,0.2324761,-162.5561,LB
-0.111084,-0.2155762,1.095947,0.1434351,0.4155039,-0.1834122,-10.98791,5.840763,-12.52812,-11.07286,5.679567,-12.47746,0.01342773,0.1474609,-0.4516602,0.1075497,0.04456491,0.2284887,18.01413,-0.5521832,-162.0093,18.07369,-1.61884,-161.8489,LB
-0.1108398,-0.2126465,1.092285,0.1434351,0.4460382,0.0,-10.98541,5.843831,-12.52521,-10.96165,5.688197,-12.38226,0.005371094,0.1516113,-0.4494629,0.2907557,-0.09283972,-0.09212208,18.0309,-0.5554791,-161.9975,18.63887,-0.6487431,-161.349,LB
-0.1159668,-0.2155762,1.095947,-0.1466411,0.4918396,-0.1528779,-10.98922,5.852734,-12.52877,-11.06793,5.927478,-12.5908,0.001220703,0.1467285,-0.4597168,0.3823588,0.1514351,0.0147481,18.02993,-0.5450421,-162.0033,17.70155,-0.144936,-162.2978,LB
-0.1169434,-0.215332,1.09668,0.00603056,0.171229,0.01506107,-10.9903,5.857666,-12.52987,-11.04757,5.973468,-12.59508,0.003662109,0.1513672,-0.4560547,0.1686182,-0.09283972,-0.1226563,18.03902,-0.5442391,-161.9977,18.36075,-0.436652,-161.6337,LB
-0.1152344,-0.2099609,1.098145,0.00603056,-0.04251146,0.183,-10.98573,5.85758,-12.52265,-10.76637,5.884614,-12.30352,0.004394531,0.1503906,-0.4570313,0.2144198,-0.1386412,-0.07685494,18.04567,-0.5458584,-161.9944,18.21351,-0.523302,-161.7784,LB
-0.1147461,-0.2087402,1.091797,0.05183208,-0.1646488,0.1524656,-10.98057,5.855882,-12.51611,-10.76584,5.89369,-12.30749,-0.002441406,0.1467285,-0.4492188,0.2144198,-0.382916,0.04528236,18.04988,-0.5350254,-161.992,18.08836,0.2959978,-161.909,LB
-0.121582,-0.2106934,1.095703,0.1587023,-0.2409847,0.2288015,-10.97486,5.859361,-12.51254,-10.81976,6.218773,-12.51721,0.007324219,0.1467285,-0.4475098,0.03121376,-0.06230533,-0.1226563,18.05233,-0.5429996,-161.9904,18.1509,-0.890992,-161.8257,LB
-0.1166992,-0.21875,1.088867,0.2808397,-0.5615954,0.01506107,-10.97744,5.854436,-12.51863,-11.29632,5.99837,-12.82739,0.005126953,0.1445313,-0.4558105,-0.02985501,-0.1844428,0.1216183,18.04269,-0.5471368,-161.9967,17.59206,-0.6142955,-162.3965,LB
-0.1162109,-0.2224121,1.096924,0.2961069,-0.4089237,-0.1070763,-10.98153,5.849891,-12.52755,-11.39979,5.927767,-12.88577,0.004882813,0.1413574,-0.4511719,-0.02985501,-0.382916,0.1674199,18.0293,-0.5536569,-162.0062,17.39543,-0.5917,-162.5939,LB
-0.1171875,-0.217041,1.097656,0.1892367,-0.5005267,-0.0002061129,-10.98159,5.845116,-12.5303,-11.12327,5.979005,-12.6647,0.005371094,0.1467285,-0.439209,-0.2741299,-0.4134504,0.182687,18.03412,-0.5619522,-161.9937,18.47187,-0.6645372,-161.5153,LB
-0.1181641,-0.2114258,1.090332,0.128168,-0.2104504,-0.04600763,-10.9783,5.84658,-12.53085,-10.91166,6.073002,-12.52429,0.004150391,0.152832,-0.4584961,-0.2741299,-0.6271908,0.1979542,18.0381,-0.5697734,-161.9821,18.43424,-0.4920242,-161.5587,LB
-0.1147461,-0.215332,1.094482,0.2045038,0.09489316,0.1677328,-10.97716,5.848509,-12.52912,-11.07123,5.873271,-12.56765,0.004638672,0.1481934,-0.4577637,-0.197794,-0.3218473,0.1368854,18.03318,-0.5741562,-161.9815,17.93763,-0.5523559,-162.0533,LB
-0.1162109,-0.2275391,1.089355,0.1892367,0.04909158,-0.03074045,-10.9895,5.85149,-12.54298,-11.73331,5.961504,-13.19958,0.004882813,0.1442871,-0.4584961,0.04648089,-0.1844428,-0.168458,18.02255,-0.5770248,-161.9948,17.46768,-0.5820181,-162.522,LB
-0.1179199,-0.2109375,1.094238,0.2350382,0.4765725,0.2135344,-10.98325,5.862273,-12.53806,-10.84981,6.040345,-12.45376,0.003662109,0.1479492,-0.4538574,-0.06038928,-0.0470382,0.04528236,18.0223,-0.5749665,-161.993,18.05447,-0.4395381,-161.9398,LB
-0.1120605,-0.2145996,1.089111,0.06709921,0.6445115,0.0,-10.98439,5.869792,-12.53795,-11.08974,5.764518,-12.53239,-0.002685547,0.1503906,-0.4492188,0.1686182,-0.3065802,0.07581687,18.03452,-0.5614778,-161.9818,18.50934,0.3248067,-161.4876,LB
