xa_S1,ya_S1,za_S1,xgb_S1,ybg_S1,zbg_S1,tilt_x_S1,tilt_y_S1,tilt_z_S1,tilt_accx_S1,tilt_accy_S1,tilt_accz_S1,xa_S2,ya_S2,za_S2,xgb_S2,ybg_S2,zbg_S2,tilt_x_S2,tilt_y_S2,tilt_z_S2,tilt_accx_S2,tilt_accy_S2,tilt_accz_S2,Posture
-0.3520508,-0.8652344,0.4709473,-1.993969,-0.347855,0.8547558,-55.90162,20.44746,-63.41495,-55.80107,19.66565,-63.24439,-0.1916504,-0.2529297,-0.3479004,0.0,0.7163206,-1.038687,-31.81944,25.57705,-137.449,-32.48851,24.01624,-137.6304,LR
-0.3532715,-0.8781738,0.4558105,-2.42145,-0.1341145,0.8242214,-55.95333,20.42952,-63.42028,-56.70769,19.64905,-64.2873,-0.1928711,-0.2504883,-0.3500977,0.0,0.7163206,-1.298229,-31.82454,25.55803,-137.4762,-32.07438,24.13417,-137.9179,LR
-0.3615723,-0.8754883,0.4650879,-2.482519,-0.3325878,0.7173512,-55.9896,20.41713,-63.41901,-56.06402,20.03818,-63.84867,-0.1982422,-0.2526855,-0.3405762,-0.9153514,0.487313,-1.679908,-31.86205,25.55894,-137.4981,-32.66872,25.05451,-136.6798,LR
-0.3579102,-0.8769531,0.4680176,-2.329847,-0.3936565,0.7784199,-56.04442,20.39595,-63.40718,-56.10459,19.80198,-63.7052,-0.1953125,-0.2580566,-0.3518066,0.0,0.05983204,-1.359298,-31.87827,25.53095,-137.5159,-32.67268,24.11579,-137.3883,LR
-0.3637695,-0.8911133,0.4836426,-2.009237,-0.08831299,0.9921603,-56.06944,20.38148,-63.39088,-55.81863,19.7371,-63.32118,-0.1977539,-0.2553711,-0.3505859,0.0,-0.6271908,-1.83258,-31.88855,25.50131,-137.5394,-32.39272,24.50985,-137.3463,LR
-0.3686523,-0.8952637,0.4807129,-2.177176,-0.3173206,1.328038,-56.09836,20.36798,-63.37545,-55.91503,19.94024,-63.59541,-0.197998,-0.2531738,-0.3491211,-0.9611526,-0.7493282,-1.679908,-31.90978,25.47348,-137.5607,-32.2434,24.66073,-137.3671,LR
-0.3740234,-0.8947754,0.4685059,-1.551221,-0.8822061,1.450176,-56.12276,20.35406,-63.37093,-56.17822,20.32042,-64.21508,-0.1960449,-0.2568359,-0.3527832,-0.8848166,-1.71116,-1.405099,-31.93315,25.42439,-137.579,-32.47142,24.19251,-137.514,LR
-0.3664551,-0.8862305,0.4606934,-0.4825191,-0.5310611,1.663916,-56.13505,20.34265,-63.3675,-56.40646,20.14747,-64.34102,-0.2026367,-0.2509766,-0.3469238,-0.7168779,-2.214977,-1.13029,-31.94487,25.38985,-137.5857,-31.99219,25.32547,-137.0834,LR
-0.3674316,-0.8869629,0.4741211,-0.1466411,-0.2104504,1.419641,-56.13312,20.33408,-63.35363,-55.9305,20.06917,-63.71768,-0.2058105,-0.2502441,-0.3500977,-0.4878702,-2.627191,-0.9928856,-31.94549,25.3572,-137.5919,-31.64121,25.55963,-137.2165,LR
-0.364502,-0.8823242,0.479248,0.0976336,-0.2104504,1.160099,-56.12291,20.32355,-63.3375,-55.6897,19.95197,-63.3427,-0.2036133,-0.2570801,-0.3513184,-0.3504658,-2.703527,-0.7028093,-31.9585,25.31165,-137.5899,-32.33839,25.06636,-136.9707,LR
-0.369873,-0.8933105,0.4814453,0.1739695,-0.3783893,1.037962,-56.11387,20.31204,-63.32607,-55.79879,20.02595,-63.52901,-0.206543,-0.2504883,-0.3635254,-0.3657329,-2.856199,-0.3516641,-31.94323,25.26488,-137.6079,-30.92606,25.07271,-138.2323,LR
-0.3725586,-0.8967285,0.473877,0.7541222,-0.179916,1.282237,-56.10231,20.30654,-63.32045,-56.09047,20.1697,-63.98721,-0.2041016,-0.2531738,-0.3527832,-0.2435954,-3.421084,-0.0005190372,-31.94466,25.21615,-137.6023,-31.84766,25.17514,-137.3298,LR
-0.375,-0.9003906,0.4628906,1.960229,0.3086336,1.786053,-56.08357,20.31114,-63.32177,-56.51004,20.32482,-64.61172,-0.2009277,-0.2578125,-0.348877,-0.1367252,-4.505054,0.3200917,-31.96046,25.14265,-137.5829,-32.6342,24.85266,-136.8659,LR
-0.3662109,-0.8840332,0.4692383,3.319008,1.346802,2.015061,-56.03406,20.32667,-63.30326,-56.04729,20.09758,-63.87749,-0.2009277,-0.2502441,-0.3408203,-0.1825268,-3.802763,0.7781069,-31.9702,25.09225,-137.5542,-32.31359,25.41723,-136.7219,LR
-0.3684082,-0.8728027,0.4702148,3.639618,1.988023,2.07613,-55.97211,20.35706,-63.27873,-55.61211,20.38515,-63.60308,-0.1950684,-0.2485352,-0.3286133,-0.9916873,-4.077573,1.312458,-32.00517,25.04116,-137.5077,-33.03839,25.3352,-136.1259,LR
-0.3679199,-0.8508301,0.4794922,3.425878,1.163595,2.106664,-55.89791,20.37873,-63.23724,-54.61214,20.64241,-62.64895,-0.1989746,-0.25,-0.3305664,0.0,-3.848565,1.449863,-32.0239,24.99667,-137.4557,-32.94135,25.64499,-135.9738,LR
-0.3535156,-0.8520508,0.4584961,2.189237,0.3544351,1.862389,-55.86386,20.37778,-63.21655,-55.80439,20.07033,-63.57138,-0.2009277,-0.2478027,-0.3398438,0.0,-2.672992,0.7170382,-32.02572,24.96814,-137.4322,-32.11522,25.53487,-136.8096,LR
-0.3598633,-0.8654785,0.46875,0.2655725,0.171229,1.877656,-55.85617,20.3744,-63.19322,-55.67444,20.08321,-63.43036,-0.1965332,-0.246582,-0.3369141,-0.9458857,-1.49742,0.3353589,-32.04419,24.95238,-137.4169,-32.3005,25.20768,-136.8961,LR
-0.3659668,-0.8674316,0.4580078,0.2655725,-0.2715191,1.847122,-55.85434,20.37239,-63.18517,-55.94684,20.45976,-64.05798,-0.1916504,-0.244873,-0.3417969,-0.1672597,-0.2455115,0.2437558,-32.04579,24.9398,-137.4191,-32.00118,24.50395,-137.7052,LR
-0.376709,-0.8725586,0.4716797,0.3571756,-0.5921298,1.251702,-55.83849,20.37216,-63.17516,-55.32396,20.79628,-63.60508,-0.1965332,-0.246582,-0.3354492,-0.2588627,-0.550855,0.701771,-32.05612,24.93886,-137.3965,-32.3846,25.27029,-136.7715,LR
-0.3723145,-0.8671875,0.4746094,0.3724428,-0.2104504,0.9310915,-55.82015,20.37457,-63.16492,-55.17741,20.63736,-63.30188,-0.2019043,-0.2436523,-0.3427734,-0.8390155,-0.5813893,0.7323053,-32.05706,24.94444,-137.3835,-31.48631,25.64561,-137.2879,LR
-0.3791504,-0.862793,0.4750977,0.219771,-0.7600687,0.5799466,-55.79722,20.37699,-63.15803,-54.83508,21.05387,-63.24632,-0.2009277,-0.2412109,-0.3505859,-0.8390155,-0.7798626,0.5643663,-32.04412,24.94035,-137.3913,-30.83447,25.27479,-138.157,LR
-0.3686523,-0.8659668,0.4714355,-0.4061831,-0.7906031,0.3509389,-55.79389,20.36861,-63.15793,-55.35202,20.50055,-63.39357,-0.2038574,-0.2458496,-0.3432617,-0.7626796,-0.1691756,0.3964274,-32.04694,24.9545,-137.3789,-31.625,25.77225,-137.0646,LR
-0.3757324,-0.8725586,0.4831543,-0.650458,-0.439458,0.2898702,-55.78662,20.36762,-63.15137,-54.95226,20.64208,-63.04329,-0.2011719,-0.2431641,-0.3479004,-0.6100078,0.1209008,0.3048244,-32.03791,24.96424,-137.3829,-31.17694,25.35868,-137.7877,LR
-0.3830566,-0.8833008,0.4853516,-0.8031298,-0.439458,0.2746031,-55.78207,20.37045,-63.14951,-55.00831,20.81022,-63.24674,-0.1989746,-0.2526855,-0.3461914,0.04648089,0.07509923,-0.4585342,-32.043,24.96412,-137.3841,-32.32659,24.90273,-137.107,LR
-0.3752441,-0.8798828,0.4719238,-0.8947329,-0.04251146,0.2746031,-55.79117,20.37436,-63.15729,-55.57969,20.59753,-63.74026,-0.206543,-0.2470703,-0.348877,0.7640381,0.1056336,-0.5501375,-32.01807,24.98213,-137.3904,-31.35813,25.78695,-137.2915,LR
-0.3708496,-0.871582,0.4697266,-0.4061831,0.1559618,0.06086259,-55.79181,20.37985,-63.16571,-55.52441,20.53382,-63.62266,-0.203125,-0.2470703,-0.3427734,0.3976259,-0.3371145,-0.260061,-32.00832,24.99136,-137.3857,-31.80289,25.67486,-136.9814,LR
-0.3642578,-0.8691406,0.4743652,-0.222977,0.1559618,0.07612977,-55.78837,20.37834,-63.16697,-55.46681,20.19734,-63.28083,-0.2028809,-0.2492676,-0.345459,0.03121376,-0.6577252,-0.3516641,-32.00548,24.99118,-137.3845,-31.88957,25.46593,-137.0666,LR
-0.3728027,-0.871582,0.4802246,-0.7267939,0.2475649,0.3509389,-55.78535,20.38516,-63.16115,-55.10347,20.53744,-63.13391,-0.2053223,-0.244873,-0.342041,0.1228168,-0.291313,-0.6417403,-31.99441,25.00741,-137.3852,-31.54229,26.01679,-136.946,LR
-0.3735352,-0.8798828,0.4624023,-1.139008,-0.4241909,0.3967404,-55.80555,20.38314,-63.17579,-55.95797,20.59596,-64.18504,-0.2055664,-0.2509766,-0.3464355,0.2754886,0.0,-0.870748,-31.98923,25.02058,-137.3871,-31.92404,25.66558,-136.8798,LR
-0.3659668,-0.8791504,0.4855957,-1.001603,-0.6379313,0.3356718,-55.8098,20.36714,-63.1673,-55.3306,20.02091,-62.98162,-0.2180176,-0.2504883,-0.3383789,0.1380839,-0.7645955,-0.8096795,-31.98528,25.05647,-137.362,-31.89325,27.37743,-135.5384,LR
-0.3642578,-0.880127,0.4992676,-0.4519846,-0.607397,0.6715496,-55.79871,20.34683,-63.14086,-54.92358,19.79801,-62.33868,-0.2038574,-0.2529297,-0.3549805,-0.01458788,-0.8561985,-0.7944121,-31.98001,25.04407,-137.3772,-31.71102,25.06549,-137.5372,LR
-0.3874512,-0.8737793,0.4816895,0.128168,0.1254275,0.9768932,-55.77528,20.36618,-63.12877,-54.72153,21.22233,-63.2542,-0.2058105,-0.246582,-0.3391113,-0.4573359,-0.810397,-0.5196033,-31.98445,25.05417,-137.3684,-31.86572,26.14466,-136.555,LR
-0.390625,-0.8791504,0.4719238,0.9678626,1.010924,1.404374,-55.74815,20.40131,-63.12294,-55.1301,21.37954,-63.86964,-0.201416,-0.2519531,-0.3500977,-0.5794735,-1.100473,-0.5348701,-31.99239,25.03753,-137.3757,-31.95582,25.03074,-137.3438,LR
-0.3710938,-0.8706055,0.4748535,1.349542,1.682679,1.572313,-55.71951,20.42834,-63.10447,-55.30792,20.51611,-63.35481,-0.2023926,-0.2429199,-0.3347168,-0.5489388,-1.466886,0.0,-31.99691,25.03816,-137.3608,-31.84197,26.07582,-136.6308,LR
-0.3757324,-0.871582,0.4711914,1.548015,2.232298,1.48071,-55.69064,20.46576,-63.09402,-55.33798,20.76787,-63.59788,-0.2060547,-0.2399902,-0.34375,-0.4420686,-1.085206,-0.01578617,-31.98175,25.04493,-137.3615,-30.91367,26.1741,-137.3803,LR
-0.3710938,-0.8825684,0.4702148,1.838092,2.00329,1.068496,-55.6665,20.49308,-63.09329,-55.8348,20.3593,-63.8429,-0.2084961,-0.2487793,-0.3503418,-0.1214581,-1.11574,0.1063511,-31.97163,25.0464,-137.3565,-31.39233,25.88398,-137.1846,LR
-0.3686523,-0.8637695,0.4763184,2.28084,1.331534,1.022695,-55.62411,20.51134,-63.07953,-55.11154,20.49256,-63.10677,-0.2053223,-0.2399902,-0.3466797,0.1228168,-0.8409313,0.350626,-31.94597,25.0524,-137.3575,-30.77923,25.96416,-137.6655,LR
-0.3728027,-0.8640137,0.4719238,2.082366,1.010924,0.442542,-55.58421,20.53078,-63.07876,-55.15956,20.74036,-63.3659,-0.206543,-0.2426758,-0.3430176,0.489229,-0.7340611,0.8544428,-31.92425,25.06409,-137.3399,-31.21928,26.17672,-137.1072,LR
-0.3664551,-0.8579102,0.4804688,1.883893,0.7971831,-0.01547329,-55.54165,20.54067,-63.07242,-54.8411,20.43954,-62.75026,-0.2124023,-0.2441406,-0.3378906,0.1991527,-0.7035267,1.129252,-31.91213,25.09316,-137.3024,-31.45497,27.00001,-136.2373,LR
-0.3649902,-0.8640137,0.465332,1.89916,0.9193206,-0.03074045,-55.51694,20.5505,-63.08365,-55.60923,20.40145,-63.61309,-0.2094727,-0.248291,-0.3483887,0.1380839,-0.1081069,1.419328,-31.90017,25.11147,-137.2755,-31.41581,26.08809,-137.0025,LR
-0.3710938,-0.8688965,0.4794922,1.19687,1.239931,-0.3208168,-55.49086,20.56776,-63.08855,-55.09251,20.50222,-63.09248,-0.2036133,-0.246582,-0.3398438,0.1075497,0.4415114,1.648336,-31.89867,25.13271,-137.2422,-31.89862,25.87041,-136.742,LR
-0.3742676,-0.8752441,0.4775391,0.4487787,1.667412,-0.3513512,-55.48029,20.59079,-63.09877,-55.26988,20.575,-63.35867,-0.2045898,-0.244873,-0.3483887,0.4739618,0.7163206,1.236122,-31.87812,25.15381,-137.2295,-31.21973,25.66155,-137.5132,LR
-0.3779297,-0.8696289,0.4709473,0.05183208,1.224664,-0.5192901,-55.47442,20.61526,-63.11618,-55.22525,20.91425,-63.58759,-0.1894531,-0.2507324,-0.347168,1.084649,0.6247175,1.007115,-31.87208,25.13721,-137.2271,-32.37337,23.8644,-137.8483,LR
-0.3752441,-0.8708496,0.472168,-0.2687786,1.560542,-0.6566947,-55.47478,20.64083,-63.1341,-55.29499,20.74661,-63.52974,-0.1987305,-0.2473145,-0.342041,1.206786,1.174336,0.8086412,-31.85716,25.15597,-137.2137,-32.0132,25.21244,-137.1519,LR
-0.388916,-0.8615723,0.4768066,0.1587023,1.19413,-0.7940992,-55.45229,20.6766,-63.14776,-54.46689,21.55181,-63.23337,-0.1955566,-0.2490234,-0.3312988,0.748771,1.006397,0.7933741,-31.86805,25.17186,-137.1845,-32.91509,25.25992,-136.2969,LR
-0.3730469,-0.8696289,0.4816895,-0.574122,1.08726,-0.8093664,-55.45083,20.68936,-63.15635,-54.98533,20.56873,-63.02197,-0.2167969,-0.2460938,-0.3510742,0.6419008,0.7163206,0.3964274,-31.83751,25.21544,-137.1739,-30.81268,26.82409,-136.9489,LR
-0.3789063,-0.8693848,0.4768066,-0.8489313,1.270466,-0.5803587,-55.45404,20.71252,-63.16792,-54.98772,20.91359,-63.30831,-0.2019043,-0.2531738,-0.3410645,0.7182367,0.4415114,0.0147481,-31.84229,25.22565,-137.1599,-32.5692,25.42343,-136.4853,LR
-0.3706055,-0.8759766,0.4777832,-0.833664,1.362069,-0.6872291,-55.46407,20.72448,-63.18056,-55.38344,20.37607,-63.32859,-0.2016602,-0.2526855,-0.3408203,0.6571679,-0.01650381,-0.0310533,-31.8466,25.22934,-137.1474,-32.54096,25.42204,-136.512,LR
-0.3625488,-0.8759766,0.4787598,-0.8489313,1.484206,-0.6414275,-55.4786,20.73101,-63.19051,-55.56662,19.95984,-63.2062,-0.2021484,-0.251709,-0.3398438,0.6113663,0.1361679,-0.01578617,-31.85026,25.23771,-137.1341,-32.47918,25.54762,-136.4704,LR
-0.369873,-0.8713379,0.4558105,-0.742061,1.40787,-0.4582213,-55.50059,20.74934,-63.21919,-56.03276,20.61292,-64.28787,-0.1965332,-0.2504883,-0.3439941,0.672435,0.5025801,0.2437558,-31.84944,25.23614,-137.1322,-32.30359,24.79006,-137.214,LR
-0.3781738,-0.8735352,0.4743652,-0.8489313,1.285733,-0.7482977,-55.50747,20.76984,-63.23602,-55.22042,20.82916,-63.51087,-0.2043457,-0.2509766,-0.3398438,1.054115,0.1209008,-0.2447939,-31.84459,25.24932,-137.1208,-32.3298,25.81258,-136.3985,LR
-0.3745117,-0.8796387,0.4797363,-0.3603816,1.51474,-0.5650916,-55.50869,20.78512,-63.24611,-55.32117,20.49481,-63.35285,-0.1884766,-0.2541504,-0.3342285,1.481595,-0.3676488,0.0,-31.85629,25.22242,-137.1098,-33.51862,24.17434,-136.5686,LR
-0.3759766,-0.8791504,0.4833984,0.1739695,2.079626,-0.4734885,-55.49875,20.81085,-63.25177,-55.13969,20.54327,-63.18084,-0.2058105,-0.2536621,-0.3317871,1.557931,-0.9478015,-0.4127328,-31.85802,25.22964,-137.0822,-33.01132,26.23355,-135.4467,LR
-0.3718262,-0.8757324,0.4753418,0.5403817,1.957489,-0.5345572,-55.48993,20.83076,-63.26311,-55.4281,20.46363,-63.4522,-0.2067871,-0.2536621,-0.3427734,1.603733,-0.7340611,-0.2447939,-31.84449,25.23166,-137.0707,-32.36045,25.87024,-136.3255,LR
-0.380127,-0.8735352,0.4743652,0.4182443,1.835351,-0.2597481,-55.47731,20.85967,-63.27225,-55.16649,20.92744,-63.52955,-0.2019043,-0.2473145,-0.333252,1.603733,-0.6577252,-0.3821983,-31.82111,25.23173,-137.0621,-32.40409,25.94392,-136.228,LR
-0.3757324,-0.8781738,0.4584961,0.5251145,1.743748,-0.168145,-55.47604,20.89548,-63.2976,-55.97988,20.77047,-64.35846,-0.1975098,-0.246582,-0.3544922,1.786939,-0.550855,-0.4890685,-31.78411,25.21057,-137.0939,-31.28463,24.5789,-138.2918,LR
-0.376709,-0.8762207,0.4709473,0.4335115,1.178863,-0.2139466,-55.46938,20.90973,-63.30922,-55.46153,20.74128,-63.72096,-0.197998,-0.2548828,-0.3540039,1.634267,0.1972366,-0.5959387,-31.7689,25.19733,-137.1131,-32.1448,24.41328,-137.644,LR
-0.3828125,-0.871582,0.4643555,0.02129769,0.3086336,0.07612977,-55.46722,20.91953,-63.32193,-55.37584,21.18799,-63.99705,-0.2006836,-0.2539063,-0.3442383,0.7793052,-0.5813893,-0.4890685,-31.77218,25.18752,-137.1133,-32.50577,25.13424,-136.7666,LR
-0.3737793,-0.8664551,0.4658203,-0.08557248,-0.2562519,-0.03074045,-55.46757,20.91347,-63.33049,-55.42169,20.80477,-63.7271,-0.2004395,-0.248291,-0.3422852,-0.1061909,0.0,-0.7944121,-31.7792,25.19101,-137.1229,-32.04501,25.36156,-137.0078,LR
-0.3710938,-0.8669434,0.467041,-0.8794656,-0.07304579,0.1677328,-55.48053,20.9071,-63.33447,-55.46914,20.64859,-63.65277,-0.2016602,-0.251709,-0.3325195,-0.4420686,-0.642458,-1.252428,-31.80837,25.19386,-137.1163,-32.9129,25.80586,-135.8739,LR
-0.373291,-0.8706055,0.4587402,0.0,-0.2715191,0.3051374,-55.48713,20.90043,-63.34649,-55.81051,20.7734,-64.15995,-0.2058105,-0.2497559,-0.3422852,-0.3046641,-0.5203207,-1.099756,-31.81706,25.20047,-137.1223,-32.01914,25.90701,-136.6047,LR
-0.373291,-0.8737793,0.4643555,-0.8031298,-0.1646488,0.442542,-55.50342,20.89338,-63.35215,-55.71148,20.66903,-63.95505,-0.2023926,-0.2543945,-0.3481445,-0.2588627,-0.06230533,-0.870748,-31.8299,25.1985,-137.131,-32.28151,25.1447,-136.9619,LR
-0.3696289,-0.8725586,0.4541016,-0.9405342,-1.141748,0.2898702,-55.529,20.87175,-63.36906,-56.13688,20.59486,-64.39616,-0.2019043,-0.2529297,-0.342041,-0.5642061,-0.031771,-0.9012823,-31.85138,25.20187,-137.1333,-32.4891,25.39003,-136.5839,LR
-0.3771973,-0.8730469,0.4663086,-0.9099999,-1.630298,0.3967404,-55.54202,20.84758,-63.37346,-55.51162,20.86154,-63.88076,-0.2019043,-0.2526855,-0.3388672,-0.7626796,-0.1691756,-0.3669312,-31.87843,25.20597,-137.1227,-32.64326,25.5313,-136.3341,LR
-0.3779297,-0.8737793,0.473877,-0.6962595,-1.492893,0.702084,-55.54645,20.82503,-63.36642,-55.25155,20.81722,-63.53748,-0.204834,-0.251709,-0.342041,-0.8542824,-0.5966565,-0.7791452,-31.89791,25.20865,-137.121,-32.26624,25.74942,-136.5056,LR
-0.3703613,-0.8747559,0.4733887,-0.7878625,-0.8974732,0.5799466,-55.55646,20.80468,-63.36135,-55.50668,20.42331,-63.51104,-0.2099609,-0.2597656,-0.3381348,-0.7016106,-0.8561985,-0.9776182,-31.93287,25.21622,-137.1,-33.13036,26.21603,-135.3517,LR
-0.3720703,-0.8737793,0.4775391,-0.8031298,-0.5768626,0.7631527,-55.56283,20.78988,-63.34901,-55.28482,20.48847,-63.30527,-0.2011719,-0.2509766,-0.3391113,-0.5489388,-0.2455115,-0.9623513,-31.9513,25.2184,-137.1015,-32.47772,25.49378,-136.5137,LR
-0.3696289,-0.8752441,0.479248,-0.7115266,-0.1646488,0.6257481,-55.56806,20.77833,-63.3381,-55.33617,20.32566,-63.23262,-0.2077637,-0.2441406,-0.3391113,-0.7779465,0.05983204,-0.6112061,-31.95461,25.24366,-137.1006,-31.54523,26.43735,-136.6092,LR
-0.3752441,-0.8745117,0.4711914,-0.7115266,-0.3631221,0.6410153,-55.57599,20.77131,-63.33507,-55.44139,20.69391,-63.65782,-0.2026367,-0.2490234,-0.3327637,-0.1825268,0.3804427,-0.7028093,-31.96973,25.26383,-137.0888,-32.58534,25.99139,-136.0262,LR
-0.3681641,-0.8725586,0.4746094,-0.6809924,-0.2104504,0.4272748,-55.58294,20.75974,-63.33015,-55.45666,20.3374,-63.38248,-0.2021484,-0.2546387,-0.342041,0.03121376,0.2888396,-0.5654044,-31.98303,25.26979,-137.0838,-32.65602,25.3638,-136.4526,LR
-0.3771973,-0.8696289,0.4755859,-0.574122,-0.2562519,0.3662061,-55.58085,20.75772,-63.32565,-55.08461,20.83452,-63.35612,-0.2026367,-0.2504883,-0.3342285,-0.2435954,0.2735725,-0.4127328,-32.00004,25.28602,-137.0693,-32.65447,25.88049,-136.0507,LR
-0.3737793,-0.8737793,0.4719238,-0.4977863,-0.4089237,0.3051374,-55.58523,20.74907,-63.3265,-55.43396,20.62558,-63.59243,-0.2026367,-0.2529297,-0.3383789,-0.3199313,-0.06230533,-0.2905953,-32.01785,25.29195,-137.0566,-32.67127,25.62504,-136.2355,LR
-0.3703613,-0.8703613,0.4667969,-0.2535114,-0.1646488,0.3509389,-55.58907,20.74294,-63.32983,-55.60331,20.5559,-63.73351,-0.204834,-0.2524414,-0.3366699,-0.4573359,-0.1997099,-0.1073892,-32.03707,25.30228,-137.0371,-32.6426,25.95551,-136.0025,LR
-0.3652344,-0.8708496,0.4765625,-0.390916,-0.3783893,0.3051374,-55.59133,20.72651,-63.32319,-55.41497,20.19923,-63.2221,-0.2072754,-0.2468262,-0.3444824,-0.6863437,0.07509923,0.0147481,-32.0367,25.31854,-137.0342,-31.54758,26.06364,-136.9042,LR
-0.3681641,-0.8762207,0.4787598,-0.574122,-0.1188473,0.3967404,-55.59584,20.71515,-63.31657,-55.42278,20.24006,-63.26413,-0.203125,-0.2497559,-0.3449707,-0.7321453,-0.031771,0.1674199,-32.04591,25.32167,-137.0306,-31.95897,25.49842,-136.9789,LR
-0.3793945,-0.8742676,0.4716797,-0.3451145,-0.07304579,0.3204046,-55.59503,20.71782,-63.31889,-55.30193,20.90279,-63.6682,-0.2062988,-0.2346191,-0.3400879,-0.6100078,0.5331145,0.06054974,-32.02464,25.35374,-137.0377,-30.5338,26.53353,-137.4281,LR
-0.3725586,-0.8759766,0.4716797,-0.4519846,-0.02724427,0.3662061,-55.60064,20.71366,-63.31995,-55.54333,20.52942,-63.64121,-0.2104492,-0.2546387,-0.3513184,-0.3046641,0.02929771,0.1216183,-32.02608,25.36459,-137.0304,-31.87274,25.87444,-136.7621,LR
-0.3688965,-0.873291,0.473877,0.05183208,0.5529084,0.04559542,-55.59756,20.71489,-63.3217,-55.48485,20.369,-63.44113,-0.2041016,-0.2490234,-0.340332,-0.640542,-0.1539084,0.5490992,-32.03715,25.37156,-137.0135,-32.10882,25.82636,-136.5873,LR
-0.3764648,-0.8684082,0.4787598,-0.08557248,0.9345879,0.06086259,-55.586,20.73011,-63.31775,-54.95665,20.78876,-63.1687,-0.2028809,-0.2468262,-0.3391113,-0.4573359,0.6399847,0.1521528,-32.04292,25.3898,-137.0051,-31.98939,25.81346,-136.7051,LR
-0.375,-0.8723145,0.4716797,-0.3451145,1.331534,0.07612977,-55.58663,20.74936,-63.32195,-55.36379,20.71407,-63.58345,-0.1887207,-0.2514648,-0.338623,-0.09092379,0.6705191,0.2132213,-32.06281,25.37397,-137.0043,-32.97034,24.10548,-137.1239,LR
-0.3828125,-0.8791504,0.4743652,-0.3145801,1.026191,-0.168145,-55.58481,20.7688,-63.33154,-55.26429,20.96732,-63.67805,-0.2033691,-0.2490234,-0.3476563,0.06174803,0.6094504,0.5949008,-32.05525,25.38353,-137.0008,-31.72753,25.43386,-137.2372,LR
-0.380127,-0.8776855,0.4711914,0.2350382,0.9651221,-0.2139466,-55.57795,20.7844,-63.34332,-55.40298,20.88629,-63.77341,-0.2006836,-0.2456055,-0.3430176,0.04648089,-0.01650381,0.5796337,-32.0478,25.38441,-136.9971,-31.71668,25.43989,-137.2422,LR
-0.3730469,-0.8649902,0.473877,0.128168,0.9956565,-0.06127481,-55.5668,20.79771,-63.34325,-55.11473,20.71825,-63.29523,-0.2019043,-0.2473145,-0.3510742,-0.1367252,0.04456491,0.6559694,-32.03707,25.381,-137.0018,-31.41096,25.18097,-137.7168,LR
-0.3786621,-0.8723145,0.4829102,-0.1161069,0.6292443,-0.07654199,-55.55465,20.80692,-63.33907,-54.87389,20.79565,-63.07784,-0.2089844,-0.2463379,-0.3422852,-0.1519923,-0.09283972,0.4269619,-32.02977,25.39924,-136.9886,-31.56019,26.36123,-136.6566,LR
-0.3815918,-0.8666992,0.4655762,-0.2535114,0.5529084,0.01506107,-55.55164,20.82289,-63.34845,-55.2177,21.19939,-63.81939,-0.2070313,-0.2485352,-0.3552246,-0.1519923,0.02929771,0.610168,-32.01446,25.40221,-136.9935,-31.15229,25.52634,-137.679,LR
-0.3845215,-0.8757324,0.4731445,-0.03977096,0.4765725,0.2746031,-55.54427,20.83588,-63.35102,-55.15412,21.12194,-63.67853,-0.1882324,-0.2490234,-0.345459,-0.2435954,-0.01650381,0.4116948,-32.02441,25.37084,-137.0055,-32.33312,23.84581,-137.8987,LR
-0.3828125,-0.8674316,0.4794922,-0.3145801,0.5681756,0.0,-55.53255,20.84988,-63.34747,-54.72702,21.11836,-63.17359,-0.201416,-0.2514648,-0.3447266,-0.2741299,-0.09283972,0.2437558,-32.03177,25.36753,-137.0008,-32.20414,25.26892,-136.9359,LR
-0.3757324,-0.8752441,0.4736328,0.0976336,0.7666489,0.1066641,-55.52787,20.85708,-63.35028,-55.36551,20.68417,-63.56067,-0.2026367,-0.2485352,-0.3354492,-0.2130611,0.1361679,0.7323053,-32.0419,25.37999,-136.9758,-32.38187,25.89063,-136.2901,LR
-0.3747559,-0.8708496,0.4702148,-0.131374,0.9345879,-0.0002061129,-55.52678,20.86847,-63.35567,-55.37654,20.73972,-63.61974,-0.1999512,-0.2487793,-0.3330078,0.04648089,0.7163206,0.4727633,-32.05316,25.3967,-136.9536,-32.63878,25.68886,-136.2152,LR
-0.3833008,-0.8703613,0.4692383,-0.2535114,0.6597786,-0.2139466,-55.5231,20.88457,-63.36646,-55.15678,21.18856,-63.73814,-0.1977539,-0.2541504,-0.3371582,0.3060229,0.5178473,0.2895572,-32.06855,25.39781,-136.9369,-33.03236,25.09694,-136.3153,LR
-0.3745117,-0.8706055,0.473877,-0.1466411,0.5071069,-0.2597481,-55.51962,20.8878,-63.37139,-55.24815,20.69806,-63.43464,-0.2060547,-0.2524414,-0.3474121,0.32129,0.1514351,0.2437558,-32.06254,25.40473,-136.9312,-32.00432,25.63252,-136.8334,LR
-0.3789063,-0.8693848,0.4790039,0.05183208,0.5223741,-0.3513512,-55.50669,20.89559,-63.37317,-54.91167,20.89322,-63.20244,-0.199707,-0.2524414,-0.3474121,0.06174803,-0.123374,0.2132213,-32.06463,25.39374,-136.9334,-32.20955,24.94015,-137.1843,LR
-0.3820801,-0.861084,0.4729004,-0.1161069,0.4002366,0.07612977,-55.49368,20.90822,-63.37154,-54.7762,21.2524,-63.34368,-0.2099609,-0.25,-0.3439941,-0.5031376,-0.4287176,0.4116948,-32.06699,25.40512,-136.9186,-31.81277,26.27753,-136.4971,LR
-0.3735352,-0.8725586,0.467041,-0.3603816,0.3544351,0.0,-55.50058,20.90882,-63.38011,-55.57363,20.67783,-63.79995,-0.1992188,-0.2495117,-0.3459473,-0.5489388,-0.1539084,0.1063511,-32.07384,25.39546,-136.9245,-32.00603,25.03533,-137.295,LR
-0.378418,-0.8754883,0.4694824,-0.558855,0.1406947,0.183,-55.50763,20.90977,-63.38565,-55.44236,20.85296,-63.79184,-0.2043457,-0.2473145,-0.3469238,-0.1519923,0.02929771,-0.07685494,-32.06565,25.40042,-136.9319,-31.56003,25.62358,-137.2392,LR
-0.3776855,-0.8681641,0.4658203,-0.390916,0.2475649,0.04559542,-55.51013,20.91445,-63.39336,-55.36472,20.97402,-63.80212,-0.199707,-0.2346191,-0.3461914,-0.1519923,0.2430381,-0.09212208,-32.03487,25.40651,-136.9612,-30.41467,25.5261,-138.3314,LR
-0.3840332,-0.875,0.4543457,-0.6199236,0.2170305,-0.168145,-55.52481,20.92498,-63.41936,-55.78857,21.28162,-64.57018,-0.1999512,-0.248291,-0.3395996,-0.01458788,0.1819695,-0.260061,-32.03863,25.40948,-136.9621,-32.2123,25.42167,-136.8101,LR
-0.3796387,-0.8681641,0.463623,-0.8183969,-0.02724427,-0.1376107,-55.53406,20.92795,-63.43155,-55.3857,21.09323,-63.92793,-0.2028809,-0.246582,-0.3466797,0.1838853,0.3499084,-0.3516641,-32.02623,25.41601,-136.9747,-31.54475,25.49581,-137.3527,LR
-0.373291,-0.8710938,0.463623,-0.742061,-0.1188473,-0.06127481,-55.54666,20.92218,-63.4424,-55.65491,20.72108,-63.93191,-0.2036133,-0.2346191,-0.342041,0.01594663,0.1667023,-0.4432673,-31.99578,25.43307,-136.9968,-30.51548,26.14645,-137.7533,LR
-0.3754883,-0.876709,0.4628906,0.0,-0.3783893,0.03032825,-55.55153,20.91305,-63.45532,-55.78992,20.74384,-64.1106,-0.2053223,-0.2497559,-0.3354492,-0.07565641,-0.001236677,-0.4127328,-32.00531,25.44736,-136.984,-32.41675,26.14866,-136.0549,LR
-0.3718262,-0.8771973,0.4743652,0.0,-0.1341145,-0.01547329,-55.55063,20.90178,-63.45708,-55.50693,20.44814,-63.53168,-0.2058105,-0.2524414,-0.3486328,-0.2283282,0.1056336,-0.4890685,-32.00747,25.45106,-136.9905,-31.94537,25.55475,-136.9472,LR
-0.375,-0.8759766,0.4699707,-0.9405342,0.01855725,-0.07654199,-55.56415,20.89738,-63.46399,-55.53535,20.66802,-63.74673,-0.204834,-0.2485352,-0.3371582,-0.4115343,0.05983204,-0.6264734,-32.01758,25.46412,-136.9861,-32.21074,26.05979,-136.3115,LR
-0.3754883,-0.8752441,0.46875,0.0,-0.1035802,0.06086259,-55.56371,20.89223,-63.46971,-55.54184,20.71597,-63.79434,-0.1994629,-0.2487793,-0.3427734,-0.3504658,-0.2149771,-0.4585342,-32.02438,25.45603,-136.9945,-32.10025,25.21781,-137.0693,LR
-0.3769531,-0.8759766,0.4633789,-0.7573281,-0.02724427,-0.04600763,-55.57775,20.8905,-63.48269,-55.70946,20.82589,-64.08462,-0.2050781,-0.2495117,-0.3442383,-0.1214581,0.05983204,-0.3211298,-32.02377,25.46275,-136.9956,-31.91037,25.75088,-136.8253,LR
-0.3808594,-0.8720703,0.4631348,-0.7267939,0.3239008,-0.01547329,-55.58593,20.89898,-63.49421,-55.48814,21.09218,-64.04847,-0.2036133,-0.2519531,-0.3469238,0.1075497,0.3651755,0.04528236,-32.02293,25.46691,-136.9942,-32.06061,25.40243,-136.962,LR
-0.3737793,-0.8764648,0.4638672,-0.3298473,0.3849695,-0.1528779,-55.59499,20.89971,-63.50742,-55.79659,20.65282,-64.04195,-0.2033691,-0.2526855,-0.3364258,-0.2130611,-0.0470382,-0.1531909,-32.04024,25.47281,-136.9775,-32.73185,25.79665,-136.0461,LR
-0.3813477,-0.8674316,0.4660645,-0.4519846,-0.05777865,-0.1376107,-55.59435,20.90427,-63.51548,-55.23043,21.16984,-63.8093,-0.2009277,-0.244873,-0.3369141,-0.1825268,-0.5661222,0.1063511,-32.04159,25.4701,-136.9717,-31.9737,25.75346,-136.7663,LR
-0.3720703,-0.8706055,0.4648438,-0.4367175,0.03382444,-0.168145,-55.60151,20.89981,-63.52464,-55.63153,20.6563,-63.85017,-0.2001953,-0.2524414,-0.3408203,0.1991527,-0.1386412,-0.260061,-32.04776,25.46307,-136.9701,-32.56471,25.26804,-136.6098,LR
-0.3762207,-0.8747559,0.4611816,-0.2687786,-0.08831299,-0.1986794,-55.61065,20.89649,-63.5416,-55.76913,20.82936,-64.15825,-0.2055664,-0.2497559,-0.3388672,0.7335038,0.4415114,-0.2142596,-32.04036,25.48085,-136.9605,-32.21705,26.02743,-136.3313,LR
-0.375,-0.8803711,0.4829102,-0.2077099,-0.5005267,-0.4429542,-55.6059,20.88078,-63.54172,-55.22018,20.47873,-63.22196,-0.2011719,-0.2487793,-0.3461914,0.7640381,0.2888396,-0.0005190372,-32.02615,25.48044,-136.9664,-31.85392,25.26224,-137.2568,LR
-0.3789063,-0.8762207,0.4702148,-0.009236574,-0.9738091,-0.3513512,-55.60242,20.86697,-63.55124,-55.42585,20.85853,-63.77705,-0.2058105,-0.2583008,-0.347168,0.3976259,-0.2302443,0.1674199,-32.03218,25.47618,-136.9532,-32.61966,25.43682,-136.429,LR
-0.3752441,-0.8793945,0.4787598,0.3266413,-0.8822061,-0.3208168,-55.59213,20.84755,-63.55296,-55.32774,20.54436,-63.40113,-0.2072754,-0.2492676,-0.3415527,0.0006792545,-0.8409313,0.259023,-32.03073,25.47658,-136.9402,-31.96035,26.11407,-136.4942,LR
-0.3764648,-0.8740234,0.4743652,0.2655725,-0.3783893,-0.2902825,-55.58203,20.83974,-63.55627,-55.28251,20.73487,-63.50536,-0.2182617,-0.2475586,-0.342041,-0.2588627,-0.5966565,0.3353589,-32.02144,25.50558,-136.9172,-31.38867,27.33568,-136.0234,LR
-0.3759766,-0.8603516,0.4709473,0.1587023,-0.2104504,-0.2139466,-55.56804,20.83952,-63.55533,-54.99131,20.97338,-63.36229,-0.1987305,-0.2463379,-0.3444824,0.3060229,-0.2607787,0.07581687,-32.01201,25.49441,-136.9262,-31.7746,25.13877,-137.4236,LR
-0.3764648,-0.8769531,0.4726563,0.1892367,0.2933664,-0.4124198,-55.56253,20.84107,-63.56334,-55.43143,20.70127,-63.65225,-0.1965332,-0.2512207,-0.3410645,0.580832,0.1972366,0.4116948,-32.01472,25.48502,-136.9204,-32.54617,24.88939,-136.9179,LR
-0.3745117,-0.873291,0.4758301,0.1434351,0.4002366,-0.2750153,-55.55457,20.84245,-63.56384,-55.26275,20.63531,-63.39994,-0.2045898,-0.2524414,-0.3354492,0.0,0.6094504,0.3048244,-32.02883,25.50389,-136.8958,-32.71999,25.98099,-135.912,LR
-0.3718262,-0.8806152,0.463623,0.3571756,0.2017633,-0.4582213,-55.55794,20.83829,-63.58182,-55.98548,20.48661,-64.12597,-0.215332,-0.2460938,-0.3444824,0.8861756,0.319374,0.1368854,-32.00022,25.53739,-136.8858,-31.20642,26.95931,-136.4913,LR
-0.3740234,-0.8603516,0.4770508,0.5556489,0.5681756,-0.4429542,-55.53579,20.84566,-63.57719,-54.83191,20.81671,-63.04623,-0.2009277,-0.25,-0.3457031,0.8098397,0.3804427,0.3200917,-31.98861,25.53661,-136.8863,-32.01483,25.21894,-137.1454,LR
-0.3774414,-0.871582,0.4699707,0.1587023,0.2933664,-0.4734885,-55.5294,20.85036,-63.58607,-55.33287,20.86539,-63.67329,-0.2004395,-0.2524414,-0.3452148,0.3670917,-0.1386412,0.5643663,-31.98998,25.52621,-136.8801,-32.30888,25.11154,-136.9626,LR
-0.3720703,-0.8791504,0.4558105,0.2503054,0.3086336,-0.4124198,-55.53952,20.84943,-63.60955,-56.20687,20.59218,-64.47704,-0.2043457,-0.2492676,-0.3349609,-0.07565641,-0.4592519,0.1521528,-31.99976,25.53094,-136.8624,-32.42711,26.07773,-136.1016,LR
-0.3657227,-0.8891602,0.4677734,0.05183208,0.07962596,-0.2139466,-55.55333,20.83358,-63.6214,-56.26542,20.00214,-64.0554,-0.2038574,-0.2536621,-0.3393555,-0.289397,-0.1539084,0.2742901,-32.01702,25.53195,-136.8451,-32.65,25.69483,-136.2003,LR
-0.3771973,-0.869873,0.4714355,-0.299313,-0.02724427,-0.2444809,-55.55138,20.83388,-63.62381,-55.23621,20.86859,-63.56229,-0.208252,-0.2548828,-0.3439941,-0.2283282,-0.2760458,0.3200917,-32.0274,25.53604,-136.8288,-32.36844,25.9392,-136.264,LR
-0.3776855,-0.8757324,0.4799805,0.1129008,-0.2409847,-0.1528779,-55.54084,20.82799,-63.61927,-55.10702,20.71655,-63.28482,-0.2058105,-0.255127,-0.3400879,0.1228168,-0.06230533,-0.07685494,-32.0389,25.54103,-136.8144,-32.69257,25.83131,-136.0547,LR
-0.371582,-0.8757324,0.4660645,0.05183208,-0.05777865,-0.2292137,-55.54444,20.82127,-63.62823,-55.7591,20.53431,-63.89877,-0.2084961,-0.253418,-0.3500977,-0.1367252,-0.3676488,0.1979542,-32.0377,25.53987,-136.8123,-31.87818,25.75343,-136.8522,LR
-0.3820801,-0.8771973,0.4694824,-0.05503809,-0.3325878,-0.3971527,-55.54221,20.82012,-63.63878,-55.39243,21.00811,-63.86367,-0.204834,-0.2509766,-0.3408203,-0.2283282,-0.5661222,0.442229,-32.04526,25.5378,-136.799,-32.25887,25.82445,-136.4534,LR
-0.3723145,-0.880127,0.4733887,0.00603056,0.04909158,0.03032825,-55.54362,20.81305,-63.63854,-55.61673,20.43302,-63.64781,-0.2001953,-0.2490234,-0.3398438,-0.3962674,-0.1691756,0.3811603,-32.05551,25.53287,-136.7928,-32.26653,25.41555,-136.7658,LR
-0.3779297,-0.8696289,0.4694824,-0.131374,0.5071069,0.03032825,-55.5402,20.8228,-63.6385,-55.27604,20.92772,-63.65862,-0.2009277,-0.2514648,-0.3476563,-0.1825268,0.4109771,0.5338321,-32.05822,25.53012,-136.7932,-32.0567,25.09316,-137.2048,LR
-0.3730469,-0.8808594,0.4631348,-0.222977,0.5834427,-0.3666183,-55.55218,20.82589,-63.65444,-55.97568,20.54847,-64.16613,-0.2026367,-0.2495117,-0.3583984,0.2907557,0.1361679,0.350626,-32.0374,25.51923,-136.8147,-31.21699,24.89223,-138.1125,LR
-0.3793945,-0.885498,0.4729004,0.06709921,-0.04251146,-0.1834122,-55.55225,20.82285,-63.66095,-55.60148,20.7033,-63.85401,-0.2182617,-0.253418,-0.3376465,0.1991527,-0.6729923,0.3048244,-32.0382,25.54573,-136.7794,-32.2239,27.33905,-135.2722,LR
-0.3742676,-0.8684082,0.4763184,0.6319848,0.04909158,0.03032825,-55.53395,20.82112,-63.65259,-55.10184,20.70019,-63.26529,-0.2021484,-0.25,-0.342041,-0.289397,-0.902,0.4269619,-32.04528,25.53171,-136.773,-32.17933,25.50778,-136.7729,LR
-0.3718262,-0.8762207,0.46875,0.1434351,0.3697023,0.03032825,-55.53463,20.82042,-63.65472,-55.67331,20.51455,-63.78149,-0.2050781,-0.2504883,-0.3486328,-0.1519923,-0.9783359,0.5796337,-32.04185,25.51834,-136.772,-31.76947,25.53453,-137.1211,LR
-0.378418,-0.8815918,0.4731445,-0.05503809,0.07962596,-0.1070763,-55.53473,20.81946,-63.65806,-55.50183,20.71741,-63.74846,-0.2050781,-0.244873,-0.3349609,-0.1825268,-0.8561985,0.2895572,-32.04255,25.52142,-136.7595,-31.94257,26.30112,-136.3618,LR
-0.3737793,-0.8774414,0.4672852,0.1892367,-0.2104504,0.1524656,-55.5354,20.81209,-63.66061,-55.70728,20.60591,-63.89738,-0.2053223,-0.2470703,-0.3344727,-0.1672597,-0.810397,0.4269619,-32.04783,25.52544,-136.7416,-32.1918,26.27847,-136.1553,LR
-0.3728027,-0.8679199,0.479248,0.2961069,-0.05777865,0.06086259,-55.52111,20.8072,-63.64854,-55.02436,20.60724,-63.09875,-0.2080078,-0.2478027,-0.3457031,-0.381,-0.5355878,0.3200917,-32.04364,25.52826,-136.74,-31.55816,26.06026,-136.8974,LR
-0.3779297,-0.8737793,0.4724121,0.128168,0.4765725,0.03032825,-55.51485,20.81467,-63.64729,-55.30225,20.83058,-63.60817,-0.2041016,-0.2553711,-0.3508301,0.0006792545,-0.4134504,0.2284887,-32.0463,25.51542,-136.7422,-32.17719,25.19017,-137.0211,LR
-0.3730469,-0.8703613,0.4753418,0.1892367,0.8887863,-0.3208168,-55.50637,20.82374,-63.64595,-55.22977,20.61465,-63.34438,-0.2001953,-0.2631836,-0.340332,-0.06038928,-0.123374,0.3964274,-32.07996,25.50238,-136.7181,-33.68528,24.95395,-135.8248,LR
-0.3696289,-0.8706055,0.484375,0.1892367,0.7513816,-0.1070763,-55.49373,20.82541,-63.63224,-55.01351,20.35532,-62.88207,-0.2021484,-0.2438965,-0.3381348,0.1228168,0.2735725,0.7323053,-32.07191,25.51343,-136.711,-31.76166,25.86706,-136.8676,LR
-0.3686523,-0.869873,0.463623,0.2503054,0.4918396,-0.03074045,-55.49538,20.82577,-63.63725,-55.7477,20.50562,-63.86153,-0.2016602,-0.2490234,-0.3337402,0.3518243,0.04456491,0.4880307,-32.07657,25.52062,-136.6929,-32.56344,25.84023,-136.165,LR
-0.3757324,-0.871582,0.4775391,0.128168,0.3239008,-0.168145,-55.48593,20.82821,-63.6328,-55.11727,20.70985,-63.29128,-0.2060547,-0.2526855,-0.3413086,0.07701516,0.1972366,0.5949008,-32.08131,25.53058,-136.6771,-32.36639,25.88338,-136.3098,LR
-0.3710938,-0.8742676,0.470459,0.1892367,0.1406947,-0.2902825,-55.4851,20.82347,-63.63711,-55.57423,20.49476,-63.64884,-0.2043457,-0.2519531,-0.3425293,0.0006792545,-0.382916,0.7933741,-32.08528,25.52769,-136.663,-32.28038,25.66762,-136.5568,LR
-0.3691406,-0.8740234,0.4689941,0.1129008,0.1559618,-0.2292137,-55.48718,20.81755,-63.64166,-55.67212,20.41294,-63.6962,-0.2109375,-0.2502441,-0.3466797,-0.1672597,-0.4745191,0.7933741,-32.07924,25.53535,-136.6511,-31.66023,26.25943,-136.6482,LR
-0.3745117,-0.8835449,0.4733887,0.38771,0.2475649,0.07612977,-55.48493,20.81458,-63.64257,-55.65994,20.48698,-63.74298,-0.2023926,-0.2348633,-0.3427734,-0.1367252,-0.3218473,0.5185649,-32.05048,25.53931,-136.6678,-30.54108,25.97007,-137.8707,LR
-0.375,-0.876709,0.473877,0.3266413,0.4613054,0.1524656,-55.47887,20.81748,-63.63896,-55.42198,20.6206,-63.57425,-0.2050781,-0.2478027,-0.3405762,-0.2588627,-0.2302443,0.86971,-32.05175,25.5446,-136.6553,-31.93605,25.9617,-136.6364,LR
-0.378418,-0.875,0.4672852,0.4487787,0.5071069,0.09139694,-55.47321,20.82571,-63.64268,-55.50337,20.88115,-63.88755,-0.2009277,-0.25,-0.3444824,-0.1214581,-0.4745191,0.7933741,-32.05416,25.53214,-136.6514,-32.08291,25.27021,-137.0444,LR
-0.3764648,-0.8771973,0.4716797,0.5251145,0.8277176,0.01506107,-55.46548,20.83549,-63.6437,-55.47272,20.70599,-63.70469,-0.2060547,-0.2365723,-0.3430176,0.0006792545,-0.6577252,0.0,-32.0249,25.53808,-136.6694,-30.59199,26.31276,-137.5536,LR
-0.3757324,-0.8723145,0.4755859,0.0,0.7666489,0.03032825,-55.46032,20.84436,-63.63841,-55.20774,20.71546,-63.40169,-0.2028809,-0.2436523,-0.3483887,0.04648089,-0.4897862,1.144519,-32.00666,25.53034,-136.6731,-31.14714,25.5111,-137.6954,LR
-0.3828125,-0.871582,0.4763184,0.8762596,0.873519,0.09139694,-55.43753,20.86186,-63.63267,-54.96488,21.07747,-63.41831,-0.199707,-0.2468262,-0.3449707,0.06174803,-0.5203207,1.037649,-32.00101,25.51683,-136.6729,-31.76668,25.21144,-137.3746,LR
-0.3811035,-0.8708496,0.4633789,0.6777863,0.7361145,-0.04600763,-55.42819,20.87719,-63.64089,-55.43533,21.12331,-64.01237,-0.2023926,-0.2519531,-0.3439941,0.0922823,0.0,1.08345,-32.0049,25.51433,-136.6593,-32.26322,25.39184,-136.7872,LR
-0.3769531,-0.8701172,0.467041,0.7999237,0.4460382,-0.09180916,-55.41593,20.88405,-63.645,-55.4031,20.89235,-63.77864,-0.2185059,-0.2480469,-0.3359375,0.0006792545,-1.131008,0.9002442,-31.99991,25.53983,-136.6221,-31.75585,27.62103,-135.462,LR
-0.3835449,-0.8688965,0.4672852,0.7846565,-0.07304579,-0.1528779,-55.39952,20.89018,-63.65041,-55.17174,21.24423,-63.80321,-0.2055664,-0.2509766,-0.3415527,0.01594663,-1.482153,0.7781069,-32.00355,25.52472,-136.6077,-32.19362,25.87337,-136.4739,LR
-0.3710938,-0.8652344,0.4714355,0.6930535,-0.1951832,-0.2292137,-55.38658,20.88225,-63.64878,-55.26189,20.63725,-63.40053,-0.2080078,-0.265625,-0.3417969,0.1686182,-1.11574,0.350626,-32.03258,25.51113,-136.5779,-33.57903,25.66545,-135.3728,LR
-0.3718262,-0.8679199,0.4724121,0.5098474,-0.2715191,-0.09180916,-55.37716,20.87303,-63.64555,-55.29052,20.6204,-63.42014,-0.2097168,-0.2456055,-0.3486328,0.01594663,-0.4134504,0.2895572,-32.01408,25.51896,-136.5861,-31.11843,26.18628,-137.1892,LR
-0.3725586,-0.8769531,0.4765625,0.05183208,0.003290057,0.04559542,-55.37696,20.865,-63.64057,-55.40279,20.46941,-63.42737,-0.2089844,-0.2478027,-0.3395996,-0.197794,-0.5966565,0.4727633,-32.01408,25.52787,-136.5736,-31.85877,26.43249,-136.3324,LR
-0.3869629,-0.8725586,0.4736328,0.4335115,0.06435877,0.1524656,-55.36206,20.87459,-63.63755,-54.97185,21.29396,-63.60927,-0.2058105,-0.2438965,-0.3417969,-0.4420686,-0.4287176,0.1674199,-32.00861,25.53367,-136.5791,-31.4376,26.11175,-136.9643,LR
-0.3776855,-0.869873,0.4758301,0.08236647,0.07962596,-0.0002061129,-55.3551,20.87524,-63.63189,-55.07025,20.8528,-63.35447,-0.2041016,-0.2463379,-0.3376465,-0.2130611,-0.1997099,0.0147481,-32.01136,25.54042,-136.5782,-31.97924,26.02775,-136.5454,LR
-0.375,-0.8681641,0.4870605,-0.131374,0.1254275,0.1524656,-55.34406,20.87254,-63.61187,-54.69986,20.64194,-62.75014,-0.2075195,-0.246582,-0.3400879,-0.07565641,0.1056336,-0.04632068,-32.00727,25.55685,-136.5781,-31.75451,26.28968,-136.5397,LR
-0.373291,-0.8662109,0.4787598,-0.1771755,0.1406947,0.0,-55.3391,20.87032,-63.60141,-54.97508,20.66501,-63.0886,-0.2058105,-0.2475586,-0.3439941,-0.1061909,-0.4439847,-0.09212208,-32.00265,25.55723,-136.5858,-31.69809,25.90199,-136.8971,LR
-0.3720703,-0.8730469,0.4799805,-0.1161069,0.3086336,0.1066641,-55.33757,20.86702,-63.59124,-55.17699,20.47846,-63.17144,-0.208252,-0.2460938,-0.3422852,-0.3351984,-0.2607787,0.3811603,-31.9987,25.56803,-136.5828,-31.55915,26.28898,-136.7151,LR
-0.3681641,-0.8693848,0.4750977,0.00603056,0.6445115,0.0,-55.33757,20.86686,-63.58517,-55.34187,20.3855,-63.28782,-0.2067871,-0.2346191,-0.3376465,-0.5642061,-0.001236677,0.3048244,-31.97946,25.59064,-136.5908,-30.64958,26.69955,-137.193,LR
-0.3725586,-0.8730469,0.4733887,-0.1008396,0.8124504,0.2898702,-55.34008,20.87193,-63.57936,-55.39402,20.56286,-63.49385,-0.2045898,-0.2424316,-0.3400879,-0.02985501,0.1514351,0.2895572,-31.96868,25.60302,-136.5946,-31.41816,26.09827,-136.9923,LR
-0.3771973,-0.8742676,0.4814453,0.06709921,0.5681756,0.2288015,-55.33278,20.8769,-63.56796,-55.02456,20.70301,-63.17741,-0.2094727,-0.2456055,-0.3359375,-0.2588627,-0.1539084,0.3964274,-31.9694,25.62308,-136.5797,-31.81465,26.71911,-136.1424,LR
-0.3693848,-0.8691406,0.4790039,0.2655725,0.8429847,0.07612977,-55.3255,20.88008,-63.55758,-55.16357,20.41602,-63.10514,-0.2109375,-0.253418,-0.3413086,0.04648089,-0.2149771,0.5490992,-31.9745,25.63359,-136.5555,-32.27657,26.39078,-135.9894,LR
-0.3723145,-0.8774414,0.4699707,0.4640458,0.0,0.1524656,-55.32161,20.87264,-63.55807,-55.65433,20.50799,-63.75375,-0.2058105,-0.2441406,-0.340332,0.03121376,0.07509923,0.8086412,-31.96542,25.64539,-136.549,-31.54349,26.16845,-136.8248,LR
-0.3847656,-0.8662109,0.4624023,0.3419085,0.6597786,0.2440687,-55.31459,20.89285,-63.56321,-55.22158,21.39804,-63.9942,-0.2060547,-0.2456055,-0.342041,-0.5184045,-0.9630688,0.0,-31.96511,25.64076,-136.5551,-31.59445,26.07436,-136.8538,LR
-0.3684082,-0.8635254,0.4648438,0.4945802,0.5223741,0.01506107,-55.31183,20.89394,-63.56491,-55.51594,20.58928,-63.65855,-0.1921387,-0.2487793,-0.3393555,-0.1061909,-0.3065802,0.7628398,-31.97808,25.61429,-136.5567,-32.53538,24.54278,-137.1917,LR
-0.3769531,-0.8735352,0.458252,0.2655725,0.7971831,-0.3055496,-55.31795,20.90605,-63.58373,-55.81272,20.91365,-64.28165,-0.2043457,-0.2478027,-0.3427734,0.6877022,0.3957099,0.610168,-31.96518,25.62355,-136.5538,-31.83872,25.7864,-136.8618,LR
-0.373291,-0.8757324,0.4758301,0.2961069,0.3086336,-0.4429542,-55.31466,20.90313,-63.58742,-55.37102,20.53313,-63.44249,-0.2062988,-0.2441406,-0.3405762,0.0,0.487313,0.6865039,-31.95615,25.642,-136.5496,-31.51386,26.21148,-136.8171,LR
-0.3811035,-0.8813477,0.4680176,0.3724428,-0.439458,-0.5498245,-55.31518,20.89708,-63.60352,-55.59623,20.90204,-64.01498,-0.2050781,-0.2529297,-0.3422852,0.6877022,0.07509923,0.8849771,-31.95432,25.64481,-136.5342,-32.36974,25.72757,-136.429,LR
-0.3771973,-0.8720703,0.480957,0.8151909,-0.4547252,-0.4734885,-55.29637,20.88733,-63.60144,-54.97373,20.7441,-63.15189,-0.2106934,-0.2646484,-0.3408203,0.4434273,-0.7798626,0.8391757,-31.9776,25.64096,-136.4955,-33.44423,26.02508,-135.2147,LR
-0.3764648,-0.8723145,0.4787598,0.0,0.1406947,-0.595626,-55.29199,20.88612,-63.60329,-55.07744,20.72334,-63.25585,-0.2041016,-0.2536621,-0.3432617,0.03121376,-1.405817,0.8544428,-31.98607,25.61999,-136.4841,-32.42274,25.55685,-136.5144,LR
-0.3693848,-0.8713379,0.4873047,0.4335115,0.6597786,-0.168145,-55.279,20.88354,-63.58865,-54.9398,20.3043,-62.75593,-0.2055664,-0.2463379,-0.3422852,-0.07565641,-1.069939,0.8544428,-31.98093,25.6116,-136.4789,-31.67336,25.98721,-136.852,LR
-0.3759766,-0.8725586,0.4619141,0.1587023,0.3849695,-0.06127481,-55.28476,20.88848,-63.59923,-55.68355,20.84785,-64.07252,-0.2080078,-0.2453613,-0.3376465,0.03121376,-0.1997099,0.5949008,-31.97576,25.62624,-136.4684,-31.74506,26.49,-136.3884,LR
-0.3740234,-0.8691406,0.4763184,-0.05503809,0.09489316,-0.3513512,-55.2825,20.88562,-63.598,-55.1312,20.67556,-63.27931,-0.2062988,-0.246582,-0.3449707,0.8098397,0.3346412,0.2742901,-31.95489,25.6375,-136.4753,-31.52762,25.94344,-137.017,LR
-0.3803711,-0.8691406,0.4753418,0.02129769,0.339168,-0.4887558,-55.27634,20.893,-63.60098,-54.99041,21.00516,-63.38776,-0.2102051,-0.2487793,-0.3417969,0.8098397,0.4109771,0.06054974,-31.93986,25.65955,-136.4725,-31.79858,26.43814,-136.3819,LR
-0.3771973,-0.8713379,0.4760742,-0.1771755,0.5529084,-0.4124198,-55.27583,20.89929,-63.60244,-55.12045,20.80126,-63.37051,-0.2070313,-0.25,-0.3422852,0.4739618,0.6705191,-0.0005190372,-31.93463,25.67622,-136.4735,-32.00368,26.03273,-136.5195,LR
-0.3806152,-0.8662109,0.4799805,-0.4672519,0.7208474,-0.1528779,-55.27137,20.91167,-63.59451,-54.73242,21.02385,-63.10126,-0.208252,-0.2434082,-0.3415527,0.1991527,0.4567786,-0.04632068,-31.9194,25.69753,-136.4814,-31.31921,26.40596,-136.8358,LR
-0.3789063,-0.859375,0.4765625,-0.390916,0.0,-0.01547329,-55.26536,20.91516,-63.58477,-54.68379,21.0861,-63.09615,-0.2058105,-0.2436523,-0.3496094,-0.1672597,0.4567786,-0.1073892,-31.90323,25.70587,-136.5059,-30.98848,25.77903,-137.6263,LR
-0.3798828,-0.861084,0.473877,-1.291679,0.6750459,-0.09180916,-55.27511,20.92942,-63.57991,-54.8036,21.13178,-63.27453,-0.2033691,-0.2446289,-0.3466797,-0.2130611,0.5483816,-0.6570077,-31.89483,25.71199,-136.5346,-31.32633,25.60866,-137.4596,LR
-0.3869629,-0.8657227,0.467041,-2.070305,-0.1951832,-0.04600763,-55.29975,20.93744,-63.58457,-54.98511,21.47406,-63.77888,-0.199707,-0.246582,-0.3540039,-0.07565641,0.0,-1.374565,-31.88293,25.69454,-136.5867,-31.24403,24.83982,-138.1287,LR
-0.3771973,-0.8718262,0.4819336,-2.787863,-1.538695,0.01506107,-55.33338,20.91086,-63.57465,-54.93233,20.73918,-63.09958,-0.2067871,-0.2480469,-0.3432617,-0.381,0.5941832,-1.481435,-31.886,25.70989,-136.6117,-31.7566,26.02516,-136.7475,LR
-0.3771973,-0.8696289,0.4741211,-3.001603,-1.859305,0.3967404,-55.37354,20.88227,-63.56586,-55.13545,20.84802,-63.42691,-0.2124023,-0.253418,-0.3432617,-0.6100078,0.4720459,-1.893649,-31.89965,25.73192,-136.6287,-32.12047,26.46464,-136.0713,LR
-0.3688965,-0.8725586,0.473877,-3.169542,-1.416557,0.6868168,-55.42191,20.85142,-63.55294,-55.4624,20.38112,-63.42481,-0.208252,-0.2539063,-0.3295898,-0.8848166,0.487313,-1.863114,-31.93529,25.75577,-136.6238,-33.07456,26.59003,-135.1048,LR
-0.3666992,-0.8720703,0.4750977,-3.520687,-0.439458,0.7173512,-55.47106,20.8337,-63.53872,-55.46442,20.26674,-63.33416,-0.2143555,-0.2548828,-0.3398438,0.0,0.1667023,-1.817313,-31.94437,25.77861,-136.6296,-32.38919,26.77541,-135.5796,LR
-0.3671875,-0.8691406,0.4758301,-2.91,0.262832,0.7784199,-55.51112,20.82755,-63.52126,-55.33514,20.33327,-63.23759,-0.2038574,-0.2470703,-0.3374023,-0.7016106,0.487313,-1.603572,-31.95735,25.78996,-136.6503,-32.07762,25.98803,-136.4882,LR
-0.3742676,-0.8632813,0.4697266,-2.787863,0.0,0.7631527,-55.54534,20.82796,-63.50903,-55.17302,20.8477,-63.47069,-0.2019043,-0.2490234,-0.3476563,0.0006792545,0.0,-1.649374,-31.95368,25.77964,-136.6864,-31.77453,25.27359,-137.3194,LR
-0.3740234,-0.8798828,0.4587402,-2.604656,0.3849695,0.6868168,-55.5916,20.82974,-63.51678,-56.07151,20.65294,-64.36765,-0.2011719,-0.2512207,-0.3398438,0.1991527,0.6399847,-1.710443,-31.96091,25.78255,-136.7089,-32.46151,25.4551,-136.5584,LR
-0.3789063,-0.8762207,0.467041,-2.436718,-0.4547252,0.5188779,-55.6263,20.82421,-63.51743,-55.53541,20.88725,-63.93055,-0.1982422,-0.265625,-0.3422852,0.1838853,0.3957099,-1.557771,-31.99683,25.76407,-136.7146,-33.88274,24.58682,-135.9217,LR
-0.3752441,-0.8798828,0.4724121,-1.932901,-0.7142672,0.534145,-55.65155,20.80979,-63.51409,-55.56276,20.59316,-63.71675,-0.2070313,-0.251709,-0.34375,0.1838853,-0.0470382,-1.481435,-31.99616,25.76642,-136.7326,-32.09859,25.91641,-136.5258,LR
-0.3737793,-0.8781738,0.4680176,-2.177176,-0.958542,0.2746031,-55.6846,20.79124,-63.51733,-55.70405,20.58712,-63.8779,-0.2043457,-0.2531738,-0.3383789,0.2144198,0.5178473,-1.679908,-32.00585,25.77482,-136.7451,-32.63832,25.8054,-136.1244,LR
-0.3881836,-0.8728027,0.4604492,-2.390916,-1.157015,0.1982672,-55.71393,20.78787,-63.52935,-55.39379,21.47326,-64.26463,-0.2089844,-0.2521973,-0.3383789,-0.1214581,-0.1997099,-1.679908,-32.01511,25.78327,-136.7535,-32.37962,26.34444,-135.9331,LR
-0.3701172,-0.8757324,0.4645996,-2.604656,-1.523427,0.1677328,-55.75497,20.75918,-63.53543,-55.85123,20.47309,-63.9564,-0.2111816,-0.2541504,-0.3369141,-0.1672597,-0.4287176,-2.015786,-32.02881,25.79339,-136.7572,-32.58528,26.58352,-135.5559,LR
-0.3693848,-0.8762207,0.4692383,-2.390916,-1.18755,0.0,-55.78715,20.73544,-63.53942,-55.72376,20.38663,-63.73512,-0.2099609,-0.2485352,-0.3457031,-0.381,-0.3218473,-1.481435,-32.02523,25.79778,-136.7786,-31.56966,26.24938,-136.7372,LR
-0.3718262,-0.8789063,0.467041,-2.31458,-0.5157939,0.2593359,-55.82172,20.72285,-63.54328,-55.81457,20.48496,-63.92308,-0.2062988,-0.2504883,-0.3325195,-0.5794735,-0.1081069,-1.527236,-32.04516,25.80755,-136.778,-32.624,26.36035,-135.6989,LR
-0.3725586,-0.8776855,0.4655762,-2.482519,-0.1341145,0.4272748,-55.85551,20.71766,-63.54604,-55.80827,20.55536,-63.97423,-0.2050781,-0.2521973,-0.3376465,-0.5031376,0.3804427,-1.221893,-32.06273,25.81596,-136.7822,-32.55408,25.94834,-136.0885,LR
-0.3764648,-0.8674316,0.4580078,-2.406183,0.1559618,0.3051374,-55.88673,20.72552,-63.55376,-55.64819,20.99613,-64.1565,-0.2006836,-0.2429199,-0.3427734,0.32129,1.58655,-1.466168,-32.04574,25.83362,-136.8163,-31.44918,25.53276,-137.4093,LR
-0.3776855,-0.8754883,0.4621582,-2.680992,0.09489316,-0.01547329,-55.92273,20.73005,-63.56572,-55.71617,20.88217,-64.14024,-0.2019043,-0.2524414,-0.3430176,1.680069,3.540748,-2.260061,-32.02945,25.87281,-136.8449,-32.3841,25.36418,-136.6992,LR
-0.3825684,-0.8823242,0.4750977,-3.062672,-0.2257175,-0.3818855,-55.95315,20.73025,-63.57384,-55.34258,20.8951,-63.70962,-0.1982422,-0.2580566,-0.3481445,1.389992,1.952962,-2.015786,-32.02416,25.8757,-136.8763,-32.78667,24.58208,-136.933,LR
-0.3662109,-0.8894043,0.4509277,-3.215343,-0.3783893,-0.6872291,-56.01835,20.71339,-63.61011,-56.85003,20.16551,-64.88215,-0.2045898,-0.2490234,-0.345459,0.6877022,-0.123374,-1.084488,-32.00975,25.86959,-136.8945,-31.80881,25.66049,-136.9874,LR
-0.3615723,-0.8845215,0.4672852,-2.284046,-0.3631221,-0.427687,-56.05672,20.69122,-63.62301,-56.25806,19.87187,-63.94079,-0.203125,-0.253418,-0.328125,0.2754886,0.4415114,-0.5654044,-32.03134,25.88073,-136.8708,-33.29202,26.10205,-135.2937,LR
-0.3686523,-0.8725586,0.4541016,-2.024504,0.0,0.06086259,-56.08864,20.6883,-63.6374,-56.16478,20.545,-64.38719,-0.2060547,-0.2509766,-0.3405762,-0.1672597,0.0,-0.4585342,-32.03764,25.88248,-136.867,-32.23149,25.96866,-136.3646,LR
-0.3723145,-0.878418,0.4570313,-1.703893,-0.5615954,-0.06127481,-56.11295,20.67895,-63.65357,-56.13528,20.60622,-64.40387,-0.2106934,-0.248291,-0.3413086,0.1838853,0.2583054,-0.5654044,-32.02935,25.89919,-136.8649,-31.75839,26.52814,-136.346,LR
-0.3764648,-0.8664551,0.4587402,-1.200076,-0.8364046,0.2746031,-56.12018,20.6732,-63.65845,-55.59263,21.00632,-64.09924,-0.206543,-0.2434082,-0.3432617,-0.02985501,-0.7951298,-0.5959387,-32.01485,25.89239,-136.8779,-31.28259,26.14315,-137.0775,LR
-0.3713379,-0.8764648,0.4667969,-1.50542,-0.2409847,0.0,-56.13516,20.66626,-63.66282,-55.76257,20.50317,-63.877,-0.2084961,-0.2509766,-0.3461914,0.3670917,0.2430381,-0.5043359,-32.00636,25.89775,-136.8811,-31.84164,25.99393,-136.6958,LR
-0.3757324,-0.8666992,0.4638672,-1.368015,-0.2562519,0.2135344,-56.14008,20.66778,-63.66356,-55.44244,20.91787,-63.84654,-0.1994629,-0.2458496,-0.3422852,0.3823588,0.05983204,-0.4432673,-31.99706,25.88724,-136.8947,-31.82283,25.32833,-137.2336,LR
-0.3737793,-0.8840332,0.4743652,-1.429084,-0.05777865,0.06086259,-56.1515,20.66224,-63.66339,-55.66087,20.43356,-63.7,-0.199707,-0.2512207,-0.3435059,0.4739618,0.5483816,-0.6570077,-31.99622,25.88035,-136.9054,-32.30337,25.13934,-136.9462,LR
-0.3881836,-0.8759766,0.458252,-1.459618,-0.7906031,0.1982672,-56.16124,20.66614,-63.676,-55.56556,21.43795,-64.43936,-0.2038574,-0.253418,-0.3432617,0.01594663,-0.07757253,-0.7028093,-32.00418,25.87235,-136.9086,-32.40587,25.53775,-136.5446,LR
-0.3823242,-0.8754883,0.4567871,-1.337481,-0.607397,0.4120076,-56.17305,20.66718,-63.68533,-55.76904,21.16482,-64.44534,-0.1877441,-0.2529297,-0.3486328,-0.197794,-1.253145,-0.3821983,-32.01838,25.80752,-136.934,-32.56876,23.55172,-137.9018,LR
-0.3803711,-0.8818359,0.4616699,-1.230611,-0.7295343,0.7478855,-56.18467,20.66139,-63.68714,-55.84951,20.91376,-64.32552,-0.2019043,-0.2561035,-0.3444824,-0.9916873,-1.665359,-0.4738016,-32.0461,25.7707,-136.9337,-32.67592,25.19057,-136.5685,LR
-0.3796387,-0.8811035,0.4560547,-1.032137,0.0,0.9768932,-56.19698,20.66695,-63.69056,-56.04123,20.93929,-64.57598,-0.2060547,-0.2502441,-0.3374023,-1.159626,-2.382916,-0.8096795,-32.06775,25.74517,-136.9291,-32.33276,26.12885,-136.1466,LR
-0.373291,-0.8710938,0.4665527,-1.154275,-0.5005267,0.0,-56.19992,20.66063,-63.69253,-55.55259,20.6946,-63.78916,-0.2116699,-0.2475586,-0.3569336,-1.816114,-2.550855,-0.8860154,-32.06946,25.71236,-136.9559,-30.81861,25.97955,-137.6185,LR
-0.3725586,-0.8691406,0.4682617,-1.520687,-0.1188473,0.0,-56.20734,20.65917,-63.6918,-55.45325,20.67489,-63.65594,-0.2067871,-0.251709,-0.3337402,-1.800848,-2.230244,-0.6722746,-32.10783,25.69175,-136.9405,-32.66455,26.32084,-135.6934,LR
-0.3723145,-0.8754883,0.4682617,-1.841298,0.3697023,0.0,-56.22335,20.66254,-63.69384,-55.65451,20.55585,-63.79362,-0.2106934,-0.2355957,-0.3337402,-1.617641,-1.329481,-1.267694,-32.10614,25.70402,-136.9515,-30.83402,27.28238,-136.5581,LR
-0.3747559,-0.8759766,0.4619141,-1.71916,-0.07304579,1.419641,-56.2406,20.66277,-63.6818,-55.82222,20.72792,-64.13543,-0.2089844,-0.2514648,-0.3398438,-1.403901,-1.146275,-1.450901,-32.12774,25.7003,-136.9545,-32.22334,26.30457,-136.1061,LR
-0.3701172,-0.8806152,0.4550781,-1.856565,0.4918396,1.175366,-56.26791,20.66576,-63.68257,-56.33206,20.47482,-64.52662,-0.2102051,-0.2548828,-0.3540039,-0.8084807,-0.8409313,-1.481435,-32.13863,25.68191,-136.9883,-31.76097,25.72865,-136.9769,LR
-0.3591309,-0.8847656,0.4584961,-1.826031,0.0,1.083763,-56.3166,20.64882,-63.67152,-56.6448,19.81861,-64.35136,-0.2055664,-0.2561035,-0.3449707,-0.3351984,-0.810397,-1.191359,-32.15134,25.66774,-136.9943,-32.52761,25.56914,-136.4097,LR
-0.3669434,-0.8881836,0.4621582,-1.764962,1.026191,0.9921603,-56.34421,20.65347,-63.66983,-56.3996,20.12752,-64.31641,-0.2097168,-0.253418,-0.3352051,0.01594663,0.6857863,-0.3669312,-32.1612,25.69492,-136.9706,-32.65624,26.52226,-135.5404,LR
-0.371582,-0.8886719,0.465332,-1.993969,1.911687,0.6562824,-56.37012,20.67502,-63.67109,-56.1744,20.32575,-64.215,-0.2070313,-0.2529297,-0.3344727,0.2907557,1.052198,0.0147481,-32.1688,25.72097,-136.9442,-32.74078,26.27593,-135.6598,LR
-0.3654785,-0.8857422,0.463623,-1.749695,2.308634,0.5646794,-56.39305,20.69482,-63.67352,-56.31612,20.08103,-64.17966,-0.2072754,-0.2519531,-0.3408203,0.5655649,1.479679,-0.01578617,-32.16266,25.74952,-136.9305,-32.27729,26.06065,-136.2507,LR
-0.3754883,-0.8840332,0.4575195,-1.337481,2.049092,0.4730763,-56.40879,20.72439,-63.68368,-56.19705,20.66749,-64.52926,-0.204834,-0.2526855,-0.3398438,0.7945726,1.265939,0.2132213,-32.15751,25.76938,-136.9139,-32.48928,25.81216,-136.2544,LR
-0.3752441,-0.8786621,0.4526367,-1.184809,2.415504,0.2746031,-56.42226,20.7612,-63.69898,-56.21173,20.78924,-64.65076,-0.2067871,-0.2497559,-0.3457031,0.8861756,1.189603,0.6712368,-32.13732,25.78882,-136.9024,-31.79908,25.86711,-136.834,LR
-0.3747559,-0.8791504,0.456543,-1.276412,2.217031,-0.04600763,-56.43468,20.793,-63.715,-56.10491,20.72176,-64.46577,-0.2038574,-0.2507324,-0.3500977,0.0,1.678153,0.8086412,-32.12964,25.80273,-136.8991,-31.75343,25.33299,-137.2923,LR
-0.3762207,-0.8840332,0.4470215,-1.306947,1.881153,-0.2902825,-56.4547,20.81886,-63.74565,-56.53876,20.79578,-65.04839,-0.2023926,-0.248291,-0.3356934,1.084649,1.891893,0.8239083,-32.11812,25.8317,-136.8758,-32.35093,25.86076,-136.3416,LR
-0.3815918,-0.8776855,0.4597168,-1.368015,1.728481,-0.4734885,-56.46084,20.84916,-63.76455,-55.75626,21.06357,-64.3428,-0.2016602,-0.2495117,-0.3442383,1.878542,2.533115,0.5490992,-32.08858,25.85982,-136.8706,-32.02226,25.37603,-137.017,LR
-0.3813477,-0.8776855,0.447998,-1.215344,1.606344,-0.6414275,-56.47279,20.87892,-63.79695,-56.16542,21.15612,-64.91331,-0.2006836,-0.2653809,-0.3432617,1.496863,1.968229,0.7170382,-32.10067,25.86607,-136.8412,-33.72,24.82186,-135.8937,LR
-0.3813477,-0.8764648,0.4538574,-1.276412,1.316267,-0.946771,-56.4794,20.9019,-63.82601,-55.92738,21.12498,-64.60027,-0.1960449,-0.2514648,-0.3305664,1.008313,0.8995267,0.5643663,-32.10777,25.86732,-136.8167,-33.19664,25.26772,-136.0332,LR
-0.3740234,-0.8725586,0.4519043,-0.9710688,1.133061,-0.8246336,-56.48583,20.91729,-63.8525,-56.08757,20.83844,-64.54471,-0.1972656,-0.2514648,-0.3422852,0.9472442,0.8995267,0.6559694,-32.10124,25.86145,-136.81,-32.47766,24.9126,-136.9624,LR
-0.3723145,-0.876709,0.4423828,-1.429084,1.117794,-0.504023,-56.50901,20.93065,-63.88462,-56.59446,20.7637,-65.08754,-0.1994629,-0.2512207,-0.3461914,0.0,1.571282,-0.01578617,-32.10243,25.86579,-136.8177,-32.16051,25.00056,-137.1822,LR
-0.3803711,-0.8835449,0.4423828,-1.322214,0.262832,-0.1986794,-56.52822,20.93672,-63.91571,-56.5623,21.05419,-65.30302,-0.1977539,-0.25,-0.3466797,0.0,1.265939,0.2284887,-32.10163,25.86366,-136.826,-32.0624,24.82857,-137.4027,LR
-0.3874512,-0.885498,0.4494629,-1.093206,0.04909158,-0.4734885,-56.53717,20.94499,-63.94558,-56.17228,21.31412,-65.06081,-0.2050781,-0.255127,-0.3395996,0.0,0.7773893,0.1368854,-32.11449,25.87325,-136.8085,-32.74485,25.7719,-136.0537,LR
-0.3815918,-0.8833008,0.4528809,-0.3603816,-0.08831299,-0.4734885,-56.53492,20.94535,-63.96952,-56.16005,21.02794,-64.79498,-0.201416,-0.2529297,-0.3469238,0.5960991,-0.2302443,0.4880307,-32.10807,25.85506,-136.8055,-32.23164,25.13285,-137.0161,LR
-0.3830566,-0.885498,0.4536133,-0.07030535,0.003290057,-0.2292137,-56.52843,20.94764,-63.98988,-56.15866,21.05727,-64.81882,-0.1999512,-0.2512207,-0.3422852,0.1380839,-0.5813893,0.7323053,-32.11116,25.83376,-136.7952,-32.36416,25.21739,-136.8309,LR
-0.3847656,-0.8745117,0.442627,0.1587023,0.07962596,0.0,-56.51858,20.95852,-64.01293,-56.15256,21.43293,-65.14251,-0.2043457,-0.2492676,-0.348877,-0.197794,-1.069939,0.8239083,-32.10474,25.81203,-136.7934,-31.65446,25.48146,-137.2656,LR
-0.3791504,-0.8791504,0.454834,-0.3603816,-0.2104504,0.09139694,-56.51392,20.95564,-64.02321,-56.03832,20.95898,-64.58946,-0.2038574,-0.2363281,-0.3398438,0.1075497,-1.314214,0.182687,-32.07726,25.80086,-136.8035,-30.80933,26.21946,-137.4364,LR
-0.3852539,-0.880127,0.4577637,-0.2077099,-0.5463283,0.1219313,-56.50255,20.95296,-64.03143,-55.7924,21.22317,-64.52388,-0.2060547,-0.2512207,-0.3371582,0.06174803,-1.207344,-0.0005190372,-32.08375,25.78926,-136.7886,-32.44736,26.10802,-136.0593,LR
-0.3793945,-0.8818359,0.4499512,-0.3451145,-0.7142672,0.2746031,-56.50317,20.94277,-64.0445,-56.28008,20.96826,-64.88725,-0.2070313,-0.253418,-0.3415527,0.1380839,-1.054672,0.1674199,-32.08808,25.77813,-136.7751,-32.395,25.95637,-136.2265,LR
-0.3764648,-0.880127,0.4621582,-0.2535114,-0.3020534,0.3662061,-56.49441,20.9346,-64.04317,-55.89138,20.74184,-64.22912,-0.204834,-0.25,-0.3378906,0.0006792545,-0.810397,0.03001523,-32.09274,25.77028,-136.7646,-32.32172,25.98123,-136.2732,LR
-0.378418,-0.878418,0.4523926,-0.3298473,-0.2104504,0.6104809,-56.4918,20.93194,-64.04707,-56.12142,20.95624,-64.68652,-0.2050781,-0.25,-0.34375,-0.4573359,0.0,-0.04632068,-32.09736,25.77,-136.765,-31.9876,25.75659,-136.7513,LR
-0.3830566,-0.8735352,0.4543457,-0.6657251,-0.4547252,0.534145,-56.48719,20.93178,-64.04887,-55.77216,21.25786,-64.52981,-0.2060547,-0.2526855,-0.3479004,-0.640542,-1.00887,-0.4738016,-32.10488,25.75187,-136.7738,-32.00245,25.60452,-136.857,LR
-0.3840332,-0.8818359,0.4511719,-0.9863358,-0.7600687,0.534145,-56.49402,20.92579,-64.05744,-56.1038,21.19114,-64.86981,-0.2080078,-0.2480469,-0.3415527,-0.6710763,-1.11574,-0.4432673,-32.10818,25.74617,-136.7752,-31.80973,26.23265,-136.5355,LR
-0.3759766,-0.8706055,0.4526367,-0.8489313,-0.9280076,0.7173512,-56.49472,20.91385,-64.05614,-55.94623,20.96505,-64.4847,-0.2089844,-0.2514648,-0.3430176,-0.7168779,-1.314214,0.0,-32.11753,25.73528,-136.7671,-32.04882,26.16765,-136.3721,LR
-0.3779297,-0.8737793,0.4519043,-0.8489313,-0.9432748,0.6868168,-56.49754,20.90202,-64.05707,-56.01187,21.01596,-64.60701,-0.2072754,-0.2490234,-0.3308105,-0.8390155,-1.451618,-0.6722746,-32.13736,25.7325,-136.7529,-32.53362,26.59204,-135.5959,LR
-0.3774414,-0.8720703,0.4558105,-0.8183969,-0.8058702,0.7631527,-56.49559,20.89264,-64.05294,-55.83867,20.98561,-64.37408,-0.2053223,-0.2468262,-0.3405762,0.0,-1.253145,-0.5959387,-32.13115,25.71982,-136.7604,-31.82644,26.01932,-136.6894,LR
-0.3789063,-0.8791504,0.4550781,-0.9863358,0.0,0.0,-56.50092,20.89367,-64.06339,-56.03691,20.94449,-64.5753,-0.2092285,-0.2475586,-0.3410645,0.0,-1.818031,-0.4127328,-32.12342,25.70675,-136.7604,-31.74509,26.4027,-136.4581,LR
-0.3806152,-0.8820801,0.454834,-0.9099999,0.0,0.8547558,-56.50596,20.89545,-64.06285,-56.08456,20.98253,-64.66511,-0.2106934,-0.2497559,-0.3330078,0.0,-1.98597,-0.5654044,-32.12828,25.7023,-136.7438,-32.36637,26.84663,-135.5429,LR
-0.3808594,-0.8764648,0.4553223,-1.032137,0.0,0.8242214,-56.50783,20.89929,-64.06077,-55.89112,21.08717,-64.52412,-0.2092285,-0.2519531,-0.3288574,-0.9306183,-1.146275,-0.5196033,-32.15697,25.70731,-136.719,-32.87896,26.79568,-135.1184,LR
-0.3684082,-0.8842773,0.4545898,-1.200076,0.0,0.9158244,-56.52546,20.88792,-64.05836,-56.50724,20.33101,-64.61362,-0.208252,-0.2485352,-0.3325195,-0.8390155,-1.146275,0.0,-32.17321,25.70913,-136.699,-32.35236,26.64045,-135.7213,LR
-0.3720703,-0.8825684,0.447998,-1.39855,-0.347855,0.8700229,-56.54713,20.87709,-64.06305,-56.58147,20.60219,-64.93258,-0.2114258,-0.251709,-0.3322754,-0.640542,-1.482153,-0.5196033,-32.19021,25.71249,-136.6783,-32.58343,26.89404,-135.308,LR
-0.3701172,-0.8818359,0.4365234,-1.673359,0.0,0.793687,-56.57948,20.87182,-64.08022,-57.01647,20.61372,-65.46599,-0.2062988,-0.2475586,-0.342041,0.5502977,0.07509923,-0.5654044,-32.1741,25.72014,-136.6872,-31.78923,26.03989,-136.7066,LR
-0.3847656,-0.8774414,0.4472656,-2.329847,1.026191,0.3509389,-56.6038,20.89627,-64.09297,-56.08307,21.33961,-64.97553,-0.2041016,-0.2497559,-0.3449707,1.573198,1.189603,-0.7944121,-32.14603,25.73533,-136.7036,-31.92709,25.60536,-136.9241,LR
-0.3937988,-0.8896484,0.4382324,-6.726794,1.316267,-0.4887558,-56.70031,20.93083,-64.13333,-56.48532,21.65724,-65.75153,-0.1987305,-0.2561035,-0.3518066,3.237321,2.181969,-1.206626,-32.10288,25.74362,-136.7341,-32.36778,24.54582,-137.3416,LR
-0.3959961,-0.9042969,0.4482422,-3.337481,1.728481,-1.786466,-56.74575,20.96608,-64.18851,-56.51906,21.42254,-65.5794,-0.2016602,-0.265625,-0.3452148,4.382359,2.777389,-1.634107,-32.07269,25.7637,-136.7416,-33.59985,24.84269,-135.9887,LR
-0.4018555,-0.9052734,0.4499512,-3.39855,1.117794,-1.984939,-56.78387,20.99566,-64.24333,-56.32036,21.67838,-65.56837,-0.1884766,-0.2612305,-0.3342285,7.496862,0.2735725,-1.282962,-32.00598,25.73157,-136.7468,-34.24722,23.95582,-136.0564,LR
-0.3818359,-0.887207,0.4418945,-3.154274,-1.218084,-1.679595,-56.82746,20.97921,-64.29147,-56.64475,21.06866,-65.41581,-0.2080078,-0.2548828,-0.3310547,2.199152,-1.161542,-1.420366,-31.99554,25.72919,-136.7363,-33.10071,26.46672,-135.1795,LR
-0.3706055,-0.888916,0.4587402,-2.787863,-2.897473,-1.755931,-56.86066,20.92362,-64.32205,-56.4383,20.32925,-64.53027,-0.2141113,-0.2580566,-0.3395996,2.397626,-2.550855,-2.412733,-31.97739,25.71274,-136.742,-32.7326,26.65635,-135.3636,LR
-0.3540039,-0.8769531,0.4523926,-1.993969,-1.798237,-2.183412,-56.88627,20.87519,-64.35427,-56.7737,19.73554,-64.43525,-0.2202148,-0.2575684,-0.3273926,3.481595,-0.993603,-3.053954,-31.94939,25.74114,-136.7323,-33.13622,27.86286,-134.0127,LR
-0.3532715,-0.8867188,0.4501953,-1.703893,0.2170305,-2.931504,-56.91686,20.85202,-64.40526,-57.16329,19.55709,-64.74883,-0.2128906,-0.2624512,-0.3369141,4.244954,0.7010534,-2.977618,-31.91532,25.76653,-136.7397,-33.36622,26.49567,-134.9129,LR
-0.3728027,-0.8764648,0.4511719,-1.261145,2.094893,-2.794099,-56.92239,20.88009,-64.45129,-56.26662,20.71579,-64.6534,-0.2141113,-0.2526855,-0.3408203,3.786939,2.120901,-1.863114,-31.86376,25.81794,-136.7487,-32.12053,26.77795,-135.8201,LR
-0.3581543,-0.8798828,0.4526367,-0.8031298,3.178863,-2.320817,-56.93046,20.90718,-64.48685,-56.73548,19.89831,-64.52369,-0.2072754,-0.2495117,-0.3366699,3.420527,2.28884,-0.687542,-31.82467,25.85935,-136.7444,-32.25601,26.31847,-136.0655,LR
-0.3659668,-0.8779297,0.4458008,0.0,4.262832,-1.893336,-56.92578,20.95531,-64.52085,-56.69619,20.38904,-64.88774,-0.2033691,-0.2653809,-0.3354492,3.267855,2.731588,0.091084,-31.82171,25.89091,-136.7101,-34.07856,25.42927,-135.0945,LR
-0.3671875,-0.8815918,0.4421387,0.0,4.00329,-1.557458,-56.92524,21.00346,-64.55647,-56.89879,20.42062,-65.15723,-0.2016602,-0.2553711,-0.3408203,3.359458,2.059832,1.113985,-31.79222,25.91013,-136.6861,-32.81625,25.33827,-136.3265,LR
-0.3725586,-0.8825684,0.4421387,-0.131374,4.033824,-1.32845,-56.92408,21.05624,-64.58938,-56.77098,20.67742,-65.22517,-0.2001953,-0.2561035,-0.3305664,3.328924,1.31174,1.587267,-31.78134,25.92158,-136.6402,-33.53199,25.58256,-135.4808,LR
-0.3666992,-0.8747559,0.4589844,0.2655725,4.201764,-1.191046,-56.90425,21.10007,-64.59749,-56.11488,20.36524,-64.17757,-0.2036133,-0.253418,-0.3376465,2.336557,0.01403052,2.014748,-31.76596,25.91831,-136.5995,-32.72974,25.7482,-136.086,LR
-0.3613281,-0.8654785,0.4558105,0.7541222,4.201764,-0.9773054,-56.87701,21.14531,-64.6015,-56.09651,20.27383,-64.0801,-0.2053223,-0.2531738,-0.3378906,1.710603,-0.123374,1.46513,-31.75982,25.91692,-136.5679,-32.63251,25.93346,-136.029,LR
-0.3815918,-0.8793945,0.4411621,-0.131374,2.736115,-0.5650916,-56.87015,21.18392,-64.62298,-56.44389,21.19909,-65.2878,-0.2043457,-0.2590332,-0.3395996,1.603733,0.1819695,1.251389,-31.7644,25.91262,-136.5347,-33.16718,25.56804,-135.8272,LR
-0.3759766,-0.8830566,0.467041,-0.4214504,2.70558,-0.5345572,-56.85543,21.21251,-64.61941,-55.82457,20.62478,-64.05149,-0.2016602,-0.2519531,-0.338623,1.573198,0.7010534,0.9765801,-31.75778,25.91543,-136.5172,-32.58982,25.53775,-136.3776,LR
-0.3791504,-0.8747559,0.4492188,-0.6199236,2.522374,-0.4429542,-56.84941,21.24704,-64.62895,-56.09884,21.08497,-64.7711,-0.2028809,-0.2575684,-0.3354492,1.649534,1.479679,0.4269619,-31.7661,25.92997,-136.4941,-33.30545,25.62732,-135.6542,LR
-0.3845215,-0.8752441,0.4472656,-0.7725954,2.476573,-0.4582213,-56.8435,21.28339,-64.6412,-56.02369,21.36593,-64.92708,-0.2033691,-0.2558594,-0.3383789,1.115183,1.327008,0.2742901,-31.76458,25.95353,-136.4779,-32.94685,25.61274,-135.9939,LR
-0.3830566,-0.8725586,0.4377441,-0.6962595,1.468939,-0.2750153,-56.84855,21.31933,-64.66113,-56.31107,21.4247,-65.32771,-0.204834,-0.2568359,-0.3349609,1.344191,0.7163206,-0.687542,-31.77334,25.96272,-136.4696,-33.19061,25.88638,-135.5567,LR
-0.3779297,-0.8771973,0.4438477,-0.8183969,1.056725,-0.1070763,-56.85147,21.32904,-64.67101,-56.39355,21.02818,-65.07616,-0.1965332,-0.2573242,-0.3408203,1.695336,0.0,-0.8249464,-31.7767,25.93771,-136.4817,-33.18712,24.71227,-136.4677,LR
-0.3850098,-0.8779297,0.4353027,-1.474885,1.133061,-0.03074045,-56.86608,21.34811,-64.68961,-56.49779,21.44976,-65.578,-0.1940918,-0.2519531,-0.3422852,1.374725,0.0,0.0,-31.77359,25.90985,-136.4941,-32.63189,24.54468,-137.1024,LR
-0.3845215,-0.8781738,0.4282227,-1.673359,0.04909158,0.4730763,-56.88857,21.35153,-64.70747,-56.76044,21.48293,-65.93041,-0.1994629,-0.2565918,-0.3344727,1.069382,0.1514351,-1.084488,-31.79106,25.90016,-136.4956,-33.38037,25.32146,-135.823,LR
-0.3955078,-0.8796387,0.4360352,-1.963435,-0.2409847,0.8089542,-56.9019,21.36003,-64.71567,-56.20806,21.94194,-65.67222,-0.2023926,-0.2595215,-0.3444824,0.5044961,-0.9630688,-1.23716,-31.80793,25.87078,-136.51,-33.00588,25.13887,-136.3073,LR
-0.3818359,-0.8776855,0.4538574,-1.948168,-0.6379313,0.7631527,-56.9115,21.34602,-64.70275,-55.95029,21.12848,-64.63075,-0.2028809,-0.2580566,-0.3413086,0.5960991,-0.7951298,-2.015786,-31.82343,25.84904,-136.5318,-33.02095,25.36793,-136.1165,LR
-0.387207,-0.8835449,0.4306641,-2.528321,-1.721901,1.175366,-56.94556,21.32382,-64.71026,-56.75632,21.50133,-65.94218,-0.1994629,-0.2609863,-0.3356934,0.2907557,-0.8867329,-1.969985,-31.85813,25.82251,-136.5406,-33.75763,25.13091,-135.6222,LR
-0.3803711,-0.8847656,0.4353027,-2.696259,-2.500527,1.557046,-56.98046,21.28492,-64.70824,-56.8408,21.09419,-65.67713,-0.2009277,-0.2548828,-0.3410645,-0.1061909,-1.527954,-2.489069,-31.87806,25.78885,-136.5748,-32.777,25.26276,-136.4207,LR
-0.3874512,-0.8820801,0.4287109,-2.42145,-2.088313,1.450176,-57.01187,21.25966,-64.71299,-56.77119,21.55692,-66.01154,-0.1965332,-0.2590332,-0.3552246,-0.3962674,-1.772229,-2.733344,-31.89713,25.72875,-136.6341,-32.54046,24.08621,-137.5309,LR
-0.378418,-0.8823242,0.4343262,-2.528321,-2.48526,1.969259,-57.04601,21.21886,-64.70294,-56.86014,21.04642,-65.65803,-0.1987305,-0.2568359,-0.3432617,-0.8542824,-2.41345,-3.069221,-31.9294,25.67846,-136.6753,-32.9243,24.87024,-136.5879,LR
-0.3850098,-0.8830566,0.4240723,-2.345115,-2.714267,1.679183,-57.07789,21.18636,-64.71066,-57.0315,21.45609,-66.24037,-0.203125,-0.2617188,-0.3359375,-1.220695,-2.520321,-3.008152,-31.98256,25.63785,-136.694,-33.69039,25.50039,-135.3986,LR
-0.3896484,-0.8864746,0.4338379,-2.116107,-2.897473,1.663916,-57.1007,21.15093,-64.70931,-56.66274,21.54431,-65.86633,-0.2067871,-0.263916,-0.340332,-1.556572,-3.100473,-2.962351,-32.03493,25.59552,-136.7093,-33.53336,25.64803,-135.4284,LR
-0.376709,-0.8881836,0.4428711,-2.222977,-2.714267,1.69445,-57.125,21.10637,-64.69874,-56.79074,20.78504,-65.34282,-0.2099609,-0.2661133,-0.3364258,-1.831382,-3.253145,-2.931817,-32.09842,25.5574,-136.7139,-33.86324,26.08063,-134.7843,LR
-0.3735352,-0.8896484,0.4477539,-1.917634,-2.164649,1.816588,-57.14584,21.06359,-64.68018,-56.75781,20.55837,-65.10638,-0.2053223,-0.2646484,-0.3383789,-1.831382,-2.917267,-2.840214,-32.15874,25.51428,-136.7272,-33.76835,25.54595,-135.2912,LR
-0.3815918,-0.892334,0.440918,-2.131374,-2.027244,1.648649,-57.17099,21.03204,-64.67368,-56.83661,20.97606,-65.56676,-0.2055664,-0.2629395,-0.3457031,-1.632908,-2.138641,-2.870748,-32.20146,25.48121,-136.7522,-33.1745,25.32767,-136.0071,LR
-0.373291,-0.8981934,0.4360352,-1.887099,-1.447092,1.358572,-57.20184,21.00153,-64.67865,-57.41908,20.49952,-65.85405,-0.2028809,-0.2585449,-0.3459473,-0.6252747,-0.8714657,-2.901282,-32.2228,25.46202,-136.7892,-32.80874,25.16208,-136.4694,LR
-0.3771973,-0.8945313,0.4406738,-1.810763,-1.309687,0.9921603,-57.22519,20.97664,-64.6822,-57.03849,20.71971,-65.58548,-0.2011719,-0.2617188,-0.3395996,-0.09092379,-0.6577252,-2.687542,-32.25061,25.44583,-136.8091,-33.54683,25.13635,-135.8126,LR
-0.3789063,-0.892334,0.4291992,-1.261145,-1.721901,0.8852901,-57.24554,20.9506,-64.69793,-57.31573,20.9399,-66.11981,-0.2043457,-0.2646484,-0.338623,-0.06038928,-1.253145,-2.458534,-32.28225,25.42709,-136.8164,-33.78821,25.42988,-135.363,LR
-0.3632813,-0.887207,0.4504395,-1.230611,-1.477626,0.6562824,-57.25644,20.91101,-64.691,-56.8857,20.05742,-64.83384,-0.2099609,-0.2631836,-0.3337402,-0.5031376,-2.031771,-2.198992,-32.31845,25.41446,-136.8073,-33.72248,26.2891,-134.7493,LR
-0.3745117,-0.8847656,0.4492188,-1.093206,-1.202817,0.9310915,-57.25806,20.88867,-64.68231,-56.53413,20.6779,-64.94092,-0.2070313,-0.2563477,-0.3347168,-0.8848166,-1.650092,-1.756244,-32.34578,25.40661,-136.8043,-33.07779,26.15366,-135.4492,LR
-0.3781738,-0.8850098,0.4431152,-1.291679,-1.29442,0.0,-57.26353,20.87137,-64.69422,-56.64536,20.91148,-65.27788,-0.2067871,-0.2519531,-0.3330078,-0.7321453,-1.527954,-1.817313,-32.36425,25.40291,-136.8072,-32.73113,26.34468,-135.6139,LR
-0.373291,-0.8835449,0.4396973,-0.8489313,-1.172282,0.0,-57.268,20.85108,-64.70779,-56.86323,20.71879,-65.37249,-0.2050781,-0.2597656,-0.3149414,-0.3504658,-1.482153,-1.603572,-32.4148,25.40796,-136.7646,-34.65169,26.67209,-133.5792,LR
-0.3713379,-0.887207,0.4382324,-0.6809924,-0.866939,0.7784199,-57.27358,20.83356,-64.71303,-57.07981,20.56931,-65.50384,-0.2121582,-0.2561035,-0.3312988,-0.3351984,-1.466886,-1.267694,-32.4327,25.41562,-136.7458,-33.06359,26.86913,-134.8906,LR
-0.373291,-0.8916016,0.439209,-0.299313,-0.8364046,0.6562824,-57.27486,20.81629,-64.72039,-57.11771,20.58508,-65.56345,-0.2072754,-0.2580566,-0.3322754,-0.3351984,-1.955435,-0.9165497,-32.45663,25.40313,-136.7265,-33.38242,26.22833,-135.1108,LR
-0.3737793,-0.8823242,0.453125,0.2961069,-0.7600687,0.5494123,-57.25195,20.80176,-64.71174,-56.34685,20.64845,-64.69163,-0.2109375,-0.251709,-0.3339844,-0.01458788,-1.39055,-0.5654044,-32.45781,25.41129,-136.7094,-32.50557,26.76532,-135.4823,LR
-0.380127,-0.8798828,0.4645996,0.2808397,-0.3783893,0.3814733,-57.21699,20.7987,-64.69505,-55.69664,20.9085,-64.13943,-0.2106934,-0.2553711,-0.3300781,0.1686182,-0.3981832,-0.06158781,-32.46837,25.43296,-136.6744,-33.10989,26.78729,-134.9142,LR
-0.3730469,-0.8857422,0.4482422,0.6319848,-0.5921298,0.3051374,-57.19614,20.78594,-64.69659,-56.6393,20.59566,-64.99626,-0.2106934,-0.2590332,-0.3327637,0.3518243,-0.5966565,0.1368854,-32.48048,25.44649,-136.637,-33.33225,26.54809,-134.9023,LR
-0.3706055,-0.8896484,0.4521484,0.7235878,-0.607397,0.2746031,-57.17537,20.76875,-64.69595,-56.68941,20.37325,-64.86623,-0.2128906,-0.2573242,-0.3376465,0.840374,-0.2302443,0.5796337,-32.47551,25.46706,-136.6026,-32.80853,26.63287,-135.3134,LR
-0.3708496,-0.8862305,0.4416504,1.471679,0.1406947,0.1371985,-57.15061,20.76595,-64.70636,-56.94653,20.53228,-65.31081,-0.2119141,-0.2514648,-0.3408203,0.672435,-0.09283972,1.08345,-32.45752,25.48796,-136.5751,-32.07036,26.5802,-136.0241,LR
-0.3833008,-0.8786621,0.4467773,2.097634,0.4765725,0.1219313,-57.10035,20.78261,-64.71067,-56.17953,21.24862,-65.01168,-0.2111816,-0.2524414,-0.331543,0.5655649,-0.6271908,1.572,-32.45423,25.50648,-136.5246,-32.70859,26.87511,-135.2095,LR
-0.3796387,-0.8793945,0.4509277,1.807557,0.690313,0.1371985,-57.05509,20.79739,-64.71024,-56.16603,21.01408,-64.79012,-0.1928711,-0.2575684,-0.3342285,0.3518243,-0.8561985,1.480397,-32.47476,25.47589,-136.4956,-33.72203,24.56438,-136.0874,LR
-0.3774414,-0.8754883,0.4318848,2.067099,1.40787,0.0,-57.02102,20.82352,-64.72862,-56.76931,21.13829,-65.62939,-0.2072754,-0.2556152,-0.3349609,0.3365571,-0.6729923,1.831542,-32.47993,25.48036,-136.4489,-32.98053,26.19389,-135.5063,LR
-0.3725586,-0.8730469,0.4455566,2.235038,1.652145,0.3051374,-56.97506,20.84757,-64.72666,-56.36622,20.81161,-64.8549,-0.2045898,-0.2514648,-0.3354492,0.4281602,-0.4745191,2.136886,-32.47684,25.48449,-136.4102,-32.61908,26.01255,-135.9789,LR
-0.3857422,-0.8747559,0.4404297,2.006031,1.881153,0.1219313,-56.93216,20.88638,-64.73576,-56.20578,21.49777,-65.26515,-0.2038574,-0.2502441,-0.326416,0.4586947,-0.1081069,2.259023,-32.48124,25.50051,-136.3552,-33.03383,26.36481,-135.3219,LR
-0.3847656,-0.8862305,0.4438477,1.731221,1.988023,-0.2139466,-56.89733,20.9222,-64.75071,-56.46304,21.21601,-65.32607,-0.1989746,-0.2497559,-0.3320313,0.8709083,-0.1997099,2.518565,-32.47628,25.49956,-136.3159,-32.83094,25.58996,-136.1175,LR
-0.387207,-0.8747559,0.449707,2.097634,1.89642,-0.7177633,-56.84754,20.95954,-64.76198,-55.84698,21.48808,-64.82185,-0.1943359,-0.2561035,-0.329834,0.0,0.05983204,2.06055,-32.50239,25.48957,-136.274,-33.78168,24.95621,-135.734,LR
-0.3903809,-0.8662109,0.4423828,2.341908,1.606344,-1.11471,-56.79097,21.00134,-64.78378,-55.74015,21.86871,-65.03285,-0.199707,-0.2553711,-0.3300781,0.0,0.1361679,1.617802,-32.52238,25.49324,-136.235,-33.50225,25.57264,-135.5159,LR
-0.3886719,-0.878418,0.4511719,1.380076,0.2017633,-1.404786,-56.75218,21.01396,-64.80557,-55.86568,21.48401,-64.84081,-0.2104492,-0.2602539,-0.3261719,0.8556412,-1.085206,1.281924,-32.53616,25.50269,-136.1767,-33.84033,26.7636,-134.2611,LR
-0.371582,-0.8703613,0.4472656,0.8915268,-0.1951832,-1.389519,-56.7291,21.00667,-64.82397,-56.25346,20.79298,-64.70386,-0.2084961,-0.2587891,-0.3439941,0.7335038,-1.298947,0.7170382,-32.53049,25.49168,-136.1631,-32.75555,25.84305,-135.9882,LR
-0.3815918,-0.8669434,0.4465332,0.479313,-0.4089237,-1.236847,-56.70557,21.00833,-64.83965,-55.88161,21.37053,-64.75985,-0.2114258,-0.2585449,-0.3344727,0.0,-0.4287176,0.091084,-32.54309,25.50695,-136.1393,-33.16052,26.57056,-135.0417,LR
-0.3840332,-0.8730469,0.4458008,-0.3298473,-0.7906031,-0.8857023,-56.69674,21.00441,-64.85484,-56.02134,21.39319,-64.94836,-0.2058105,-0.2609863,-0.3364258,0.0,-0.07757253,-0.4890685,-32.56212,25.51162,-136.1307,-33.49474,25.7974,-135.3472,LR
-0.3852539,-0.8806152,0.4462891,-0.8947329,-0.9127405,-0.7330306,-56.69991,20.99725,-64.87041,-56.19771,21.31724,-65.09435,-0.2043457,-0.2648926,-0.3344727,0.4739618,-0.01650381,-0.8860154,-32.58541,25.513,-136.1201,-34.05173,25.59167,-134.9932,LR
-0.387207,-0.8811035,0.4377441,-1.551221,-0.8058702,-0.2597481,-56.71608,20.9959,-64.88741,-56.44431,21.48274,-65.54244,-0.2165527,-0.2563477,-0.3432617,0.0,-0.3371145,-0.9928856,-32.57924,25.53409,-136.1252,-32.27705,26.81521,-135.6489,LR
-0.3818359,-0.8742676,0.4475098,-1.383282,-0.5921298,0.07612977,-56.72338,20.99218,-64.88593,-56.06442,21.24496,-64.86961,-0.2072754,-0.2578125,-0.3300781,-0.7626796,-0.810397,-0.9318166,-32.60853,25.5381,-136.1152,-33.48307,26.3304,-134.9372,LR
-0.3791504,-0.8725586,0.4375,-1.306947,-0.02724427,0.6257481,-56.73685,20.99649,-64.8851,-56.43625,21.22793,-65.30414,-0.2041016,-0.2602539,-0.3352051,-0.8542824,-0.6882596,-1.420366,-32.63992,25.53092,-136.1214,-33.55017,25.68503,-135.3841,LR
-0.3752441,-0.8798828,0.4401855,-2.024504,0.04909158,0.8700229,-56.76548,20.99483,-64.88039,-56.67969,20.87708,-65.28921,-0.208252,-0.2570801,-0.340332,-1.388634,0.0,-1.527236,-32.66343,25.54079,-136.1376,-32.79464,26.02453,-135.8097,LR
-0.373291,-0.8813477,0.4338379,-2.116107,0.03382444,0.0,-56.8013,20.99156,-64.89513,-57.0011,20.80691,-65.61692,-0.2116699,-0.2583008,-0.3381348,-1.861916,-0.9172672,-1.313496,-32.69416,25.54636,-136.14,-32.92289,26.44832,-135.3566,LR
-0.3737793,-0.8747559,0.447998,-2.146641,0.6750459,1.114298,-56.82067,20.99745,-64.87757,-56.29729,20.82281,-64.78197,-0.2072754,-0.2575684,-0.3405762,-2.121458,-0.7340611,-0.6264734,-32.72874,25.54249,-136.1434,-32.86382,25.89269,-135.8505,LR
-0.3779297,-0.8842773,0.4335938,-2.299313,0.9651221,1.434908,-56.85721,21.01156,-64.87354,-56.95784,20.99377,-65.73017,-0.208252,-0.253418,-0.3359375,-2.503138,-0.8714657,0.0,-32.76429,25.54544,-136.1343,-32.66629,26.33046,-135.6842,LR
-0.3852539,-0.8825684,0.4379883,-1.566489,1.209397,1.557046,-56.87386,21.03623,-64.86404,-56.53821,21.35613,-65.54292,-0.2104492,-0.2580566,-0.3356934,-2.136725,-0.07757253,-0.6264734,-32.79986,25.56204,-136.1248,-33.077,26.42848,-135.2317,LR
-0.3779297,-0.8864746,0.4492188,-1.459618,2.232298,1.663916,-56.88614,21.06256,-64.84408,-56.48626,20.82122,-65.00732,-0.2080078,-0.2473145,-0.3317871,-1.648176,0.8689924,-0.5806718,-32.81358,25.5973,-136.1259,-32.27446,26.68651,-135.7548,LR
-0.3830566,-0.8933105,0.4440918,-2.039771,2.446038,1.740252,-56.91269,21.09738,-64.83051,-56.71447,21.00555,-65.44452,-0.2053223,-0.2619629,-0.3339844,-1.358099,1.80029,-0.3669312,-32.86293,25.64221,-136.1137,-33.75038,25.81401,-135.0984,LR
-0.3813477,-0.8942871,0.4440918,-1.902366,1.820084,1.816588,-56.95317,21.13452,-64.80194,-56.79316,20.90322,-65.44955,-0.2060547,-0.2597656,-0.3330078,-0.6252747,1.90716,-0.9928856,-32.88541,25.67568,-136.1075,-33.55789,26.00712,-135.1242,LR
-0.3737793,-0.8776855,0.454834,-1.276412,1.636878,0.9768932,-56.95458,21.14853,-64.78268,-56.14794,20.71228,-64.50893,-0.2080078,-0.2602539,-0.3395996,-0.4420686,1.540748,-0.7333436,-32.8975,25.70336,-136.1071,-33.16502,25.92736,-135.5479,LR
-0.3789063,-0.8845215,0.442627,-1.12374,0.9040535,0.6868168,-56.96453,21.15808,-64.7829,-56.62609,20.96114,-65.29823,-0.2092285,-0.2583008,-0.3359375,-0.6100078,1.021664,-0.7638779,-32.91114,25.72986,-136.1022,-33.13091,26.27748,-135.3025,LR
-0.3894043,-0.8840332,0.4523926,-1.200076,0.690313,0.3051374,-56.96234,21.17329,-64.78086,-55.97255,21.41136,-64.90552,-0.2075195,-0.2590332,-0.340332,-0.5489388,1.067466,-0.09212208,-32.9208,25.74757,-136.0958,-33.01744,25.8828,-135.718,LR
-0.3730469,-0.8852539,0.4406738,-1.200076,0.0,0.2746031,-56.9773,21.1632,-64.78863,-56.88722,20.66872,-65.35779,-0.2075195,-0.2597656,-0.3391113,-0.197794,1.159069,0.259023,-32.92849,25.76786,-136.0814,-33.16002,25.91049,-135.5658,LR
-0.3808594,-0.888916,0.4304199,-1.01687,0.0,0.07612977,-56.99501,21.16169,-64.81187,-57.11522,21.08792,-66.00729,-0.1899414,-0.2575684,-0.3300781,0.580832,1.723954,0.1368854,-32.94282,25.76589,-136.0755,-34.07204,24.40223,-135.8855,LR
-0.3811035,-0.8791504,0.4348145,-0.8183969,0.9803894,-0.168145,-57.0005,21.17756,-64.82996,-56.66832,21.23433,-65.59226,-0.2043457,-0.2553711,-0.3330078,0.0,2.029298,0.350626,-32.94735,25.79967,-136.0591,-33.16919,25.96329,-135.5158,LR
-0.3840332,-0.8845215,0.4343262,-0.7267939,0.8429847,-0.3513512,-57.00632,21.19224,-64.85358,-56.75718,21.29197,-65.75275,-0.2038574,-0.2565918,-0.3320313,0.0,1.830824,0.259023,-32.95576,25.82701,-136.0419,-33.36777,25.91094,-135.3748,LR
-0.3752441,-0.8815918,0.4472656,-0.222977,1.224664,-0.3818855,-56.99897,21.20092,-64.86127,-56.48578,20.78609,-64.9763,-0.2041016,-0.2578125,-0.3405762,0.9625113,1.617084,0.3353589,-32.94242,25.84503,-136.0362,-32.9964,25.53934,-136.0059,LR
-0.380127,-0.8869629,0.4375,-0.558855,1.392603,-0.3513512,-57.00397,21.21786,-64.88145,-56.83806,21.02462,-65.61169,-0.2004395,-0.2600098,-0.3405762,0.9625113,1.479679,0.2437558,-32.93723,25.84982,-136.0332,-33.34296,25.06968,-136.0514,LR
-0.3825684,-0.888916,0.4306641,-0.4061831,1.392603,-0.3818855,-57.01057,21.23605,-64.90926,-57.05543,21.1721,-66.01007,-0.203125,-0.2595215,-0.3427734,0.8556412,0.9453281,0.8849771,-32.92831,25.85157,-136.0229,-33.07805,25.28858,-136.1257,LR
-0.3815918,-0.8881836,0.4299316,-0.03977096,1.071992,-0.427687,-57.01267,21.24888,-64.93741,-57.08821,21.14192,-66.02299,-0.2092285,-0.2614746,-0.3383789,0.7640381,0.6247175,0.8239083,-32.9248,25.86515,-135.9962,-33.31432,26.07122,-135.2976,LR
-0.3803711,-0.8837891,0.4436035,0.1739695,0.6445115,-0.1986794,-57.00041,21.25416,-64.94655,-56.52778,21.03932,-65.24812,-0.206543,-0.2600098,-0.3342285,0.1991527,-0.291313,0.9307787,-32.93328,25.86358,-135.9664,-33.49557,26.00113,-135.1863,LR
-0.3725586,-0.8828125,0.4460449,0.3419085,0.5681756,-0.336084,-56.98823,21.25022,-64.95332,-56.64253,20.63964,-65.03801,-0.2062988,-0.2541504,-0.329834,-0.01458788,-0.0470382,0.9460459,-32.93794,25.87278,-135.9384,-33.15582,26.35579,-135.2174,LR
-0.3771973,-0.8742676,0.4499512,0.4487787,0.690313,-0.3818855,-56.96462,21.25444,-64.95364,-56.11549,20.98777,-64.7067,-0.2055664,-0.2543945,-0.3371582,-0.06038928,0.7773893,0.9155113,-32.93588,25.8858,-135.9236,-32.7907,25.95233,-135.8702,LR
-0.3789063,-0.8725586,0.4418945,0.2655725,0.7361145,-0.2444809,-56.94727,21.2637,-64.95984,-56.292,21.17638,-65.08383,-0.2016602,-0.2509766,-0.3317871,-0.4115343,0.1056336,0.8849771,-32.94079,25.88686,-135.9093,-32.87886,25.86122,-135.8615,LR
-0.3818359,-0.8725586,0.4338379,0.08236647,0.2933664,-0.2750153,-56.93674,21.27069,-64.97491,-56.48149,21.3974,-65.51084,-0.2028809,-0.2568359,-0.3408203,-0.1061909,0.3499084,0.5490992,-32.94203,25.8828,-135.9063,-32.92458,25.42638,-136.1593,LR
-0.3847656,-0.8840332,0.4338379,0.1739695,0.4002366,-0.4582213,-56.93019,21.278,-64.99761,-56.73723,21.34181,-65.77342,-0.1977539,-0.2541504,-0.3381348,0.7793052,0.487313,0.3200917,-32.93201,25.87295,-135.9117,-32.976,25.05633,-136.3981,LR
-0.3806152,-0.8862305,0.4377441,0.2045038,0.2170305,-0.6414275,-56.92464,21.27661,-65.01824,-56.79354,21.05992,-65.58893,-0.1958008,-0.2607422,-0.3391113,1.695336,1.556015,-0.4585342,-32.92163,25.87027,-135.9227,-33.65858,24.59497,-136.1228,LR
-0.3825684,-0.8989258,0.4345703,0.3113741,-0.4241909,-0.855168,-56.92589,21.26414,-65.05083,-57.21553,20.96479,-66.01933,-0.2080078,-0.2592773,-0.3435059,2.183886,1.80029,0.3964274,-32.88806,25.89524,-135.9172,-32.84827,25.79539,-135.9411,LR
-0.388916,-0.8930664,0.4321289,0.6777863,-1.034878,-0.7024961,-56.91614,21.25175,-65.08167,-56.9366,21.40542,-66.0765,-0.2021484,-0.2521973,-0.3444824,1.557931,0.4415114,0.5490992,-32.85278,25.89056,-135.9273,-32.26901,25.33709,-136.8244,LR
-0.3823242,-0.8840332,0.4350586,0.0,-1.18755,-0.7177633,-56.9132,21.23342,-65.10442,-56.76899,21.20791,-65.69145,-0.2016602,-0.2561035,-0.3430176,0.7029693,0.1056336,0.442229,-32.84141,25.87869,-135.9318,-32.76658,25.22436,-136.4598,LR
-0.3830566,-0.8728027,0.4316406,0.7083206,-0.9280076,-0.3513512,-56.89576,21.22551,-65.11988,-56.52713,21.47476,-65.63653,-0.2109375,-0.2600098,-0.3320313,0.01594663,-0.3371145,0.2437558,-32.85364,25.88795,-135.9051,-33.46396,26.57334,-134.761,LR
-0.3803711,-0.8903809,0.4431152,0.1739695,-0.5921298,-0.168145,-56.89025,21.21147,-65.12796,-56.74004,20.92963,-65.40846,-0.2102051,-0.2543945,-0.3383789,-0.5031376,-0.5203207,0.4727633,-32.85522,25.89067,-135.8944,-32.56284,26.40621,-135.7179,LR
-0.3771973,-0.8757324,0.4428711,0.0976336,0.1101603,0.3204046,-56.87911,21.20936,-65.12243,-56.40466,21.0251,-65.08687,-0.2062988,-0.2541504,-0.338623,-0.7779465,-0.1691756,0.4727633,-32.86271,25.88993,-135.8889,-32.65821,25.97795,-135.9706,LR
-0.3796387,-0.8723145,0.4421387,-0.1771755,1.056725,0.5799466,-56.86922,21.22503,-65.11292,-56.25451,21.2158,-65.0733,-0.2070313,-0.2558594,-0.3376465,-1.342832,0.02929771,0.3200917,-32.88113,25.89342,-135.8814,-32.86263,26.04469,-135.7318,LR
-0.378418,-0.8745117,0.4440918,-0.574122,1.78955,0.7173512,-56.86551,21.24703,-65.10107,-56.28973,21.09771,-65.01191,-0.2084961,-0.255127,-0.3417969,-1.587107,0.4567786,0.3353589,-32.89697,25.90329,-135.8799,-32.50646,26.05108,-136.0507,LR
-0.3811035,-0.8862305,0.4389648,-0.9558016,2.11016,1.068496,-56.877,21.27459,-65.094,-56.73737,21.07404,-65.53315,-0.2062988,-0.2583008,-0.333252,-1.953519,0.578916,0.5949008,-32.93548,25.91517,-135.8581,-33.38622,26.07171,-135.2312,LR
-0.3825684,-0.878418,0.4489746,-0.6199236,2.461305,1.297504,-56.87094,21.3092,-65.07088,-56.11846,21.19634,-64.89202,-0.2019043,-0.2553711,-0.3466797,-1.78558,0.5636489,0.7170382,-32.95083,25.90705,-135.8671,-32.47824,25.12234,-136.8008,LR
-0.3925781,-0.8874512,0.4423828,-0.8947329,1.835351,1.816588,-56.87215,21.34018,-65.05441,-56.31789,21.59878,-65.49299,-0.203125,-0.2521973,-0.3339844,-1.984054,-0.3218473,0.5796337,-32.97755,25.90197,-135.859,-32.82871,25.88985,-135.8847,LR
-0.3859863,-0.892334,0.4450684,-0.7267939,1.331534,1.389107,-56.87673,21.35616,-65.04095,-56.56682,21.16053,-65.40276,-0.2045898,-0.2580566,-0.3317871,-1.480237,-1.131008,0.3964274,-33.00988,25.88638,-135.8402,-33.50586,25.95395,-135.214,LR
-0.3879395,-0.885498,0.4294434,-0.6351909,0.781916,0.8394885,-56.8852,21.37081,-65.04876,-56.83319,21.51396,-66.04854,-0.2038574,-0.2565918,-0.3400879,-1.068023,-1.344748,0.07581687,-33.0225,25.86164,-135.8436,-32.90815,25.57149,-136.0614,LR
-0.3791504,-0.8813477,0.4194336,-0.6962595,0.6139771,0.8547558,-56.90342,21.37639,-65.0638,-57.31902,21.2286,-66.38677,-0.2077637,-0.2595215,-0.3408203,-0.5489388,-0.123374,-0.0005190372,-33.03074,25.86006,-135.841,-33.03104,25.87329,-135.713,LR
-0.3818359,-0.8835449,0.4260254,-1.169542,0.4918396,0.7478855,-56.92408,21.38149,-65.07404,-57.07681,21.26968,-66.12518,-0.2011719,-0.2475586,-0.3359375,-0.5489388,0.5025801,0.1674199,-33.02424,25.865,-135.8514,-32.30216,25.73778,-136.4822,LR
-0.3850098,-0.8774414,0.4353027,-1.01687,0.1864962,0.6410153,-56.93021,21.38577,-65.07449,-56.48312,21.45847,-65.56795,-0.2053223,-0.2492676,-0.3376465,-0.01458788,0.7773893,-0.2447939,-33.00883,25.88051,-135.8634,-32.24289,26.06898,-136.2752,LR
-0.3864746,-0.8850098,0.4465332,-1.093206,0.2780993,0.01506107,-56.93338,21.38813,-65.07648,-56.28538,21.29955,-65.18482,-0.2045898,-0.2519531,-0.3366699,0.6419008,0.0,-0.6112061,-32.99123,25.88178,-135.8762,-32.60061,25.94432,-136.0495,LR
-0.3759766,-0.8869629,0.4372559,-1.032137,0.2933664,-0.2750153,-56.94928,21.38102,-65.09074,-56.96948,20.81691,-65.58734,-0.2072754,-0.2607422,-0.34375,0.7793052,1.494947,0.0,-32.98008,25.89933,-135.8767,-33.00661,25.66028,-135.9022,LR
-0.3737793,-0.887207,0.435791,-0.7878625,0.6292443,-0.4124198,-56.96372,21.37693,-65.1079,-57.09227,20.7138,-65.64554,-0.2026367,-0.2580566,-0.3381348,0.7335038,1.601817,0.2742901,-32.97461,25.91277,-135.8726,-33.20985,25.47277,-135.8622,LR
-0.3825684,-0.8825684,0.4318848,-0.222977,0.0,-0.1528779,-56.96403,21.37486,-65.12426,-56.82621,21.27361,-65.82072,-0.2185059,-0.2531738,-0.3381348,0.1228168,1.601817,0.6254351,-32.9566,25.9651,-135.8523,-32.16415,27.35167,-135.3158,LR
-0.3857422,-0.8840332,0.4301758,0.08236647,0.9651221,-0.04600763,-56.96017,21.39001,-65.14172,-56.83173,21.42291,-65.96328,-0.1994629,-0.2531738,-0.3327637,0.1380839,1.662885,0.7933741,-32.95811,25.97867,-135.8427,-33.12719,25.50306,-135.9144,LR
-0.3928223,-0.885498,0.4296875,-0.1619084,0.6139771,-0.09180916,-56.95672,21.40578,-65.16173,-56.67638,21.75745,-66.07971,-0.2055664,-0.2573242,-0.3317871,0.672435,1.464412,0.4116948,-32.95699,26.00234,-135.824,-33.39627,26.08567,-135.211,LR
-0.3818359,-0.8847656,0.435791,-0.1008396,0.5223741,-0.2139466,-56.95467,21.40863,-65.17496,-56.78038,21.16403,-65.66596,-0.2041016,-0.2602539,-0.3378906,0.9625113,1.189603,0.2742901,-32.95163,26.01125,-135.8157,-33.39639,25.57345,-135.6126,LR
-0.3771973,-0.887207,0.4389648,0.4487787,0.3697023,-0.504023,-56.94662,21.40308,-65.18925,-56.88182,20.85987,-65.51885,-0.2045898,-0.2573242,-0.331543,1.283122,1.235405,0.2895572,-32.94389,26.02774,-135.8003,-33.44499,25.98844,-135.2429,LR
-0.378418,-0.8847656,0.4260254,0.3724428,0.4918396,-0.504023,-56.94691,21.40326,-65.21478,-57.21693,21.07455,-66.12015,-0.2019043,-0.2519531,-0.3417969,1.496863,1.510214,0.2437558,-32.91106,26.038,-135.8133,-32.40248,25.43061,-136.631,LR
-0.388916,-0.8757324,0.4421387,0.3571756,0.6597786,-0.7788321,-56.92438,21.4174,-65.22654,-56.08285,21.62544,-65.23034,-0.2111816,-0.2592773,-0.3378906,1.069382,1.617084,0.5490992,-32.89921,26.06691,-135.7954,-33.05221,26.37417,-135.2976,LR
-0.3840332,-0.8857422,0.4438477,0.3266413,0.6292443,-0.8246336,-56.91081,21.42144,-65.23951,-56.47005,21.18771,-65.30942,-0.2102051,-0.2585449,-0.3457031,0.8251068,1.159069,0.6559694,-32.88069,26.08187,-135.791,-32.57948,25.96309,-136.0539,LR
-0.378418,-0.8874512,0.4365234,0.219771,0.7513816,-0.5650916,-56.9081,21.42282,-65.25613,-56.93665,20.93818,-65.65484,-0.2060547,-0.2575684,-0.3464355,0.7029693,1.082733,0.7323053,-32.86499,26.08541,-135.7932,-32.57839,25.51595,-136.405,LR
-0.3840332,-0.8874512,0.4375,0.6319848,1.117794,-0.4124198,-56.896,21.43396,-65.26978,-56.73635,21.21297,-65.65613,-0.2043457,-0.2573242,-0.3457031,0.2907557,1.052198,0.0,-32.85644,26.08654,-135.8064,-32.65081,25.36863,-136.4536,LR
-0.3845215,-0.8740234,0.4448242,0.6930535,1.224664,-0.2444809,-56.86929,21.45148,-65.26842,-56.06999,21.40946,-65.0216,-0.2055664,-0.2502441,-0.3352051,-0.1367252,0.9605954,0.7933741,-32.85064,26.10139,-135.7991,-32.47273,26.17039,-135.987,LR
-0.3911133,-0.8786621,0.4282227,0.3571756,1.239931,-0.0002061129,-56.85847,21.47562,-65.28304,-56.5736,21.80801,-65.99943,-0.2021484,-0.2561035,-0.3330078,-0.3657329,0.5178473,0.8544428,-32.86543,26.10091,-135.7823,-33.32151,25.6965,-135.5854,LR
-0.3901367,-0.8764648,0.4362793,0.03656495,1.239931,0.04559542,-56.84609,21.49886,-65.28763,-56.2663,21.72663,-65.54612,-0.197998,-0.2568359,-0.3347168,-0.4420686,0.838458,0.5185649,-32.88346,26.09403,-135.7771,-33.44183,25.14068,-135.9059,LR
-0.3891602,-0.8781738,0.4294434,-0.1771755,1.346802,0.2746031,-56.84333,21.52283,-65.29607,-56.57765,21.7073,-65.91125,-0.201416,-0.2644043,-0.3405762,-0.8084807,0.838458,0.2895572,-32.91272,26.08527,-135.7713,-33.75212,25.03942,-135.6976,LR
-0.3918457,-0.885498,0.4304199,-0.5893893,1.117794,0.3967404,-56.84876,21.54284,-65.30501,-56.68167,21.702,-66.03484,-0.2043457,-0.2573242,-0.3395996,-0.7016106,0.4720459,-0.06158781,-32.92946,26.08618,-135.776,-32.99372,25.62216,-135.9438,LR
-0.3945313,-0.8869629,0.4238281,-0.7267939,0.7361145,0.5952138,-56.8647,21.56521,-65.31436,-56.8622,21.86781,-66.41402,-0.208252,-0.2524414,-0.3427734,-0.5794735,-0.09283972,-0.1531909,-32.92313,26.08445,-135.7893,-32.1867,26.06784,-136.3268,LR
-0.3830566,-0.8867188,0.4338379,-0.7573281,0.6445115,0.5799466,-56.8759,21.56755,-65.31581,-56.86818,21.20819,-65.81303,-0.1984863,-0.2592773,-0.3337402,-0.5031376,-0.5661222,-0.2142596,-32.9467,26.05759,-135.7892,-33.73178,25.15744,-135.6257,LR
-0.3886719,-0.8857422,0.4265137,-0.4977863,0.2475649,0.5494123,-56.88403,21.57127,-65.32552,-56.91653,21.57186,-66.20505,-0.2099609,-0.2600098,-0.3400879,-0.5184045,-0.7035267,-0.2447939,-32.9558,26.0493,-135.7868,-33.04586,26.12586,-135.5004,LR
-0.3881836,-0.8859863,0.4370117,-0.131374,0.3697023,0.702084,-56.87986,21.57396,-65.32312,-56.58551,21.45171,-65.68713,-0.2023926,-0.2573242,-0.3486328,-0.6100078,-0.5355878,0.1368854,-32.95667,26.02117,-135.805,-32.55123,25.03639,-136.8006,LR
-0.385498,-0.890625,0.4450684,-0.009236574,0.9040535,0.534145,-56.87301,21.57908,-65.31608,-56.53061,21.16571,-65.36339,-0.2128906,-0.2583008,-0.3444824,-0.5794735,-0.642458,0.7628398,-32.95669,26.0175,-135.7942,-32.53163,26.30978,-135.8229,LR
-0.3886719,-0.8879395,0.4465332,0.7541222,0.0,0.7631527,-56.85064,21.57467,-65.30385,-56.30836,21.35843,-65.26514,-0.2116699,-0.2548828,-0.326416,-0.8390155,0.0,1.098718,-32.97451,26.03859,-135.7536,-33.2312,27.07185,-134.5733,LR
-0.3830566,-0.8762207,0.4431152,0.0,1.133061,0.3967404,-56.83839,21.58607,-65.29471,-56.23819,21.31178,-65.1385,-0.217041,-0.2573242,-0.3308105,-1.480237,-1.298947,1.236122,-32.99611,26.04756,-135.7116,-33.03902,27.37803,-134.5001,LR
-0.3759766,-0.8752441,0.442627,0.7235878,1.881153,0.3814733,-56.82038,21.59963,-65.28513,-56.43431,20.97363,-65.07757,-0.21875,-0.2575684,-0.3305664,-1.968786,-1.11574,1.984214,-33.02543,26.06149,-135.6556,-33.01516,27.56434,-134.3694,LR
-0.3703613,-0.8691406,0.4465332,0.2350382,2.965122,0.1219313,-56.80606,21.62638,-65.27169,-56.27752,20.75805,-64.70263,-0.2109375,-0.2541504,-0.3339844,-2.106191,-0.810397,1.999481,-33.04895,26.06283,-135.6214,-32.75671,26.68436,-135.3192,LR
-0.3757324,-0.8718262,0.4396973,-0.299313,3.78955,0.3356718,-56.80285,21.66678,-65.26462,-56.43981,21.04684,-65.14838,-0.2102051,-0.2529297,-0.3344727,-1.984054,0.05983204,1.968947,-33.06974,26.07493,-135.5897,-32.62983,26.62355,-135.4834,LR
-0.3806152,-0.8779297,0.4431152,-0.4519846,4.262832,0.3204046,-56.80067,21.71927,-65.25766,-56.36178,21.15808,-65.15204,-0.2062988,-0.2529297,-0.3393555,-0.8848166,1.296473,2.16742,-33.07119,26.0922,-135.5683,-32.49206,25.98566,-136.1154,LR
-0.3925781,-0.875,0.4331055,-1.032137,4.308634,0.3814733,-56.80492,21.78632,-65.26081,-56.25484,21.905,-65.69574,-0.1955566,-0.2512207,-0.3361816,-0.4420686,2.792656,1.816275,-33.07303,26.10835,-135.5632,-32.86006,24.984,-136.5595,LR
-0.3967285,-0.8762207,0.4206543,-1.413817,4.400237,0.5952138,-56.8198,21.85505,-65.27499,-56.57889,22.20392,-66.37839,-0.1960449,-0.2556152,-0.3391113,-0.4573359,3.601817,2.16742,-33.08084,26.13474,-135.5495,-33.12753,24.78051,-136.4704,LR
-0.4101563,-0.8771973,0.4228516,-1.61229,4.171229,0.442542,-56.82943,21.93607,-65.2912,-56.11612,22.8405,-66.41045,-0.1928711,-0.2580566,-0.3474121,-0.4420686,2.807924,1.526198,-33.08574,26.13374,-135.5593,-33.00086,24.02102,-137.1591,LR
-0.4023438,-0.8891602,0.4213867,-1.810763,-0.699,0.5646794,-56.85476,21.93187,-65.31001,-56.76523,22.23983,-66.6468,-0.1989746,-0.2509766,-0.3417969,-1.006954,1.540748,1.144519,-33.08582,26.13495,-135.5696,-32.39876,25.13736,-136.8613,LR
-0.3913574,-0.8818359,0.4196777,-1.841298,2.064359,0.5646794,-56.88186,21.95831,-65.32588,-56.9467,21.83751,-66.49097,-0.1970215,-0.2507324,-0.3334961,-1.388634,0.7621221,0.5185649,-33.10282,26.129,-135.5763,-32.91532,25.27695,-136.2835,LR
-0.387207,-0.8718262,0.4338379,-2.345115,1.438405,0.6410153,-56.90464,21.97396,-65.32083,-56.29699,21.68389,-65.54476,-0.1977539,-0.2456055,-0.3303223,-1.19016,1.357542,0.07581687,-33.10897,26.13959,-135.5902,-32.53577,25.6607,-136.3308,LR
-0.3911133,-0.878418,0.4208984,-2.574122,0.8277176,0.3051374,-56.94062,21.98419,-65.33713,-56.81167,21.87709,-66.35971,-0.1992188,-0.248291,-0.3376465,-0.5794735,2.39571,-1.02342,-33.10226,26.16048,-135.6272,-32.34752,25.42347,-136.6863,LR
-0.3908691,-0.887207,0.4138184,-3.139008,-0.1493817,-0.1528779,-56.99427,21.97762,-65.37035,-57.3158,21.76513,-66.88525,-0.2175293,-0.2563477,-0.3378906,-0.2283282,2.273573,-1.160824,-33.09403,26.21152,-135.6335,-32.53411,27.15267,-135.1434,LR
-0.3881836,-0.8840332,0.4321289,-2.894733,-0.3783893,-0.6872291,-57.02794,21.96345,-65.39014,-56.69189,21.52907,-65.88827,-0.2009277,-0.2561035,-0.3374023,-0.2741299,2.044565,-0.9318166,-33.0984,26.22488,-135.655,-33.1109,25.37703,-136.0272,LR
-0.385498,-0.8903809,0.4291992,-2.284046,0.01855725,-0.7940992,-57.06215,21.95058,-65.41676,-57.05951,21.30634,-66.13736,-0.2070313,-0.251709,-0.3364258,-0.3351984,1.90716,-0.7944121,-33.09146,26.25304,-135.6718,-32.50523,26.23115,-135.9093,LR
-0.3793945,-0.878418,0.4326172,-2.345115,-0.2257175,-0.5650916,-57.09084,21.93185,-65.43015,-56.77304,21.17961,-65.67097,-0.2038574,-0.2536621,-0.3427734,-0.3962674,1.571282,-0.8249464,-33.08423,26.26055,-135.6994,-32.45813,25.55068,-136.4871,LR
-0.3942871,-0.8937988,0.4279785,-2.360382,0.339168,-0.2750153,-57.12008,21.93179,-65.45216,-56.93342,21.69641,-66.3419,-0.204834,-0.2595215,-0.333252,-0.6100078,1.113267,0.0,-33.10276,26.26912,-135.69,-33.56227,25.87094,-135.2273,LR
-0.3903809,-0.8962402,0.435791,-2.222977,0.9498549,-0.1223435,-57.14761,21.93495,-65.46438,-56.86314,21.39141,-65.97317,-0.2094727,-0.2585449,-0.3432617,-0.6710763,0.746855,-0.6417403,-33.10535,26.27445,-135.7034,-32.73862,25.98662,-135.8906,LR
-0.3845215,-0.8969727,0.4389648,-1.902366,1.545275,0.0,-57.17167,21.94015,-65.47073,-56.95226,21.05926,-65.78194,-0.2075195,-0.2575684,-0.3400879,-0.7932138,0.2430381,0.0,-33.11256,26.27133,-135.7053,-32.88282,25.93976,-135.7962,LR
-0.3771973,-0.888916,0.4350586,-1.551221,2.522374,0.2440687,-57.19237,21.9557,-65.47265,-57.06632,20.86355,-65.74644,-0.2055664,-0.2619629,-0.3400879,-1.617641,0.04456491,0.182687,-33.14037,26.25827,-135.7007,-33.39333,25.58786,-135.6042,LR
-0.3840332,-0.8850098,0.4279785,-1.917634,2.842985,0.5799466,-57.21457,21.98235,-65.47678,-56.98692,21.33813,-66.07694,-0.2062988,-0.2590332,-0.3442383,-1.922985,0.3499084,-0.4127328,-33.16263,26.25001,-135.715,-32.84022,25.58797,-136.1106,LR
-0.3713379,-0.8886719,0.4243164,-1.993969,2.842985,0.5188779,-57.25169,21.9977,-65.48409,-57.60505,20.66039,-66.22375,-0.1989746,-0.2607422,-0.3300781,-1.770313,1.418611,-0.428,-33.20699,26.25217,-135.7106,-34.07946,25.31547,-135.1818,LR
-0.3713379,-0.8903809,0.423584,-2.20771,2.629244,0.1982672,-57.29272,22.00914,-65.49739,-57.68014,20.63684,-66.29477,-0.2016602,-0.2556152,-0.3300781,-0.6863437,2.639985,0.0,-33.22143,26.279,-135.7043,-33.4582,25.78239,-135.3926,LR
-0.3781738,-0.9050293,0.411377,-1.902366,2.644511,-0.2597481,-57.33912,22.02178,-65.53594,-58.30767,20.82701,-67.24668,-0.2041016,-0.2531738,-0.342041,0.01594663,3.342275,-0.2753282,-33.20558,26.31502,-135.7231,-32.44097,25.62346,-136.4459,LR
-0.3708496,-0.8989258,0.4226074,-1.826031,2.552908,-0.6566947,-57.37868,22.02833,-65.56509,-57.97525,20.47298,-66.51051,-0.2011719,-0.2602539,-0.340332,0.4739618,3.785023,0.2437558,-33.20164,26.34741,-135.7246,-33.35688,25.15234,-135.9751,LR
-0.3771973,-0.8972168,0.4194336,-1.780229,2.247565,0.0,-57.41412,22.03779,-65.58751,-57.84179,20.84921,-66.68646,-0.199707,-0.2573242,-0.338623,0.4739618,3.220138,-0.1837251,-33.19525,26.3677,-135.7349,-33.20708,25.15314,-136.112,LR
-0.3798828,-0.8911133,0.4160156,-1.688626,2.644511,-0.8857023,-57.44298,22.05573,-65.62309,-57.69878,21.12055,-66.75867,-0.2004395,-0.2592773,-0.3305664,0.32129,3.265939,-0.04632068,-33.20361,26.39848,-135.7258,-33.84903,25.50595,-135.2477,LR
-0.3837891,-0.892334,0.4147949,-1.978702,2.537641,-0.855168,-57.47629,22.07805,-65.66072,-57.65417,21.30666,-66.87646,-0.1977539,-0.2612305,-0.3466797,0.5655649,3.006397,0.5185649,-33.19533,26.40455,-135.736,-33.20567,24.49244,-136.6173,LR
-0.3847656,-0.9003906,0.4196777,-1.734427,2.446038,-0.6261602,-57.50612,22.09589,-65.6927,-57.69275,21.17258,-66.79947,-0.2038574,-0.2592773,-0.3413086,0.5197632,2.899527,0.7170382,-33.18652,26.42497,-135.7311,-33.11163,25.43632,-135.9805,LR
-0.3896484,-0.8991699,0.4111328,-1.245878,2.736115,-0.4429542,-57.5289,22.1217,-65.72973,-57.79068,21.5094,-67.2401,-0.1967773,-0.2548828,-0.3398438,0.5350306,2.731588,0.8544428,-33.17464,26.43371,-135.7348,-32.98552,24.85444,-136.544,LR
-0.3850098,-0.8967285,0.4077148,-1.230611,3.026191,-0.5192901,-57.55602,22.15071,-65.76927,-57.98012,21.34789,-67.32535,-0.1923828,-0.2585449,-0.3432617,0.6571679,3.067466,0.0,-33.16826,26.42946,-135.7562,-33.30669,24.11689,-136.8067,LR
-0.3891602,-0.8962402,0.4082031,-1.108473,3.010924,-0.04600763,-57.57648,22.18024,-65.80103,-57.81881,21.56182,-67.32594,-0.1894531,-0.2602539,-0.3425293,0.7640381,3.403344,0.9918472,-33.16605,26.42628,-135.7621,-33.61901,23.7687,-136.7777,LR
-0.4013672,-0.8935547,0.4064941,-1.108473,2.186496,-0.06127481,-57.58943,22.21354,-65.83516,-57.40893,22.23775,-67.46268,-0.1887207,-0.2529297,-0.3322754,0.1686182,2.380443,0.7781069,-33.17026,26.41913,-135.7649,-33.50043,24.31962,-136.4764,LR
-0.3925781,-0.8828125,0.4118652,-0.4977863,2.155962,-0.04600763,-57.58891,22.23994,-65.85737,-57.19738,21.94898,-66.912,-0.190918,-0.2568359,-0.3413086,0.01594663,1.846092,0.9155113,-33.17251,26.39954,-135.773,-33.29451,24.08267,-136.8435,LR
-0.3896484,-0.8901367,0.4030762,-0.1466411,2.278099,0.1066641,-57.59522,22.26343,-65.88805,-57.79667,21.74023,-67.47023,-0.1896973,-0.2541504,-0.3427734,0.04648089,2.227771,0.7781069,-33.16788,26.38147,-135.7914,-32.97285,23.96764,-137.2245,LR
-0.3925781,-0.8864746,0.4013672,-0.4672519,2.049092,0.09139694,-57.60277,22.28569,-65.91926,-57.65234,21.97055,-67.511,-0.199707,-0.2541504,-0.34375,0.1991527,2.181969,0.3353589,-33.1534,26.38671,-135.8058,-32.59036,25.03966,-136.7625,LR
-0.3969727,-0.8935547,0.411377,-0.4519846,1.468939,0.07612977,-57.60515,22.3011,-65.94339,-57.38961,21.97651,-67.18198,-0.1906738,-0.2509766,-0.3476563,0.2144198,1.876626,0.610168,-33.13383,26.36604,-135.8368,-32.33224,23.97409,-137.804,LR
-0.3989258,-0.8959961,0.4140625,-0.1008396,-0.05777865,-0.1070763,-57.60076,22.29436,-65.96834,-57.31133,22.00668,-67.11189,-0.190918,-0.2597656,-0.3498535,-0.02985501,1.464412,0.9460459,-33.13349,26.33345,-135.853,-33.09496,23.66011,-137.3405,LR
-0.3967285,-0.8937988,0.4189453,0.128168,-0.5157939,0.01506107,-57.58998,22.2788,-65.98492,-57.15616,21.89559,-66.80887,-0.1982422,-0.2573242,-0.3444824,-0.3657329,0.7926565,0.6254351,-33.13461,26.31347,-135.8604,-32.92042,24.75199,-136.6817,LR
-0.3847656,-0.888916,0.4099121,0.08236647,-0.8364046,0.2746031,-57.59074,22.2501,-66.00243,-57.68831,21.45823,-67.06222,-0.1982422,-0.2563477,-0.3464355,-1.113824,-0.06230533,0.7170382,-33.1414,26.28039,-135.8716,-32.71021,24.70219,-136.9115,LR
-0.3950195,-0.8898926,0.4223633,-0.299313,-0.8058702,0.7631527,-57.58267,22.23107,-66.00288,-56.98201,21.85175,-66.5486,-0.2026367,-0.2653809,-0.3291016,-1.587107,-0.6882596,0.350626,-33.19142,26.25684,-135.8407,-34.47564,25.60871,-134.5854,LR
-0.3818359,-0.8911133,0.4230957,-0.5893893,-0.607397,1.037962,-57.58766,22.20073,-65.99602,-57.39867,21.16038,-66.42271,-0.2028809,-0.2570801,-0.3378906,-1.800848,-0.9783359,0.3964274,-33.21638,26.22814,-135.836,-33.11595,25.54078,-135.8954,LR
-0.3833008,-0.8947754,0.4226074,-0.6809924,-0.08831299,1.266969,-57.59546,22.17889,-65.98811,-57.47697,21.1737,-66.53203,-0.2041016,-0.2602539,-0.34375,-1.709244,-0.7340611,0.701771,-33.23679,26.20015,-135.8317,-33.06405,25.332,-136.1049,LR
-0.387207,-0.9018555,0.4162598,-0.5130534,0.2780993,0.8089542,-57.60606,22.16507,-65.9976,-57.77365,21.29706,-67.01717,-0.2050781,-0.2561035,-0.3393555,-1.526038,-0.5355878,0.86971,-33.25165,26.18329,-135.8216,-32.85827,25.75119,-135.9666,LR
-0.3723145,-0.9052734,0.4155273,-0.4061831,0.3544351,0.4272748,-57.627,22.13687,-66.01133,-58.35421,20.49465,-66.9984,-0.2053223,-0.2634277,-0.34375,-1.235962,-0.1386412,1.388794,-33.27161,26.1649,-135.8013,-33.34128,25.36553,-135.8248,LR
-0.3601074,-0.8920898,0.4228516,-0.2535114,0.858252,0.5188779,-57.64006,22.10755,-66.00893,-58.09381,20.04018,-66.27254,-0.2004395,-0.2626953,-0.3388672,-1.312298,0.5331145,1.862076,-33.29844,26.15002,-135.7741,-33.71248,25.05517,-135.7221,LR
-0.3884277,-0.8796387,0.4177246,0.05183208,1.423137,0.8242214,-57.62732,22.11985,-66.00783,-57.03813,21.74628,-66.5192,-0.1928711,-0.253418,-0.3466797,-1.419168,0.0,1.999481,-33.31585,26.11075,-135.7622,-32.56981,24.18657,-137.429,LR
-0.3874512,-0.890625,0.3994141,-0.1771755,1.667412,0.9463588,-57.63882,22.14805,-66.01926,-58.00288,21.65028,-67.64576,-0.1975098,-0.2524414,-0.3408203,-1.46497,0.4262443,1.342992,-33.32414,26.09421,-135.7623,-32.65391,24.97062,-136.7577,LR
-0.3894043,-0.878418,0.4003906,-0.4214504,1.591076,1.358572,-57.64325,22.16783,-66.02647,-57.55062,21.96791,-67.37852,-0.1894531,-0.248291,-0.3400879,-1.434435,0.4415114,0.9307787,-33.32933,26.0633,-135.7822,-32.52945,24.22404,-137.4376,LR
-0.3884277,-0.8798828,0.4008789,-0.08557248,1.117794,1.251702,-57.64383,22.17864,-66.03502,-57.60915,21.88653,-67.37371,-0.2004395,-0.2480469,-0.3356934,-0.9306183,0.6247175,0.5185649,-33.32335,26.06363,-135.7888,-32.39194,25.65111,-136.4687,LR
-0.3867188,-0.8825684,0.4089355,-0.4061831,0.8124504,1.190634,-57.646,22.17984,-66.03806,-57.47351,21.6813,-67.00394,-0.1992188,-0.2529297,-0.3452148,-0.9764199,0.4415114,0.3353589,-33.31921,26.04809,-135.808,-32.39865,24.96253,-136.9958,LR
-0.3874512,-0.8793945,0.4125977,-0.05503809,0.7666489,0.7631527,-57.63856,22.18242,-66.04135,-57.2337,21.74549,-66.76335,-0.1972656,-0.2641602,-0.3398438,-0.9764199,0.5941832,0.5643663,-33.3454,26.0283,-135.8009,-33.91111,24.62168,-135.869,LR
-0.3918457,-0.8725586,0.4094238,0.2045038,0.7971831,0.793687,-57.62271,22.19297,-66.0454,-56.99661,22.12404,-66.82706,-0.1970215,-0.2419434,-0.3444824,-0.9153514,0.7163206,0.8391757,-33.31844,26.01919,-135.83,-31.36932,25.08112,-137.8312,LR
-0.395752,-0.8823242,0.4135742,0.128168,0.781916,0.8852901,-57.60902,22.20191,-66.04924,-57.02601,22.10361,-66.84447,-0.1950684,-0.2473145,-0.3461914,-0.4726033,0.6705191,0.5490992,-33.2965,26.00062,-135.8599,-31.89746,24.63109,-137.7022,LR
-0.3908691,-0.8925781,0.4196777,-0.08557248,0.430771,0.5799466,-57.60358,22.19614,-66.05427,-57.27818,21.61797,-66.69849,-0.1940918,-0.2548828,-0.3464355,-0.06038928,0.6094504,0.7170382,-33.28535,25.97534,-135.8769,-32.69473,24.28848,-137.2386,LR
-0.3967285,-0.8886719,0.4213867,0.5861833,0.003290057,0.3051374,-57.5814,22.19163,-66.06046,-56.92536,21.96804,-66.58797,-0.201416,-0.2497559,-0.3508301,0.32129,0.5331145,0.8086412,-33.24873,25.96498,-135.8986,-31.69064,25.06558,-137.5555,LR
-0.3955078,-0.8874512,0.4152832,0.9678626,-0.1493817,0.3967404,-57.55812,22.18524,-66.07055,-57.12875,21.98182,-66.85695,-0.2019043,-0.2521973,-0.3481445,0.5502977,0.4415114,0.0,-33.21713,25.95532,-135.9234,-32.0732,25.15764,-137.1401,LR
-0.3977051,-0.8850098,0.4157715,1.380076,-0.02724427,0.2746031,-57.5261,22.18379,-66.08118,-56.97157,22.13312,-66.80419,-0.1970215,-0.2531738,-0.3442383,0.1838853,0.227771,0.0,-33.20127,25.9344,-135.9453,-32.55042,24.75301,-137.0182,LR
-0.4050293,-0.8869629,0.4221191,1.700687,0.2475649,0.3051374,-57.4841,22.19167,-66.08721,-56.59267,22.40797,-66.59155,-0.2001953,-0.2512207,-0.3425293,0.1380839,0.1056336,0.9460459,-33.18206,25.92195,-135.9493,-32.34235,25.23411,-136.8377,LR
-0.395752,-0.8781738,0.4147949,1.410611,0.1864962,0.4120076,-57.45092,22.19398,-66.09345,-56.86215,22.17013,-66.70184,-0.2036133,-0.2495117,-0.3588867,-0.07565641,0.3499084,0.442229,-33.14268,25.90786,-135.9862,-31.16119,24.97744,-138.0968,LR
-0.402832,-0.8830566,0.4226074,1.09,-0.2715191,0.6868168,-57.41753,22.19371,-66.09158,-56.52893,22.36642,-66.47126,-0.1958008,-0.2521973,-0.3525391,0.07701516,0.01403052,0.6865039,-33.11913,25.8761,-136.013,-32.02146,24.30947,-137.8339,LR
-0.3999023,-0.8867188,0.4074707,1.502214,-0.1035802,0.6562824,-57.39157,22.19398,-66.10554,-57.22408,22.28356,-67.27135,-0.2011719,-0.2507324,-0.3447266,-0.4268017,0.0,0.0,-33.10575,25.86387,-136.0328,-32.13679,25.26446,-137.0002,LR
-0.3959961,-0.8811035,0.4147949,1.319008,-0.4852595,0.7173512,-57.36319,22.18553,-66.10812,-56.94174,22.12795,-66.76159,-0.2116699,-0.2495117,-0.3427734,-0.4573359,-0.9172672,0.7781069,-33.08535,25.86463,-136.0281,-31.77191,26.53103,-136.3315,LR
-0.4035645,-0.8803711,0.4196777,0.8609924,-0.4852595,0.3967404,-57.33454,22.18475,-66.11192,-56.52142,22.47933,-66.57075,-0.1931152,-0.2456055,-0.3520508,0.2602212,0.01403052,0.6559694,-33.04887,25.83198,-136.0661,-31.45249,24.22214,-138.4119,LR
-0.4001465,-0.8798828,0.4121094,0.0,0.1406947,0.2746031,-57.32509,22.19079,-66.12383,-56.86229,22.38373,-66.909,-0.1955566,-0.2475586,-0.3537598,0.3518243,0.2125039,0.7170382,-33.01277,25.80559,-136.1004,-31.4852,24.36631,-138.2737,LR
-0.388916,-0.885498,0.4226074,1.135802,0.1559618,0.0,-57.30367,22.18156,-66.12929,-57.03283,21.62228,-66.39633,-0.2001953,-0.2556152,-0.347168,0.2449541,-0.123374,0.0,-32.99953,25.78583,-136.1168,-32.53119,24.9083,-136.917,LR
-0.3999023,-0.8818359,0.4111328,1.303741,0.2933664,0.1371985,-57.27763,22.18911,-66.14456,-56.96015,22.34331,-66.99376,-0.2006836,-0.2502441,-0.3374023,-0.3504658,0.0,1.175053,-32.995,25.78082,-136.1061,-32.51526,25.53537,-136.4472,LR
-0.3994141,-0.8842773,0.4199219,1.364809,-0.04251146,0.442542,-57.24721,22.18863,-66.14713,-56.75988,22.19623,-66.59818,-0.1970215,-0.2531738,-0.3439941,-0.7474122,-1.054672,1.587267,-32.99664,25.74599,-136.1022,-32.5643,24.76303,-136.9979,LR
-0.3981934,-0.8786621,0.4130859,1.425878,-0.2409847,0.7173512,-57.21982,22.18754,-66.15073,-56.85586,22.29948,-66.81886,-0.2026367,-0.2509766,-0.3491211,0.0,-1.253145,1.67887,-32.97412,25.71732,-136.1007,-31.87092,25.23358,-137.2637,LR
-0.3955078,-0.8869629,0.4145508,1.838092,-0.2257175,0.5952138,-57.19117,22.18041,-66.15664,-57.13853,21.99711,-66.88399,-0.2121582,-0.2456055,-0.3395996,-1.205428,-1.543221,1.877344,-32.96283,25.71728,-136.077,-31.52346,26.84926,-136.298,LR
-0.3977051,-0.8811035,0.425293,2.036565,-0.2104504,0.5646794,-57.14824,22.17614,-66.15028,-56.54141,22.12152,-66.25327,-0.2099609,-0.2434082,-0.3356934,-1.098557,-1.741695,1.831542,-32.95027,25.71614,-136.0552,-31.58113,26.85549,-136.2415,LR
-0.3969727,-0.8725586,0.423584,2.204504,0.09489316,0.442542,-57.1023,22.17908,-66.14441,-56.36358,22.2581,-66.1608,-0.2084961,-0.2438965,-0.3391113,-0.5489388,-1.192076,1.923145,-32.92924,25.71481,-136.0375,-31.4951,26.52563,-136.5834,LR
-0.3935547,-0.876709,0.4233398,2.143435,0.5071069,0.2440687,-57.06081,22.18317,-66.14244,-56.60308,22.0105,-66.22535,-0.2023926,-0.2468262,-0.3400879,-0.5642061,-0.6882596,1.770473,-32.91742,25.70541,-136.0288,-31.9511,25.71721,-136.815,LR
-0.3972168,-0.8779297,0.4245605,1.838092,0.430771,0.3509389,-57.02409,22.18866,-66.13922,-56.48562,22.16199,-66.22198,-0.2099609,-0.2438965,-0.3410645,-0.5489388,-0.09283972,2.014748,-32.89394,25.72192,-136.0118,-31.33992,26.59916,-136.6628,LR
-0.3977051,-0.8728027,0.4221191,1.57855,0.5223741,0.2288015,-56.98833,22.19864,-66.13799,-56.39674,22.30384,-66.24567,-0.2033691,-0.2434082,-0.3422852,-0.06038928,0.07509923,1.953679,-32.86575,25.72532,-136.0064,-31.43987,25.83641,-137.1796,LR
-0.409668,-0.8747559,0.4211426,1.563282,0.4460382,0.04559542,-56.94784,22.21878,-66.14341,-56.1128,22.87811,-66.443,-0.2053223,-0.2414551,-0.3469238,-0.02985501,0.319374,1.602534,-32.82726,25.73368,-136.0145,-30.91957,25.90887,-137.5851,LR
-0.4016113,-0.8764648,0.4301758,1.303741,0.7971831,-0.1223435,-56.91212,22.23331,-66.14142,-56.12031,22.35949,-65.95377,-0.2060547,-0.2460938,-0.3400879,0.03121376,-0.0470382,1.312458,-32.80534,25.74125,-136.0093,-31.75272,26.14431,-136.6567,LR
-0.407959,-0.8845215,0.4304199,1.166336,0.6139771,-0.3666183,-56.88107,22.24757,-66.14683,-56.15974,22.52498,-66.16039,-0.2050781,-0.2451172,-0.3500977,-0.2588627,-0.4134504,1.404061,-32.77578,25.73303,-136.0206,-31.13714,25.63418,-137.6081,LR
-0.4003906,-0.8776855,0.4282227,1.166336,0.5681756,-0.1223435,-56.85149,22.25684,-66.14697,-56.25912,22.29329,-66.06393,-0.2016602,-0.2409668,-0.3530273,-0.5642061,-0.4287176,1.098718,-32.74165,25.71723,-136.0506,-30.65477,25.25798,-138.3289,LR
-0.4020996,-0.8757324,0.4277344,0.7693894,0.6445115,0.1371985,-56.82642,22.26957,-66.1433,-56.16344,22.41982,-66.0647,-0.2045898,-0.2416992,-0.3417969,-0.4115343,-0.4745191,0.6559694,-32.71741,25.71729,-136.0643,-31.24737,26.04583,-137.186,LR
-0.4013672,-0.8742676,0.4255371,0.6930535,0.9803894,0.0,-56.80466,22.28624,-66.14318,-56.21411,22.4303,-66.13792,-0.2041016,-0.248291,-0.34375,-0.4878702,-0.2455115,0.5796337,-32.7071,25.71339,-136.073,-31.84334,25.70257,-136.9234,LR
-0.3962402,-0.8764648,0.4379883,0.6625191,0.873519,-0.168145,-56.77933,22.29373,-66.13315,-56.025,22.0187,-65.51785,-0.2075195,-0.2480469,-0.333252,-0.1825268,-0.5355878,0.5643663,-32.70118,25.72264,-136.061,-32.28606,26.54334,-135.859,LR
-0.3918457,-0.8601074,0.439209,0.7999237,1.346802,-0.3208168,-56.74507,22.30802,-66.11641,-55.61496,22.08431,-65.07606,-0.2116699,-0.2497559,-0.3342285,-0.4115343,-0.4134504,0.9307787,-32.6985,25.74009,-136.0379,-32.2645,26.89929,-135.5925,LR
-0.3908691,-0.8649902,0.4375,0.906794,1.51474,-0.2902825,-56.7139,22.32335,-66.10344,-55.85322,21.96094,-65.25441,-0.2028809,-0.246582,-0.3371582,-0.5336719,0.3346412,0.7933741,-32.69332,25.748,-136.0374,-32.07331,25.90596,-136.5568,LR
-0.3808594,-0.873291,0.4423828,0.0,1.667412,-0.3055496,-56.70441,22.32493,-66.08743,-56.23961,21.2585,-65.09302,-0.2004395,-0.2473145,-0.3398438,-0.3962674,0.8537251,0.701771,-32.68689,25.75551,-136.0438,-32.08058,25.49591,-136.8712,LR
-0.3942871,-0.8725586,0.4233398,0.4487787,1.865885,-0.2292137,-56.69283,22.34834,-66.09202,-56.45525,22.12429,-66.14849,-0.1938477,-0.2485352,-0.3374023,0.1075497,0.9605954,0.4880307,-32.683,25.75006,-136.0552,-32.56656,24.82426,-136.9492,LR
-0.3979492,-0.8876953,0.4187012,0.2350382,2.384969,-0.5650916,-56.69469,22.37551,-66.11219,-56.94694,22.07039,-66.71284,-0.2011719,-0.2436523,-0.3464355,0.5044961,0.0,0.6254351,-32.64809,25.7432,-136.0776,-31.30816,25.40678,-137.6334,LR
-0.4050293,-0.8833008,0.4150391,0.1587023,2.430771,-0.6872291,-56.69273,22.41451,-66.13749,-56.71365,22.53896,-66.87212,-0.1967773,-0.25,-0.3496094,0.9319771,0.9605954,0.7475727,-32.62001,25.73446,-136.099,-31.92937,24.60003,-137.6971,LR
-0.4047852,-0.8837891,0.4165039,0.2350382,1.621611,-0.8093664,-56.68919,22.44015,-66.16277,-56.68835,22.50462,-66.80642,-0.1992188,-0.2460938,-0.3525391,0.0,0.487313,0.0,-32.59339,25.72368,-136.1384,-31.28861,24.86146,-138.0723,LR
-0.4047852,-0.8911133,0.432373,0.2503054,0.6445115,0.0,-56.67977,22.44477,-66.16283,-56.38986,22.22886,-66.16586,-0.1982422,-0.2463379,-0.3408203,0.5502977,-0.2760458,0.0,-32.57335,25.70995,-136.1586,-31.99614,25.23996,-137.146,LR
-0.4016113,-0.878418,0.4309082,0.5556489,0.4002366,0.0,-56.66111,22.44809,-66.1587,-56.1552,22.3167,-65.95674,-0.2011719,-0.2497559,-0.3444824,0.672435,-0.8561985,0.9307787,-32.55365,25.69009,-136.1636,-32.04977,25.30454,-137.0477,LR
-0.3950195,-0.8737793,0.425293,0.6777863,0.262832,-0.9009695,-56.64668,22.44516,-66.16953,-56.40429,22.1212,-66.08215,-0.2001953,-0.2456055,-0.3476563,0.5502977,-0.550855,0.4727633,-32.524,25.67196,-136.1864,-31.47548,25.18839,-137.6534,LR
-0.3984375,-0.8808594,0.4243164,0.4182443,0.2475649,-0.6108932,-56.63847,22.44332,-66.18119,-56.54369,22.17151,-66.30352,-0.2016602,-0.2470703,-0.3547363,0.7945726,0.2735725,0.5185649,-32.48651,25.66244,-136.2164,-31.19451,25.0083,-138.0433,LR
-0.4016113,-0.8884277,0.4099121,0.6930535,-0.2867863,-0.5192901,-56.63899,22.43685,-66.20863,-57.14029,22.31637,-67.19669,-0.2050781,-0.2480469,-0.3537598,0.9930458,0.2888396,0.3811603,-32.44701,25.66127,-136.2406,-31.24154,25.3916,-137.7046,LR
-0.5461426,-0.671875,0.6420898,-0.009236574,0.003290057,-0.2444809,-38.3774,30.88181,-53.05883,-38.55693,30.44103,-53.44026,-0.2580566,-0.1633301,-0.3520508,0.2754886,-0.031771,0.1216183,-20.12293,34.80304,-138.5233,-20.51486,33.6213,-139.0586,LL
-0.5463867,-0.6643066,0.6459961,0.2808397,0.1406947,-0.168145,-38.36847,30.87677,-53.06197,-38.13756,30.52612,-53.09215,-0.2634277,-0.1672363,-0.348877,0.1686182,-0.3065802,0.1521528,-20.13684,34.78778,-138.5145,-20.93442,34.25044,-138.1911,LL
-0.5483398,-0.6765137,0.6433105,0.2961069,0.01855725,-0.1834122,-38.37046,30.86806,-53.07415,-38.67125,30.42867,-53.54555,-0.2609863,-0.166748,-0.3530273,0.3365571,-0.4287176,0.182687,-20.14511,34.76095,-138.5164,-20.79754,33.7613,-138.7398,LL
-0.5524902,-0.6733398,0.6359863,0.3419085,-0.2104504,-0.2292137,-38.37071,30.86393,-53.09332,-38.63404,30.81634,-53.86369,-0.2766113,-0.1679688,-0.354248,-0.04512215,-0.1844428,-0.04632068,-20.15271,34.76712,-138.4985,-20.49174,35.20475,-137.5874,LL
-0.5444336,-0.6699219,0.6547852,-0.009236574,-0.1341145,-0.03074045,-38.36727,30.84797,-53.08829,-38.19217,30.16436,-52.81931,-0.2678223,-0.1650391,-0.3459473,0.06174803,-0.1539084,0.0147481,-20.1621,34.76838,-138.4827,-20.66799,34.9432,-137.718,LL
-0.5524902,-0.659668,0.6418457,0.03656495,-0.179916,0.09139694,-38.35771,30.84787,-53.09077,-37.91631,30.97533,-53.27981,-0.2612305,-0.1628418,-0.3479004,-0.07565641,0.1972366,0.2132213,-20.17039,34.76027,-138.4798,-20.5208,34.21829,-138.497,LL
-0.5500488,-0.6765137,0.6469727,-0.03977096,-0.05777865,-0.06127481,-38.362,30.83884,-53.09834,-38.54277,30.43889,-53.42389,-0.2595215,-0.1657715,-0.3464355,0.1533511,0.2888396,0.3200917,-20.18383,34.75029,-138.4728,-20.95517,34.04853,-138.366,LL
-0.5563965,-0.6699219,0.6477051,0.1434351,0.03382444,-0.1986794,-38.35498,30.83939,-53.10648,-38.11662,30.84132,-53.3594,-0.2556152,-0.1660156,-0.347168,-0.1061909,0.2888396,0.259023,-20.20293,34.73141,-138.4739,-21.06067,33.59392,-138.7186,LL
-0.5498047,-0.6691895,0.6442871,0.219771,0.01855725,0.1219313,-38.35088,30.83527,-53.10964,-38.31156,30.61983,-53.3541,-0.2634277,-0.1640625,-0.3537598,0.1228168,0.4109771,0.03001523,-20.20513,34.72363,-138.4788,-20.40355,34.04056,-138.7408,LL
-0.5549316,-0.671875,0.6430664,0.0976336,0.09489316,-0.1223435,-38.34931,30.83644,-53.12073,-38.34392,30.82382,-53.57431,-0.2626953,-0.1655273,-0.3598633,-0.06038928,0.1361679,0.3658931,-20.20948,34.70206,-138.4884,-20.38086,33.55204,-139.2118,LL
-0.5495605,-0.6645508,0.6437988,0.05183208,0.5376411,0.04559542,-38.34431,30.84125,-53.12282,-38.13527,30.70833,-53.25628,-0.2629395,-0.1657715,-0.3554688,-0.1825268,0.2735725,0.5338321,-20.21901,34.68879,-138.4874,-20.55217,33.83727,-138.8325,LL
-0.5537109,-0.6740723,0.6418457,0.3571756,0.1101603,0.1219313,-38.34201,30.84101,-53.13167,-38.49159,30.74813,-53.65516,-0.2536621,-0.1625977,-0.3588867,-0.04512215,-0.06230533,0.350626,-20.22136,34.64958,-138.5122,-20.30326,32.7738,-139.9851,LL
-0.5561523,-0.6704102,0.6437988,0.3113741,-0.4089237,0.1219313,-38.33537,30.83606,-53.13789,-38.23877,30.89419,-53.53214,-0.2583008,-0.1623535,-0.3447266,-0.1825268,0.0,0.610168,-20.23264,34.63924,-138.5028,-20.65136,34.13237,-138.4908,LL
-0.5461426,-0.6616211,0.6408691,0.1892367,-0.3936565,0.09139694,-38.32906,30.82684,-53.13859,-38.1589,30.66428,-53.23991,-0.2592773,-0.1655273,-0.3459473,0.1380839,-0.9783359,0.1979542,-20.24511,34.61425,-138.4972,-20.95073,34.06131,-138.3571,LL
-0.5598145,-0.673584,0.6315918,0.06709921,-0.2409847,-0.1070763,-38.33343,30.83154,-53.16136,-38.59355,31.22714,-54.20382,-0.2600098,-0.1599121,-0.3579102,0.580832,-0.4592519,0.1368854,-20.22914,34.58632,-138.516,-19.87376,33.55528,-139.5403,LL
-0.5429688,-0.6774902,0.6374512,0.2503054,-0.4241909,-0.2902825,-38.34259,30.8141,-53.17667,-38.97584,30.27168,-53.71375,-0.262207,-0.1674805,-0.3520508,0.7945726,0.07509923,0.182687,-20.23133,34.5741,-138.5138,-20.8835,33.9236,-138.5308,LL
-0.5344238,-0.6738281,0.638916,0.7235878,-0.8058702,-0.595626,-38.34524,30.7852,-53.18914,-38.97134,29.92167,-53.39138,-0.2661133,-0.1704102,-0.3515625,0.4739618,-0.1844428,0.6407022,-20.24235,34.56512,-138.4951,-21.1308,34.26046,-138.0494,LL
-0.5578613,-0.6694336,0.659668,0.0,-0.6837328,-0.7177633,-38.33376,30.77328,-53.19338,-37.77111,30.69206,-52.87375,-0.2507324,-0.166748,-0.3493652,0.0006792545,-0.7340611,0.7933741,-20.26138,34.52164,-138.4984,-21.19441,32.93067,-139.242,LL
-0.5490723,-0.6713867,0.6418457,1.135802,-0.8058702,-0.1834122,-38.31998,30.75776,-53.20215,-38.47988,30.58919,-53.49726,-0.2587891,-0.168457,-0.3483887,-0.07565641,-1.176809,0.0,-20.28155,34.48935,-138.4974,-21.2142,33.77234,-138.4485,LL
-0.5507813,-0.6694336,0.6489258,1.013664,0.0,0.01506107,-38.30238,30.75406,-53.20154,-38.18506,30.57271,-53.18272,-0.2648926,-0.1630859,-0.3557129,-0.07565641,-1.634825,0.7170382,-20.28082,34.45744,-138.4935,-20.18937,34.09511,-138.8303,LL
-0.5390625,-0.6655273,0.6437988,0.7846565,-0.7295343,-0.01547329,-38.2928,30.73238,-53.1991,-38.40016,30.20649,-53.06775,-0.2797852,-0.1621094,-0.3535156,-0.3351984,-1.558489,0.5796337,-20.27535,34.46153,-138.4667,-19.77732,35.7314,-137.5513,LL
-0.5454102,-0.6628418,0.6518555,0.5861833,-0.5463283,0.1677328,-38.2779,30.71822,-53.18856,-37.94976,30.39907,-52.78718,-0.267334,-0.1660156,-0.3469238,-0.1367252,-1.054672,0.5643663,-20.28704,34.45285,-138.4449,-20.75928,34.803,-137.7894,LL
