xa_S1,ya_S1,za_S1,xgb_S1,ybg_S1,zbg_S1,tilt_x_S1,tilt_y_S1,tilt_z_S1,tilt_accx_S1,tilt_accy_S1,tilt_accz_S1,xa_S2,ya_S2,za_S2,xgb_S2,ybg_S2,zbg_S2,tilt_x_S2,tilt_y_S2,tilt_z_S2,tilt_accx_S2,tilt_accy_S2,tilt_accz_S2,Posture
1.526225551803295,0.7693391917625263,-1.1051206932116098,0.5107117641133372,-0.09755493223413483,1.0484509786165885,-1.727753540437549,-1.1875383845525322,-0.9242815278503229,-1.8030353283837945,-1.2170332596030857,-0.9036351252215407,1.3776136062933773,-2.126456738516498,1.0616170233327697,0.29164785249209346,1.133658155649272,-0.6500556192553775,-2.468449395045589,-1.4710447272492002,1.1995056238555137,-2.462892333258923,-1.4730472279526632,1.2020487343938757,LR
1.5356056257603776,0.7754388028671169,-1.1152981225174077,0.41930767476125513,-0.2512499598045778,0.841405867255789,-1.7281593462465357,-1.188673208996121,-0.9240191147099245,-1.7642951706206267,-1.2350540835885981,-0.9190993891408189,1.3620544414061695,-2.122185127965994,1.0599057165919907,0.48202664117271277,0.9261190336325884,-0.4120648801133521,-2.4679916521600633,-1.4704102320784762,1.199536020519382,-2.463287774659229,-1.4648497549342807,1.2016337773496606,LR
1.4940651884622087,0.7723889973148216,-1.141872920117871,0.2822018400810457,-0.4927707379602271,0.8709836019251025,-1.726309907857495,-1.188640977606059,-0.9243876097581435,-1.6463612019500597,-1.1670246755843579,-0.9505323379145688,1.3188343973183652,-2.1281651027917143,1.0650398704717203,0.29164785249209346,0.30350193945870874,-0.49139524196359147,-2.4675352595485367,-1.4697987332149736,1.199588619963815,-2.456071981325661,-1.4427283229399923,1.2036558361356384,LR
1.5315855940644851,0.7906882470411477,-1.1079477697740374,0.35075490709510726,-0.05364199941566291,0.48647130760793794,-1.7269894167333937,-1.1892882258455135,-0.9240972803262132,-1.7735768193061734,-1.2205918927724564,-0.9141304249007624,1.3585968492090124,-2.1298738169981624,1.057623818499357,0.2493413934282084,0.07520887805273975,-0.015413786022901362,-2.4673826785866955,-1.469778983445242,1.1996584001313038,-2.4693098208304414,-1.463232392586697,1.1992204884152615,LR
1.4726249645304754,0.796788274558293,-1.1107748463364646,0.030840923645524994,-0.009729152885994165,-0.2825538622317542,-1.726865948157468,-1.1876477441740974,-0.9240749472929878,-1.7201870944465016,-1.109230707580036,-0.9172851458877193,1.344766409608714,-2.111078660589697,1.0673215349069618,-0.2794883749963328,0.24124012129085237,-0.3856215993676186,-2.467271280981811,-1.4693630884655187,1.1997646562954343,-2.4475834875126092,-1.4556814073404543,1.2074724391401497,LR
1.52890557293389,0.7622227011988011,-1.1192560760237469,0.7392216881456287,0.25374807010669026,-0.6079104934751708,-1.7269229336540488,-1.1881889520137274,-0.924139154763511,-1.759524261912574,-1.228024210009419,-0.9198434796916292,1.3672408297019052,-2.142688648649674,1.058764767545674,-0.6179396318471182,0.8223494726242466,-0.43850833406343187,-2.4678113905812507,-1.4689026212315044,1.1997128498074503,-2.4725846964544766,-1.4680567134636937,1.1980966244511644,LR
1.522205465220429,0.7764556823262517,-1.1215178299115707,0.2136490724148978,-0.03168562217152356,-0.9036893900492738,-1.7268840799063798,-1.1886451703072054,-0.9244071511622156,-1.7325399402328447,-1.2115702508100965,-0.9269443887682774,1.382799994589113,-2.1409802843744585,1.0194035442207923,-0.6179396318471182,0.012947155041543227,-0.5178386959136712,-2.4695039590384953,-1.4691939303350443,1.199192406058263,-2.5307624941414666,-1.4755386530628916,1.1755473735853175,LR
1.5302455834991875,0.7906882470411477,-1.1288681826549412,0.8077744558117768,-0.7342915161158763,0.22027014570314837,-1.7255837744843934,-1.1899628139903593,-0.9247198136273713,-1.694749139890455,-1.2237338372642346,-0.9412827628653555,1.3119192129240507,-2.1153502711402012,1.0616170233327697,-0.13141611465631442,-0.23609966903420007,-0.041857200309185834,-2.4693209969116845,-1.46891959791713,1.199349675753929,-2.4560996487273887,-1.4386602098896413,1.2034802571067649,LR
1.4967452095928035,0.8100043762266088,-1.1119057232803766,-0.0377118440206229,-0.6684222391306396,-0.10508650491378028,-1.7254836181570692,-1.1897523928015812,-0.9247477299189032,-1.7172701033151423,-1.1496504706268456,-0.9239903214130001,1.3240207856141009,-2.13841703809917,1.0564828694530402,-0.13141611465631442,-0.44363879105088366,0.011029638309235191,-2.469476278421524,-1.4689598414547675,1.199391438126896,-2.4726029164507364,-1.445587027865029,1.1972856918793693,LR
1.5168454229592394,0.7937380525934428,-1.1237795837993947,-0.44902952766999954,-0.8660302139010218,-0.3121315969010677,-1.7254378570764803,-1.190619233763571,-0.9250436426091397,-1.702764404357722,-1.1964070826695066,-0.9351405322511748,1.3793424023919556,-2.1256022064476574,1.0673215349069618,-0.1525692472008547,-0.5059004732806545,-0.015056789521927549,-2.4692710367737365,-1.4695985300697498,1.1995902058767125,-2.454233111332771,-1.4739987401655474,1.2054680437099297,LR
1.5088053595674542,0.7927215895468628,-1.1283028599803375,-0.38047676000385167,-0.47081440817492953,-0.5487544429311807,-1.72492844127371,-1.190850356414259,-0.9254875116444946,-1.6824850271479779,-1.1831212857898308,-0.9403296581148791,1.4018168224851473,-2.1256022064476574,1.0502080001843859,-0.42756084316649884,-0.0078067707539336674,-0.09474400428673761,-2.469787516578201,-1.470090177590909,1.199569324690229,-2.4802559896945415,-1.485430400035693,1.1956058276571722,LR
1.5114853806980493,0.7774721453728319,-1.1175598764052315,0.41930767476125513,-0.11951130516383401,-0.4008653821143712,-1.7249008119420342,-1.1909071325756146,-0.9255154279360261,-1.7398453403491843,-1.1903261196736534,-0.9217218206326265,1.432935223071232,-2.0709254514287116,1.0707443820459124,-0.8083184205277375,0.15822449967179605,-0.5178386959136712,-2.469570797601426,-1.4707600464930357,1.1998518815047956,-2.4304728865805996,-1.5008160829240222,1.2154517941955856,LR
1.4860251250704235,0.7754388028671169,-1.1350878900491044,0.2364999450789615,0.2757046875213318,-0.5487544429311807,-1.7234873989435002,-1.1897888168927893,-0.9259927965212195,-1.6629206832043377,-1.1492436573310838,-0.9425312743513597,1.3897152497950969,-2.1307283490670015,1.0684624839532786,-0.7448587319319099,0.30350193945870874,-0.5971688845595642,-2.469798993907189,-1.4708814534679266,1.1999097673255534,-2.4547763371471842,-1.4795006092712906,1.205415317274832,LR
1.5088053595674542,0.7734054603614018,-1.113601922898892,0.30505271274510937,0.10005307129918169,-0.37128725997481565,-1.7239303316669257,-1.1895781336601896,-0.9258755480967858,-1.7570793650340162,-1.1856860884974607,-0.9152256593070117,1.3810711984905342,-2.1127873747961456,1.0638989214254033,-0.2794883749963328,0.5110409255373068,-0.3856215993676186,-2.4696862460283064,-1.4707486836118204,1.20001205870744,-2.4546514964320703,-1.4745361129570107,1.2053201460594818,LR
1.5074653490021568,0.7835717564774223,-1.1124710459549803,0.7163703664596945,0.07809661208067932,0.22027014570314837,-1.7238716193371157,-1.189264379857744,-0.9256689675394512,-1.7498291000128934,-1.1793352566600797,-0.916858756920401,1.382799994589113,-2.144397362856122,1.062187381027232,-0.19487573397542615,0.7393339869432758,-0.43850833406343187,-2.4697969684961913,-1.4704844966235624,1.1999906488833243,-2.468727455764803,-1.4761700812197067,1.1998576873834113,LR
1.512825391263347,0.7886549045354326,-1.1175598764052315,0.3279035854091731,-0.03168562217152356,0.1906924110338349,-1.7237213848461281,-1.1892467355737535,-0.9256410512479193,-1.7288579496553411,-1.1889407696490741,-0.9252889963069238,1.4052744146823046,-2.1290196348605535,1.0502080001843859,-0.40640761363455624,0.5110409255373068,-0.4120648801133521,-2.4703147985746545,-1.470616454845296,1.1998812208933989,-2.4815914479389196,-1.4872969183403846,1.1951328715343503,LR
1.522205465220429,0.8100043762266088,-1.134522335779796,0.6021158534654193,0.056140152862176954,0.3681595939901999,-1.7216983997174997,-1.1894451027467363,-0.92616029427041,-1.6483262512030517,-1.2039036335847475,-0.9545593448281309,1.368969625800484,-2.1307283490670015,1.0713147397403746,-0.1525692472008547,0.8431035479516176,-0.3327346914674591,-2.4700103117879695,-1.4700863899638372,1.2000252746482525,-2.4498630114891164,-1.4688188375677886,1.2070200463270158,LR
1.5195254440898345,0.7845886359365571,-1.1169945537306278,0.46500986911125297,0.4733125184770419,0.013225156008004885,-1.721682858218432,-1.1892465608778724,-0.9261240030914187,-1.739185442178298,-1.2026268253675445,-0.9235416375977171,1.413918465986867,-2.1290196348605535,1.0467853867028276,-0.4698671636769521,0.9261190336325884,-0.3327346914674591,-2.4706759968692795,-1.4700121254187508,1.1998933795589461,-2.4869191098082295,-1.4917417906955472,1.1931614301260658,LR
1.4994252307233986,0.8018714226163032,-1.1198216302930555,0.5335626367774009,0.5172253218623091,0.45689357293862454,-1.7207918122718906,-1.1881603018892282,-0.9261630858995629,-1.6983510122827208,-1.1599732159935667,-0.9318659764564098,1.4484944587701087,-2.132436713342218,1.050778357878848,0.12242229334341666,0.8223494726242466,-0.49139524196359147,-2.470827902694122,-1.4703779696121682,1.199766242208332,-2.483120577995393,-1.5097656492670066,1.1950437638590359,LR
1.5302455834991875,0.7642560437045162,-1.1175598764052315,0.12224496809542003,0.2757046875213318,0.16111461824398515,-1.7215921994738708,-1.1886988019427012,-0.9259927965212195,-1.7644493765900637,-1.2293848278830422,-0.9183413643100306,1.3205631934169437,-2.1751531687784915,1.0536306136659441,0.016656353513851592,0.7393339869432758,-0.35917814541753884,-2.471184375029752,-1.4694924765117394,1.199580954718144,-2.4897128425680695,-1.4449229929518193,1.1905485716348236,LR
1.5302455834991875,0.7652725067510961,-1.1277373057110291,0.1907977507289636,-0.11951130516383401,0.3681595939901999,-1.721544711560054,-1.1896261750274904,-0.9260486291042829,-1.7258349957628596,-1.2317208363461385,-0.9317322073686235,1.3413088174115566,-2.1478147912690186,1.053060255971482,0.29164785249209346,0.8846111548540175,-0.14763084290515865,-2.4711782987967585,-1.4687159453258227,1.1995172538834287,-2.481767574569431,-1.4547380972394877,1.1940398525347853,LR
1.5516858074309208,0.7673058492568112,-1.115863676786716,-0.12911596330749636,-0.4049451311896927,0.6343607558949895,-1.7228450169820402,-1.191506339447768,-0.9257722578181184,-1.7794986731268954,-1.2675620053267278,-0.9178898936387523,1.4052744146823046,-2.1452518949249626,1.0382283856841474,0.1858818433858125,0.44877924330753594,0.4341242606544303,-2.471714357574203,-1.4689329898842765,1.199422892066029,-2.5050925438553944,-1.4875037191293927,1.185940808471679,LR
1.512825391263347,0.7225739797812989,-1.0994665400867552,-0.08341405333801648,-1.107550992056671,0.6639386842994242,-1.7257443699747579,-1.192759170959036,-0.9247728545812818,-1.862517481265018,-1.2066821989822665,-0.8819171564482596,1.3672408297019052,-2.13841703809917,1.045073846304656,0.2281883024496976,0.26199406068013786,0.46056771460451007,-2.4719317516879773,-1.468884900547704,1.1994332004998625,-2.4912318504043984,-1.4677527647097581,1.1907826770066554,LR
1.523545475785727,0.8425366070803856,-1.1339570131051924,-0.40332763266791527,-1.3051591106417253,0.545626970681686,-1.7238949315857173,-1.1939320791047032,-0.9254791367570352,-1.614950565907388,-1.1951086010479322,-0.9647703851958075,1.4312064269726532,-2.1016812573510806,1.0199739019152547,0.7570182094276705,-0.13233018958870962,0.6985582805421892,-2.4722963256675987,-1.469774248911402,1.1993071204245136,-2.51768391090029,-1.4999639372801088,1.181321181860637,LR
1.5436456891521624,0.7886549045354326,-1.1226487068554827,-0.7003907733882252,-1.107550992056671,0.2794258087768963,-1.7245899819606834,-1.1959550574077755,-0.9255935935523153,-1.7274675114728202,-1.2476368057175966,-0.9331089142304224,1.3240207856141009,-2.1315825312046104,1.0393693347304642,0.16472861385387,-0.17383797321062067,0.46056771460451007,-2.4726311936192515,-1.469571813771654,1.1992703801090554,-2.4953887088103444,-1.445075269865702,1.188328525085056,LR
1.512825391263347,0.7286735908858891,-1.1350878900491044,-0.44902952766999954,-1.3051591106417253,-0.016352642206428274,-1.725055363516095,-1.1974384874820878,-0.92568571731437,-1.7273443189944433,-1.213846482625652,-0.928998301636994,1.3326648369186636,-2.1401257523056185,1.0581944098512113,0.0801159312669338,-0.40213091227231273,0.5927846379462164,-2.4725332987543536,-1.4696421554172732,1.1994593680626708,-2.4710920063905233,-1.4501323424759713,1.1980539160387356,LR
1.5356056257603776,0.7957713950991578,-1.12547578341791,-0.5404339163699953,-1.063638188671404,0.5752047053509994,-1.7251719247591022,-1.1990832492025907,-0.9258392569177946,-1.704901750783269,-1.2311111844554328,-0.9387467239094098,1.3758848101947985,-2.1367086738239545,1.0564828694530402,0.3762606320664318,-0.38137697288302724,0.5134544493003234,-2.4722666196396297,-1.4701576108800265,1.1996261532357217,-2.47410842799354,-1.4723372074283738,1.1976350045118884,LR
1.5034452624192909,0.7622227011988011,-1.1367840896676198,0.05267518085996921,-1.2392896898418164,0.22027014570314837,-1.7242713812297976,-1.199820029081106,-0.9261240030914187,-1.6809886262043363,-1.1861673604243694,-0.941232599457436,1.3464952057072925,-2.142688648649674,1.0439328972583393,0.2281883024496976,-0.38137697288302724,0.5398979032504031,-2.4725332987543536,-1.470326769010501,1.1996158448018883,-2.493599100288824,-1.4571237016598917,1.1894892975537206,LR
1.512825391263347,0.780521950925127,-1.1384802892861352,-0.42617865500593577,-0.029907099200566903,0.33858185932088647,-1.7233846523663319,-1.199763340267691,-0.926542747464395,-1.6605602119403318,-1.1976218420274205,-0.9496293965720124,1.4052744146823046,-2.132436713342218,1.0456444376565106,0.3551074025344893,-0.3191152906532564,0.6985582805421892,-2.4726109395092726,-1.4710694820975625,1.1997004268230869,-2.489571131486049,-1.4873170202376256,1.1920104120478936,LR
1.4994252307233986,0.7744223398205367,-1.1164289994613197,-0.6546888783861411,-1.2173332162418469,0.6639386842994242,-1.7243016008113177,-1.2001918692640154,-0.9262663761782307,-1.7399719787710122,-1.168803817383524,-0.9188179166852687,1.4260200386769173,-2.144397362856122,1.0439328972583393,0.5454861912151087,-0.11157626379323268,0.8572188310383214,-2.472698032182182,-1.4718659659618036,1.1997665065271483,-2.4969556284886907,-1.4982737643816486,1.1893912263844402,LR
1.5021052518539937,0.7896717839945675,-1.114732799842804,-0.38047676000385167,-1.1953768864565493,0.45689357293862454,-1.7248032458645555,-1.2005732303724441,-0.9260960867998869,-1.7317947549615433,-1.1678593638309358,-0.9214905115849962,1.3326648369186636,-2.13841703809917,1.0496376424899234,0.7570182094276705,-0.0078067707539336674,0.8572188310383214,-2.472354387449539,-1.4715981266188691,1.1999102959631855,-2.483067267635966,-1.449938113776542,1.1933509816602403,LR
1.4980852201581012,0.7927215895468628,-1.126606660361822,-0.35762588733978784,-1.2832026370417555,1.018873050212154,-1.7242860593122502,-1.2009236703099193,-0.9261323779788782,-1.6824126623355045,-1.162764103770184,-0.9376849317751073,1.3136480090226292,-2.126456738516498,1.060476074286453,0.7147117503637853,0.11671675683131066,1.068766116230267,-2.4716245643532955,-1.471042698163269,1.2002570822500997,-2.4619172260516846,-1.439906124136032,1.2012491380056265,LR
1.512825391263347,0.7784886084194119,-1.1283028599803375,-0.4718808493559337,-1.1953768864565493,1.5808527212208043,-1.7242299372322845,-1.2018417845130107,-0.9260151295544449,-1.7000266022858204,-1.1954432279242957,-0.9359487204898826,1.3620544414061695,-2.1102244784520896,1.0502080001843859,0.7147117503637853,-0.1530841153841865,0.725001734492269,-2.4711371154398014,-1.4711881836245446,1.2004487133918775,-2.473294601493934,-1.464383915315608,1.1976980126018297,LR
1.4940651884622087,0.8028878856628833,-1.1152981225174077,-0.44902952766999954,-1.107550992056671,0.9301392649988505,-1.7243680838906625,-1.2017201088318286,-0.9258392569177946,-1.7106797364649071,-1.1482621492484413,-0.9260581685616941,1.3845287906876915,-2.1315825312046104,1.0901395812037296,0.630098970789447,0.11671675683131066,-0.015056789521927549,-2.4697159520562755,-1.471389874766118,1.200872416454319,-2.4231275288291827,-1.4771264340232306,1.217737221524874,LR
1.4887051462010186,0.7815388303842621,-1.1090786467179492,0.05267518085996921,-0.7123351863305788,1.0780287132859019,-1.7249223973574066,-1.2011690306749165,-0.92533397204107,-1.7528348241881189,-1.1443093747334454,-0.9110370147457079,1.382799994589113,-2.1315825312046104,1.0638989214254033,0.48202664117271277,0.0544550202263056,0.06391645960722159,-2.4691981219778123,-1.4716080691399327,1.2010029899495445,-2.4615730705667764,-1.475886436054289,1.2026503430183348,LR
1.4846851145051263,0.7673058492568112,-1.1192560760237469,-0.31192369298979,-0.5147272115601966,1.0484509786165885,-1.7252798518359602,-1.2004673646685011,-0.925018517946761,-1.7280834738647046,-1.1450558836856253,-0.9196456129159456,1.3534103901016068,-2.1136419068649857,1.0673215349069618,0.5031798707046553,0.3657636216884796,0.24902025620821822,-2.468422389565617,-1.4712794248552563,1.201262022389465,-2.4488777820617327,-1.460243126175232,1.2071239174041573,LR
1.5007652412886958,0.7662889697976764,-1.126606660361822,-0.0377118440206229,-0.7123351863305788,0.604782633755434,-1.7250769489314675,-1.2005948053137594,-0.924998976542689,-1.7121192793416047,-1.176998286876628,-0.9294302643163035,1.3534103901016068,-2.1144960890025937,1.0616170233327697,0.6089457412575044,0.5733026077670776,-0.015056789521927549,-2.467760080169304,-1.4708043482025364,1.201387838145998,-2.457614607675659,-1.4601785177362732,1.203699071812418,LR
1.5007652412886958,0.7825552934308421,-1.1373494123422234,0.09939405052916929,-0.8440738841157243,0.5752047053509994,-1.7236298626849529,-1.2007860099556171,-0.9253646799617549,-1.6556600803528625,-1.1744364555228235,-0.9483335085340838,1.3914440458936754,-2.122185127965994,1.045073846304656,0.4185670911303169,0.3865175610777651,0.3812373527542708,-2.467822192773239,-1.470872254945038,1.2013873095083654,-2.4863003047500705,-1.4799050675114311,1.193086558588228,LR
1.4954051990275061,0.7896717839945675,-1.101728293974579,-0.24337092532364213,-0.800160936915785,0.7230941536380511,-1.724909446108183,-1.200478807248713,-0.9248091457602732,-1.7756762603537588,-1.1516529009266931,-0.9042064307006272,1.3378512252143993,-2.126456738516498,1.0564828694530402,0.2281883024496976,0.3657636216884796,-0.015056789521927549,-2.467670962085396,-1.4704000190126216,1.2014163845781525,-2.468899533507257,-1.4523725274858992,1.1989971919626248,LR
1.53426561519508,0.7642560437045162,-1.1079477697740374,-0.08341405333801648,-0.4269014609749904,0.7526720820424855,-1.72656288892565,-1.2014971095396114,-0.9242926943669356,-1.802397828845341,-1.234328199327675,-0.9060569030816691,1.3672408297019052,-2.142688648649674,1.0701737906940576,0.2281883024496976,0.4902871220861068,-0.015056789521927549,-2.467261153926821,-1.470164983225577,1.2015585881012922,-2.455835796188959,-1.4682186715588565,1.2046618565172933,LR
1.5061253384368596,0.7866219784422722,-1.1384802892861352,-0.31192369298979,-0.5805964885454333,1.0780287132859019,-1.7253256129165477,-1.2016105745143824,-0.9246276898653166,-1.650196537011138,-1.1832202143936552,-0.9513210181613081,1.3568679822987642,-2.1093702963144816,1.0439328972583393,0.2281883024496976,0.0544550202263056,0.725001734492269,-2.4673853791346927,-1.4701195317007154,1.201653214237508,-2.4820989085754896,-1.4615640023461167,1.1941529507380688,LR
1.4645849011386902,0.7917051265002827,-1.126606660361822,-1.2716648350991697,-1.7003749163678172,1.0484509786165885,-1.7252574030039738,-1.201182045518058,-0.924636064752776,-1.6629103453739842,-1.101227803015892,-0.9358706885220075,1.4018168224851473,-2.1153502711402012,1.0610466656383075,0.6089457412575044,-0.29836135126397095,1.1216528509260806,-2.4667710044653295,-1.4708222717949297,1.2020359478834317,-2.4604926922700368,-1.4853368825137456,1.2033381593641777,LR
1.4672649222692853,0.8262702834472195,-1.1152981225174077,-0.7689432417064593,-6.8820952075976916,-0.2825538622317542,-1.7247471237845886,-1.2046392770049146,-0.9248649783433365,-1.6681318111882686,-1.0891293241676274,-0.9323258076956745,1.3845287906876915,-2.1281651027917143,1.0673215349069618,-0.2160288249539369,-0.3398692300425419,1.1216528509260806,-2.4666791858334243,-1.4713445585136518,1.2024126021965815,-2.455347905178002,-1.4767441618235235,1.2051129311695497,LR
1.4793250173569628,0.8089879131800286,-1.1045553705370064,-0.2662217979877058,-0.9099431611009609,0.013225156008004885,-1.7251952370077035,-1.2036231584125294,-0.924650022898542,-1.7344119490126573,-1.1151397690178306,-0.9132302704142016,1.3343936330172421,-2.1153502711402012,1.0735966378330082,-0.11026280199231282,-0.1530841153841865,0.7778886423924285,-2.466203889385918,-1.4712052955825654,1.202828904332168,-2.439476263991661,-1.4505310861299396,1.210462818906688,LR
1.5181854335245368,0.7906882470411477,-1.1034244935930944,0.1907977507289636,-0.5586400149454638,0.013225156008004885,-1.7262037076138659,-1.2039278280291579,-0.9243261939167736,-1.7825181810759247,-1.1943126277938403,-0.9076704927030896,1.348224001805871,-2.1273109206541054,1.0730260464811536,0.12242229334341666,-0.38137697288302724,0.46056771460451007,-2.46568133334846,-1.4714017111007172,1.203132606652034,-2.4452992398333677,-1.4580321864004206,1.208449987246852,LR
1.4806650279222604,0.7886549045354326,-1.1169945537306278,0.007990006079274253,-0.8440738841157243,0.5160492360123725,-1.7259274142971097,-1.203146588048904,-0.9242145287506465,-1.7112750231960845,-1.129124795366763,-0.9231960674542695,1.3015463655209094,-2.1238934922412094,1.0633283300735488,0.016656353513851592,-1.0039942029949924,-0.015056789521927549,-2.4654700154676794,-1.4715430707539328,1.2032116379780913,-2.4561981716701267,-1.433606633261501,1.2032295429078774,LR
1.573126031362654,0.7978047376048729,-1.1243449064739983,-0.2662217979877058,-1.3929847174122594,-0.0755087121239305,-1.7262028441972521,-1.206292598823591,-0.924555107507334,-1.7269308057803106,-1.3002857871809756,-0.9393542585164386,1.3534103901016068,-2.1725902724344355,1.0747373532219329,-0.004496959150149989,-0.7549473381378234,0.3547940720085373,-2.4653430897118103,-1.4720704978236807,1.203368379036125,-2.4594588761859604,-1.4619823100539218,1.2030381459484745,LR
1.4686049328345827,0.7866219784422722,-1.149788595535845,-0.06056276158687363,-1.1953768864565493,1.0780287132859019,-1.7235107111921018,-1.2056221160319511,-0.9251218082254284,-1.5875372242679966,-1.1178694818627541,-0.9640290815009925,1.4035456185837258,-2.1341454275486664,1.0964146841297762,0.16472861385387,-0.29836135126397095,0.4341242606544303,-2.464208859552987,-1.4727687062926484,1.2039062678271844,-2.415502797801782,-1.487052266821789,1.2209875426164414,LR
1.476644996226368,0.7703556548091065,-1.1169945537306278,-0.3347748650017674,-0.7342915161158763,0.309004124651573,-1.7238932047524869,-1.2046549122862724,-0.9249263941847065,-1.7280679671191745,-1.1285201248633525,-0.9173325224396435,1.3706984218990625,-2.1196218816907053,1.0741669955274704,-0.3641012931241029,0.34500968229919415,0.3547940720085373,-2.46399349085021,-1.4726381684310668,1.2041882960041184,-2.4416505168786666,-1.4694690902437595,1.2102563949132825,LR
1.4243844744058187,0.799838080110588,-1.1316952592173686,-0.2662217979877058,-0.4269014609749904,0.4273152570639479,-1.721857268374635,-1.2014190204807624,-0.9252195152457896,-1.6095723096660781,-1.0256837537951813,-0.9430747112704908,1.360325645307591,-2.1153502711402012,1.0684624839532786,-0.4698671636769521,0.6148104865456486,0.27546371015829796,-2.464002267631201,-1.4721803390087629,1.2043981651442173,-2.44809432222256,-1.4638963602694812,1.2075539014823748,LR
1.5114853806980493,0.8191542092960491,-1.1305643822734566,0.007990006079274253,0.03418377993247776,0.3681595939901999,-1.720376508880141,-1.2009116162941238,-0.9256968838309826,-1.6468488029483908,-1.1795429018567993,-0.9519870767442432,1.3050040285297362,-2.1102244784520896,1.0239671067486675,-0.4698671636769521,0.6148104865456486,0.3019071641083777,-2.465243844572913,-1.4711338041215851,1.2041021280700224,-2.5097271710521545,-1.4341849493821275,1.1822441581070138,LR
1.5664259236491935,0.7937380525934428,-1.1152981225174077,0.007990006079274253,-0.27320643340454737,0.24984807410758286,-1.7212347449953171,-1.202831611375291,-0.925671759168604,-1.7620587533208607,-1.2867326558497993,-0.9260107920097698,1.3101904168254719,-2.1204764137595458,1.0536306136659441,-0.04680322978136789,0.26199406068013786,0.14324668289398387,-2.4653565924517964,-1.47043877455391,1.2040952557808,-2.4696661229795223,-1.4377878951180614,1.1981211422434845,LR
1.5088053595674542,0.8039043487094635,-1.1119057232803766,-0.0377118440206229,-0.1853806828193411,0.13153682545413536,-1.7215015407293106,-1.2024000252010474,-0.9255991768106214,-1.731239958065916,-1.1744701017352548,-0.9225662379992765,1.330936040820085,-2.1153502711402012,1.057623818499357,-0.258335284017822,0.5317948649265922,-0.015413786022901362,-2.465493645262655,-1.469745571163573,1.2041145510543858,-2.46287478807734,-1.4484644900787955,1.2012122295010583,LR
1.512825391263347,0.7988212006514531,-1.1209522756422625,-0.10626494096947584,0.4733125184770419,0.45689357293862454,-1.7212986378248165,-1.2016173876537448,-0.925671759168604,-1.7054531017354457,-1.18636486806098,-0.9329305554467076,1.3119192129240507,-2.1238934922412094,1.0656102281661826,-0.5121736227408372,0.6978261081647049,-0.20051759492140656,-2.4656084185525358,-1.4687843255217083,1.2041592209343315,-2.453347754477478,-1.4390199598967879,1.2045745942672075,LR
1.5034452624192909,0.7886549045354326,-1.1192560760237469,0.1679468181953172,0.4513560448770724,-0.3121315969010677,-1.7210991885867832,-1.2005830133417854,-0.9257862159638844,-1.7169995967542304,-1.1720069368069959,-0.9271032395600236,1.3706984218990625,-2.1187676995530973,1.0610466656383075,-0.5121736227408372,0.8431035479516176,-0.3327346914674591,-2.465868346297266,-1.4683445549641934,1.2041378111102155,-2.460683664823426,-1.4692604070028359,1.2027963952435539,LR
1.5195254440898345,0.8110208392731887,-1.1243449064739983,0.41930767476125513,0.5172253218623091,0.16111461824398515,-1.7200207812348165,-1.199982670946405,-0.9260877119124274,-1.68356877636335,-1.1956245679003872,-0.9415642353209057,1.3015463655209094,-2.1196218816907053,1.088998865814805,-0.533326713719348,0.5110409255373068,-0.5971688845595642,-2.465262748408894,-1.4674460757138041,1.2043749050883874,-2.4169867152749442,-1.4339565003960908,1.2186298800710695,LR
1.5021052518539937,0.7825552934308421,-1.1226487068554827,0.41930767476125513,0.1439659897361864,-0.22339761795264304,-1.7194966873495927,-1.1992682521406697,-0.9262245017409328,-1.7101998888393404,-1.1726522449436028,-0.9295110831401743,1.3620544414061695,-2.142688648649674,1.0570534608048945,-0.575633172783233,0.5940564112182776,-0.25340450282156607,-2.465858894379276,-1.46713657247308,1.2042527897952824,-2.474904034496886,-1.4653560672691377,1.1971000948278272,LR
1.522205465220429,0.7784886084194119,-1.12547578341791,0.35075490709510726,0.056140152862176954,-0.3121315969010677,-1.7191530475368764,-1.1994325536168389,-0.9264394571857273,-1.7157814557442654,-1.2119671013312683,-0.932690885831091,1.3430376135101352,-2.1349999596175064,1.0199739019152547,-0.17372236589005186,0.7185799116159048,-0.3327346914674591,-2.4671814877609037,-1.4665285906918584,1.2037040639327565,-2.5262216661847114,-1.4547365509397,1.1766127112064564,LR
1.512825391263347,0.7866219784422722,-1.1220831525861743,0.2822018400810457,-0.20733701260463872,0.13153682545413536,-1.7187420612282014,-1.1994923869561138,-0.9265008730270973,-1.714288500744075,-1.1909137485889494,-0.9305115644425748,1.363783237504748,-2.1187676995530973,1.0439328972583393,-0.5121736227408372,0.17897843906108152,-0.25340450282156607,-2.4680935978469583,-1.4664435043551383,1.2034817718082942,-2.485759103379687,-1.4654224236991609,1.1928495532624657,LR
1.5114853806980493,0.7917051265002827,-1.1260411060925137,0.1907977507289636,-0.22929348620460824,-0.37128725997481565,-1.7181031329332006,-1.1994238188227841,-0.926813535492253,-1.6934724178418212,-1.1877947883929356,-0.9371944451198914,1.348224001805871,-2.1537951160259707,1.0667511772124993,-0.19487573397542615,0.15822449967179605,-0.041857200309185834,-2.4681442331219055,-1.466338600612489,1.203505031864124,-2.4641319678192684,-1.4586836492240514,1.2010933313899141,LR
1.5449856997174602,0.8100043762266088,-1.126606660361822,-0.12911596330749636,0.10005307129918169,0.013225156008004885,-1.71768782954145,-1.2001925680475398,-0.9272015719445441,-1.6904744470393613,-1.2443255814505463,-0.9452150166750695,1.3153768051212078,-2.0692167372222636,1.060476074286453,-0.575633172783233,0.17897843906108152,0.19613352151240493,-2.468001779215053,-1.4658224011515608,1.2037492624503345,-2.440869081483523,-1.4388891294886572,1.2094641802259467,LR
1.520865454655132,0.7774721453728319,-1.1090786467179492,0.14509590062906644,-0.3829886575897232,-0.0755087121239305,-1.7187731442263365,-1.2006198741726963,-0.926914034141767,-1.7767849926591506,-1.2053902718176592,-0.9110816044416364,1.3240207856141009,-2.1341454275486664,1.0656102281661826,-0.004496959150149989,-0.13233018958870962,0.3283506180584575,-2.4677870856492756,-1.4656821913137066,1.2038964880309835,-2.4576503728535024,-1.44561015513142,1.203150189623056,LR
1.5088053595674542,0.7927215895468628,-1.1249102291486017,-0.1748177086356237,0.10005307129918169,0.2794258087768963,-1.7184735386609777,-1.2001218162156966,-0.9270564072285793,-1.6949912174178954,-1.1821463321641557,-0.9359459336338873,1.3551391862001856,-2.1315825312046104,1.0319535164154932,-0.4910203932088947,-0.5889160948997108,0.19613352151240493,-2.468929417452091,-1.4661877042553964,1.2036239753314344,-2.5077506388653017,-1.4611055580742551,1.184084837956257,LR
1.5074653490021568,0.7917051265002827,-1.1294337369242495,-0.15196683597156002,-0.33907571038978407,0.22027014570314837,-1.7178337469493632,-1.2000091373723907,-0.9273188203689778,-1.6786393542565463,-1.1813181109817852,-0.9414053845291596,1.3378512252143993,-2.126456738516498,1.066180585860645,0.3762606320664318,-0.7549473381378234,-0.015413786022901362,-2.4683643277836773,-1.4666320740743557,1.20372071601818,-2.454615731254227,-1.4525322669770186,1.2046020120134577,LR
1.5061253384368596,0.7947549320525779,-1.1096439693925526,-0.15196683597156002,-0.8221174105157546,-0.19381988328332958,-1.7185900999039847,-1.2001453128117037,-0.9271652807655528,-1.7477210441066813,-1.1720778997277603,-0.9166079398808019,1.3672408297019052,-2.1179135174154897,1.0524898982770197,0.4397203206622594,-0.7549473381378234,0.46056771460451007,-2.4681307303819193,-1.4673651151851446,1.2037889102727717,-2.4728998349083042,-1.4673206747647145,1.1979492540650678,LR
1.5047853278715617,0.7866219784422722,-1.149788595535845,-0.5404339163699953,-0.756247989715846,0.39773752239463445,-1.7168658569240987,-1.2004595907017923,-0.9278715629413062,-1.6082533748101684,-1.1840638167017086,-0.9656566054023905,1.330936040820085,-2.1332912454110584,1.0599057165919907,0.1012690638114741,-0.8794708385354507,0.566341357200483,-2.4680071803110475,-1.4678070501009863,1.2039202767244457,-2.466030896318349,-1.4490584708885765,1.1999971488042434,LR
1.4860251250704235,0.7947549320525779,-1.1186907533491435,-0.5175825946840611,-0.3829886575897232,0.7822498167117989,-1.717033359747383,-1.1994995494872385,-0.927720814967035,-1.7019141178111616,-1.1373060685531733,-0.9275519233753061,1.3551391862001856,-2.13841703809917,1.0633283300735488,0.4185670911303169,-0.11157626379323268,0.3812373527542708,-2.4676149257144546,-1.4679342061526823,1.2040339338154311,-2.463870139724868,-1.4617644834751229,1.201302128072899,LR
1.4833451039398284,0.796788274558293,-1.1294337369242495,0.05369184794710378,-0.16342423798230593,-0.0755087121239305,-1.7158496155684024,-1.1983137138463704,-0.9280446439488033,-1.6587881355206018,-1.1348514681153514,-0.9419934111442196,1.37415601409622,-2.1349999596175064,1.0633283300735488,0.3762606320664318,-0.23609966903420007,0.14324668289398387,-2.4672510268718315,-1.4683457047795545,1.2041021280700224,-2.463348507980095,-1.471494675735315,1.201822274355133,LR
1.4793250173569628,0.7876384414888524,-1.1062515701555218,0.14509590062906644,-0.09755493223413483,0.04280296274678338,-1.716451416948963,-1.1968759667449642,-0.9276705656422777,-1.7507887952640266,-1.1238040619863408,-0.9088270379412406,1.3655120336033266,-2.142688648649674,1.0542012050177987,0.20703507291775505,-0.0078067707539336674,-0.17407424489393453,-2.467321241119759,-1.4684903109702598,1.2039678541113694,-2.479232970645286,-1.4670997555863399,1.1954613572250061,LR
1.4980852201581012,0.7845886359365571,-1.120386952967659,0.2136490724148978,0.2757046875213318,-0.22339761795264304,-1.7162390164617063,-1.1959119075251452,-0.9277291898544944,-1.7139309841110233,-1.163848473130831,-0.9270614367200902,1.3568679822987642,-2.14610607706257,1.0422215905175602,-0.004496959150149989,0.09596281744202519,-0.12118742359594813,-2.4679227881861348,-1.4684595365003015,1.203700363469329,-2.497763381656209,-1.4625543737449718,1.1880493386112159,LR
1.5315855940644851,0.7835717564774223,-1.1192560760237469,0.09939405052916929,0.12200951613621683,-0.10508650491378028,-1.716636188104544,-1.19636445720512,-0.9277487312585668,-1.7387831282803812,-1.225972402800419,-0.9266322608967763,1.3205631934169437,-2.1144960890025937,1.0650398704717203,-0.0256500916946903,-0.3191152906532564,-0.17407424489393453,-2.4675960218784736,-1.4683515214925575,1.203779923433019,-2.4511458341887433,-1.4431811870865328,1.2056053960733575,LR
1.5074653490021568,0.7906882470411477,-1.1390456119607388,-0.22051990298562157,-0.009729152885994165,0.24984807410758286,-1.7154049560117468,-1.1960956002441159,-0.9282316831020659,-1.6444736864247174,-1.1844563849776617,-0.9534223075819489,1.3326648369186636,-2.1093702963144816,1.0827237628887583,-0.17372236589005186,-0.1945919125999061,-0.12118742359594813,-2.466833792206264,-1.4682839529310445,1.2040902337232913,-2.4237578057368383,-1.4496091553042998,1.216589894297159,LR
1.4619048800080952,0.7906882470411477,-1.1090786467179492,-0.10626494096947584,0.07809661208067932,0.13153682545413536,-1.7157416884915444,-1.1938825528224128,-0.9279106457494508,-1.7257945059273097,-1.091168459426491,-0.912695194063057,1.368969625800484,-2.146960259200178,1.0638989214254033,0.0801159312669338,-0.44363879105088366,0.03747305761844571,-2.466757501725344,-1.4688107036388154,1.204107414446347,-2.466647676932477,-1.4691301144381097,1.2004566596861153,LR
1.5021052518539937,0.7876384414888524,-1.113601922898892,-0.10626494096947584,0.4733125184770419,0.841405867255789,-1.7163098166241257,-1.1929083612414906,-0.9275812335093763,-1.738117199708456,-1.1682613705249218,-0.9193808615963688,1.330936040820085,-2.1452518949249626,1.0610466656383075,-0.11026280199231282,0.012947155041543227,-0.22696104887148627,-2.4668648485082323,-1.4685787791168656,1.2040339338154311,-2.468676169849405,-1.4494449113746684,1.1989747832277085,LR
1.4980852201581012,0.8100043762266088,-1.1390456119607388,0.09939405052916929,0.5611382690622482,0.5752047053509994,-1.7142816509958063,-1.1917168479844866,-0.928117226306786,-1.6178839252701398,-1.1603335363412415,-0.9593499502844727,1.348224001805871,-2.1537951160259707,1.0570534608048945,0.5454861912151087,-0.13233018958870962,-0.25340450282156607,-2.4666947139844084,-1.4686407338739684,1.2038867082347824,-2.478332767867115,-1.4585342632184675,1.1955230471540697,LR
1.4820050384875576,0.7866219784422722,-1.1226487068554827,0.2136490724148978,0.4293995712771028,0.604782633755434,-1.7137152496964554,-1.1901415278767187,-0.9280446439488033,-1.693657637302318,-1.1340600392847564,-0.9299346852514973,1.3464952057072925,-2.1546492981635783,1.053060255971482,0.7570182094276705,0.5110409255373068,0.011029638309235191,-2.4664975739806136,-1.4682121909252734,1.2037534915513948,-2.484423645135309,-1.4576074918021877,1.1931034310474586,LR
1.5074653490021568,0.7978047376048729,-1.113601922898892,0.2822018400810457,0.2757046875213318,1.4625415888084297,-1.7138430353554555,-1.1895458149221871,-0.9276510242382056,-1.7306145193295404,-1.1746224273151717,-0.9228003339029025,1.3136480090226292,-2.1196218816907053,1.0758783022682497,0.735864979895728,0.2827478641313378,-0.015413786022901362,-2.4653667195067865,-1.4676041415078542,1.2039784268640192,-2.4367743060277953,-1.4399627321543496,1.2111139903801382,LR
1.5021052518539937,0.7856050989831374,-1.1209522756422625,0.1907977507289636,0.2317917403213927,1.314652140521378,-1.7136979813641575,-1.1889305360289728,-0.927405360872726,-1.7131926907266237,-1.171089749795391,-0.928282079646139,1.3620544414061695,-2.1546492981635783,1.0502080001843859,0.672405429853332,1.0713963374814157,-0.041857200309185834,-2.4653538919037996,-1.4669468529385015,1.2037994830254215,-2.489237773035961,-1.4655754401477246,1.1914923748230637,LR
1.490045156766316,0.7327402758973194,-1.129999059598853,0.05369184794710378,0.2976610173066294,0.841405867255789,-1.7139768649307592,-1.1882291320663791,-0.9271457393614807,-1.7284297911815414,-1.17008202388488,-0.9229396767026796,1.260055188343353,-2.14610607706257,1.0730260464811536,0.6512522003213895,0.44877924330753594,-0.3062912375173793,-2.4644964679146892,-1.465679282957205,1.2038417740360206,-2.4479161711480195,-1.4132285534322868,1.2055476606269262,LR
1.5168454229592394,0.8435530701269656,-1.1226487068554827,0.3736057797591709,0.3635302942918661,1.9357870871335345,-1.712455524855367,-1.1876735991644993,-0.9272155300903101,-1.6525010116940633,-1.178646776500249,-0.9499526718674957,1.436392815268389,-2.146960259200178,1.0456444376565106,0.7147117503637853,0.46953304675873586,0.03747305761844571,-2.4645977384645836,-1.466267582604893,1.2036538433576702,-2.495602625062728,-1.5036949368075978,1.1900400251683112,LR
1.522205465220429,0.7337567389438995,-1.1102095236618612,0.09939405052916929,-0.09755493223413483,1.8174759547211596,-1.714512183231976,-1.18842243305881,-0.9262915008406093,-1.8178235947042054,-1.222744376440472,-0.8993266458524283,1.3032752324311576,-2.1563580123700263,1.0342354145081267,0.9897033186187432,0.30350193945870874,-0.015413786022901362,-2.4648016298383726,-1.4655850657337939,1.2032948984052088,-2.510685407892486,-1.4350801897288221,1.1819072361867424,LR
1.5168454229592394,0.7673058492568112,-1.154311871716788,-0.3347748650017674,-0.4269014609749904,1.669586506434108,-1.7129407649929207,-1.1892951263328169,-0.9267214117301983,-1.6194380457665876,-1.2138032232096687,-0.9655451311625689,1.344766409608714,-2.1768618829849395,1.045073846304656,1.5819929141925437,-0.0700684842494642,0.6985582805421892,-2.464363465925827,-1.4656348459753092,1.203185206096467,-2.5038853003995123,-1.4572317409537592,1.1854615251766452,LR
1.4860251250704235,0.7815388303842621,-1.1277373057110291,-0.7460926683903094,-0.756247989715846,0.014230713355838028,-1.7129571699086035,-1.188999366206124,-0.9269056592543076,-1.683037239586017,-1.1448547929458728,-0.935059713427304,1.3706984218990625,-2.1315825312046104,1.0644692791198656,1.7512179191274935,0.0544550202263056,1.2274266667263993,-2.4631043354221323,-1.4658487116324705,1.20351798348612,-2.460303744160675,-1.4696371663076475,1.2029566836062493,LR
1.4913851673316136,0.8039043487094635,-1.1249102291486017,-1.0888575544387467,-0.7342915161158763,1.8470538831255943,-1.7131626630629417,-1.1887934871102543,-0.9267465363925765,-1.6725124668004843,-1.1457801948768764,-0.9387857398933476,1.3378512252143993,-2.126456738516498,1.053060255971482,1.4762267665328312,0.07520887805273975,1.3067568553722926,-2.462182098281089,-1.4656810414983457,1.203780980708284,-2.473949171729936,-1.4523163900805605,1.1970157325316717,LR
1.4954051990275061,0.8069545706743135,-1.1113404006057732,-1.1574098730830242,-0.8440738841157243,2.3794556257298103,-1.714278197329347,-1.1886457817427891,-0.9262049603368607,-1.7218023804392062,-1.1480948795066395,-0.922220667855829,1.368969625800484,-2.1768618829849395,1.0581944098512113,1.4127679092575942,-0.11157626379323268,1.3860870440181854,-2.4616993753265897,-1.466010835598383,1.2039356072157879,-2.485667328583711,-1.4698115620315382,1.1930288231417965,LR
1.5181854335245368,0.7937380525934428,-1.1271719830364257,-1.2259630897710425,-0.9318994908862586,2.0245212598170808,-1.7149516622889422,-1.189716143406254,-0.9260374625876702,-1.6909732473539083,-1.1998523674297252,-0.939585567564069,1.3464952057072925,-2.1085157642456416,1.0616170233327697,1.6031458666176228,-0.40213091227231273,1.2274266667263993,-2.4603322229030073,-1.4662947047201749,1.204322305643955,-2.4551393874430283,-1.4564132105226235,1.2045371584982882,LR
1.512825391263347,0.796788274558293,-1.114732799842804,-1.3402180517871882,-1.107550992056671,1.9357870871335345,-1.7163555777047133,-1.190513368059628,-0.925638259618766,-1.7307213435765243,-1.1853090761327096,-0.9241770407647014,1.3326648369186636,-2.1136419068649857,1.062187381027232,1.1377757867889091,-0.4643927304401691,1.2803134014222126,-2.4594687226809033,-1.466442151631184,1.20466618442389,-2.4555854399440555,-1.4493874293608187,1.2041045380983157,LR
1.4940651884622087,0.7927215895468628,-1.1062515701555218,-1.2488144114569768,-1.4368976646121987,0.014230713355838028,-1.718289630922012,-1.191017540372466,-0.9253618883326016,-1.754905836202232,-1.149338041511411,-0.9110258673217256,1.3776136062933773,-2.105098335832745,1.0559125117585777,1.5819929141925437,-0.6926856559080525,1.5711908752600514,-2.458330441700084,-1.4672665016088822,1.2050653058364207,-2.4635455538655724,-1.4724381202971324,1.20177455693137,LR
1.4887051462010186,0.7815388303842621,-1.12547578341791,0.05267518085996921,-0.029907099200566903,1.1667624984992055,-1.7177638102035588,-1.1901672081712396,-0.9252725561997002,-1.6928926378561733,-1.1491168504369593,-0.9322672837197681,1.3171056012197866,-2.122185127965994,1.0616170233327697,1.370460618873118,-1.3360566894712178,1.5976341560057847,-2.457349467640101,-1.4678938949788467,1.2054530615398527,-2.4588441200158595,-1.4415769346719323,1.2025222177810484,LR
1.4913851673316136,0.8008545431571682,-1.12547578341791,0.05267518085996921,-1.656462544426566,0.6343607558949895,-1.7168658569240987,-1.1907451894938401,-0.9254260958031247,-1.673746114555979,-1.1470648684424398,-0.9385377097097438,1.3585968492090124,-2.1290196348605535,1.099266939916872,1.0320097776826282,-1.4190724470283596,-0.015056789521927549,-2.455612340140903,-1.4690173322228215,1.2058878659925767,-2.4079408245392764,-1.463839214407759,1.2232798243822927,LR
1.4806650279222604,0.8059376912151786,-1.1141674771682004,0.05267518085996921,-1.8979834663968873,0.5752047053509994,-1.7165748855248888,-1.1910213836818502,-0.9253144306369976,-1.7031270899059507,-1.121761955373652,-0.9249573604434541,1.4398504074655463,-2.1196218816907053,1.0747373532219329,0.7147117503637853,-0.07454092474708618,-0.015056789521927549,-2.4548359325917084,-1.469969041160809,1.2060612591360336,-2.442866532925342,-1.5052935284203663,1.210697715175046,LR
1.4712849539651778,0.7835717564774223,-1.1294337369242495,-1.7743873265356216,-1.7882010983970393,0.8709836019251025,-1.7170877549941195,-1.1911092557100407,-0.9253898046241334,-1.6656739920217691,-1.1175202603955439,-0.9372306742478335,1.3620544414061695,-2.1256022064476574,1.0981259908705552,0.6935585208318429,-0.07454092474708618,1.5183041405642381,-2.4534019416051955,-1.4701012699273335,1.206825140514983,-2.408448959990523,-1.4655117057042981,1.2231342994214243,LR
1.4552047722946346,0.7713721178556867,-1.1130366002242886,-2.0714497188861474,-1.7223311023384429,0.9301392649988505,-1.719080520541228,-1.1905383495706245,-0.9249347690721659,-1.7274192682645053,-1.087590162886219,-0.9115999596568075,1.382799994589113,-2.122185127965994,1.0758783022682497,0.7147117503637853,-1.3775645682497886,-0.015056789521927549,-2.452622833508004,-1.4713913627624677,1.2069839961235467,-2.440501982299621,-1.475820684698096,1.2108980756284153,LR
1.4578847934252295,0.7917051265002827,-1.1237795837993947,-2.3456613882465662,-1.5247239904560925,0.22027014570314837,-1.7200907179806206,-1.1898100424423421,-0.9250492258674459,-1.668835645138157,-1.0879746910282924,-0.931913353008334,1.3897152497950969,-2.1230393101036014,1.0855760186758545,0.5031798707046553,-0.7757012775271089,-0.015056789521927549,-2.4517370537649223,-1.4722903154662406,1.2072493722150568,-2.426801894741582,-1.4795440401261992,1.2163665978445222,LR
1.443144677206957,0.7937380525934428,-1.12547578341791,-2.4142150539564553,-1.5247239904560925,0.7526720820424855,-1.7207805878558975,-1.188548388789079,-0.9250911003047437,-1.6509150162206927,-1.0605630780640296,-0.934050871556917,1.3672408297019052,-2.13841703809917,1.0878579167684883,0.5666394207470511,-0.9209785813759361,-0.015056789521927549,-2.4508546497068378,-1.4730525754144403,1.2074904309754728,-2.428400530709713,-1.4683630152825238,1.2154104039440343,LR
1.4578847934252295,0.7906882470411477,-1.1175598764052315,-1.7286843838158397,-1.3490719140269922,1.1667624984992055,-1.7217070338836487,-1.187671328118045,-0.9248342704226513,-1.6923955605133516,-1.0863928820802176,-0.9235444244537128,1.3274783778112582,-2.126456738516498,1.0912805302500463,0.5454861912151087,-0.6926856559080525,2.2587196387360478,-2.4497852326999467,-1.473214902288946,1.2083087620305686,-2.4173882300073366,-1.4476034700187088,1.2190121467255244,LR
1.490045156766316,0.8039043487094635,-1.1232140295300863,-1.7972380495257283,-0.8440738841157243,0.9005615303295371,-1.7222777522660742,-1.187439681379714,-0.9249096444097872,-1.6779303513914814,-1.1427718739144686,-0.9365228128249649,1.3914440458936754,-2.1230393101036014,1.0929918369908256,0.5031798707046553,-0.09082233799775578,1.8356247219434638,-2.4487651006940045,-1.4735955588096619,1.2090208369215338,-2.4159906888127405,-1.4805327307644152,1.2206253120073236,LR
1.4753049856610705,0.7825552934308421,-1.113601922898892,-1.3859199467892724,-0.3829886575897232,1.1076064479552155,-1.7235711503551419,-1.1864037348048246,-0.9245299828449555,-1.7267033735125379,-1.120477806164646,-0.9166581032887214,1.3153768051212078,-2.1307283490670015,1.0787305580553457,0.735864979895728,0.24124012129085237,1.4654174058684248,-2.4479893682818092,-1.4729365793353664,1.2094733507349462,-2.436777680101177,-1.441273254839699,1.2111648713900072,LR
1.490045156766316,0.796788274558293,-1.1181251990798349,-1.2031125164548926,0.10005307129918169,1.551274986551491,-1.724234254315359,-1.1854246517392315,-0.9242843194794758,-1.7043099099955417,-1.1438557189185583,-0.9276355290551725,1.3101904168254719,-2.159775090851691,1.062187381027232,0.2704946229601509,0.8431035479516176,-0.015056789521927549,-2.4482519965745366,-1.4718100984624944,1.2093118519382204,-2.4712715070944165,-1.4392586951379345,1.1975524876409613,LR
1.4887051462010186,0.8262702834472195,-1.1249102291486017,-1.0431556594366624,0.5172253218623091,1.669586506434108,-1.7236479944338647,-1.1838328228707002,-0.9243596934666116,-1.6463172661710577,-1.1324918636071732,-0.9459368123779154,1.2963599772251735,-2.1307283490670015,1.0804418647961247,0.6089457412575044,0.635564425934934,1.7298505597344527,-2.4474782895733393,-1.4706671143573813,1.2098626923512756,-2.433369191171236,-1.431498152655236,1.2120978656590524,LR
1.4779850067916653,0.8018714226163032,-1.1277373057110291,-2.2771077225366776,-0.9318994908862586,1.1963404269036402,-1.7242549763141148,-1.183399664433527,-0.9244657753744323,-1.6561485428370561,-1.122509862609985,-0.9411935834734982,1.3585968492090124,-2.0914293220436244,1.082153405194296,0.9262437685763473,0.30350193945870874,2.1000592614442617,-2.4462333369466305,-1.4704493934369505,1.2105967057039895,-2.4189119615464,-1.4625555838926318,1.2189409660381434,LR
1.4672649222692853,0.8272871629063547,-1.126606660361822,-2.0257482729059335,-0.9758124380861977,1.669586506434108,-1.72390442916848,-1.1823569047192748,-0.9246165233487039,-1.6254925684101766,-1.0924328578718363,-0.9474807305994474,1.3430376135101352,-2.0803232045985607,1.0656102281661826,0.5454861912151087,0.5110409255373068,2.2058334236532735,-2.445708755498174,-1.4699375226926759,1.2111456958853313,-2.4386280219435643,-1.4538431258144957,1.2109160026163484,LR
1.490045156766316,0.815087524284619,-1.0977703404682395,-1.637281491855412,-0.5366836851601662,1.8174759547211596,-1.7260482926231913,-1.1817684416438086,-0.923890699768878,-1.7601436702479094,-1.1309194056843717,-0.9066226348487648,1.3015463655209094,-2.1409802843744585,1.062187381027232,0.4397203206622594,0.3865175610777651,1.9413988841524754,-2.4457519642661296,-1.4691026891043326,1.2114417329595262,-2.4640847307919285,-1.4341768145006353,1.2001590189599918,LR
1.4967452095928035,0.780521950925127,-1.160531579110951,-1.3630693734731225,-0.22929348620460824,1.906209352464221,-1.7241410053209534,-1.1817915888480535,-0.9245690656531,-1.571753080290217,-1.174649082106838,-0.9768374716565164,1.2531400039490386,-2.1452518949249626,1.0696034329995954,0.947396859554858,0.19973224251228147,1.624077783160211,-2.4451929508307093,-1.4679258869003642,1.211731426382131,-2.4521965206397276,-1.4095629489397354,1.2036835175140643,LR
1.4833451039398284,0.7947549320525779,-1.1215178299115707,-1.637281491855412,-0.9977687678714952,0.014230713355838028,-1.724967295021379,-1.181729222418503,-0.924717021998218,-1.689896390025439,-1.1331880343298453,-0.9311051647696257,1.2531400039490386,-2.148668973406626,1.083294354240613,0.947396859554858,-0.734193398748538,1.624077783160211,-2.444224804373713,-1.467496870498285,1.2121873763401547,-2.4335378948403092,-1.4100096278871248,1.211039909738827,LR
1.5047853278715617,0.7937380525934428,-1.134522335779796,-1.7972380495257283,-1.0416817150714344,1.669586506434108,-1.7250372317671834,-1.1824678366037698,-0.9248817281182553,-1.65619937050296,-1.1771309490856434,-0.9484979330378213,1.244495952644476,-2.1273109206541054,1.0696034329995954,0.9050905390444046,-0.962486460154507,1.8620678294848514,-2.443629333540331,-1.4670543944928616,1.212538127409312,-2.4451285117202657,-1.4043650958183533,1.2061977775716746,LR
1.4846851145051263,0.7917051265002827,-1.135653212723708,-1.7286843838158397,-1.3710282438122898,1.018873050212154,-1.7248774996934328,-1.1828254390723698,-0.9251580994044197,-1.6424888229968821,-1.1410894759001378,-0.9484115405019593,1.2030047754669198,-2.1136419068649857,1.0758783022682497,0.8839373095124622,-0.5681621555104254,2.3380489613602093,-2.4426794157823157,-1.4659347448759585,1.2131251795001934,-2.428275689994599,-1.382452279834563,1.2116280731223363,LR
1.4645849011386902,0.8110208392731887,-1.1316952592173686,-2.18570483057625,-1.1953768864565493,0.9301392649988505,-1.7247246749526022,-1.1821063908257856,-0.9254512204655033,-1.6233250699794326,-1.0954318278089707,-0.9486512101175762,1.2894447928308592,-2.1349999596175064,1.0633283300735488,0.0801159312669338,-0.4851465338913691,2.5231541782368456,-2.4429521711300333,-1.4656880756629076,1.213541745954596,-2.4596309539284142,-1.4277436023096748,1.2016258683843961,LR
1.4779850067916653,0.8110208392731887,-1.1283028599803375,-2.1400033845960365,-1.261246163441786,0.4273152570639479,-1.7249517535223116,-1.1819366737773025,-0.9257722578181184,-1.6440584502388598,-1.1192474908955299,-0.9448861676675949,1.2842584045351233,-2.1358541417551145,1.0667511772124993,-0.3006416045282753,-0.734193398748538,2.2587196387360478,-2.443391685316578,-1.4655766112090802,1.2139273871074983,-2.454657569764157,-1.4251669290198428,1.2034625937510073,LR
1.4833451039398284,0.8008545431571682,-1.1277373057110291,-2.0028960531762583,-0.8440738841157243,0.10195854832648292,-1.7253886423294333,-1.1816693017312876,-0.9260765453958147,-1.6605576274827432,-1.132828850088045,-0.9411099777936319,1.3067328246283147,-2.1119331926585376,1.0673215349069618,0.39741386159837433,-0.42288485166159817,2.1529454765270364,-2.4431540370928237,-1.4654568275029345,1.214357698140346,-2.4461866211326884,-1.4359590930821062,1.2072575789171285,LR
1.476644996226368,0.8018714226163032,-1.1294337369242495,-1.8429394955059422,-1.0416817150714344,0.6639386842994242,-1.725452535158934,-1.1813385150804354,-0.926302667357222,-1.6491377708857864,-1.1205562848627328,-0.9433255283100899,1.2756144240422302,-2.0811773867361687,1.0650398704717203,0.12242229334341666,-0.7757012775271089,2.047173046361487,-2.442923815376063,-1.4652476287434153,1.2148162912865317,-2.43652260015354,-1.4185695401296758,1.2102798581769005,LR
1.4686049328345827,0.7957713950991578,-1.1169945537306278,-1.9571946071960447,-0.8879866875009914,0.309004124651573,-1.727459115371881,-1.1809563678405417,-0.926196585449401,-1.6959698653580084,-1.1040822253287108,-0.9248932627555565,1.2894447928308592,-2.1059528679015855,1.099266939916872,0.16472861385387,-0.7964552169163943,2.1529454765270364,-2.4417862095322427,-1.4655176324446766,1.2158738308703296,-2.396236838793703,-1.4274258713185006,1.2264948187623448,LR
1.4659249117039876,0.8120377187323239,-1.1401764889046508,-1.5687278261455233,-0.5366836851601662,0.1906924110338349,-1.7261095952028465,-1.179783896434577,-0.9268526183003976,-1.592280565428441,-1.1002995171238228,-0.9599825665954613,1.2911735889294378,-2.1102244784520896,1.088998865814805,0.3762606320664318,-0.5889160948997108,1.8091816144020767,-2.44093081095413,-1.4653655862722228,1.2164429092817062,-2.412952673140082,-1.4282620833515574,1.2199707133155917,LR
1.445824698337552,0.817120866790334,-1.1220831525861743,-1.2031125164548926,-0.3171192367898145,0.24984807410758286,-1.7254188619109534,-1.177532153875212,-0.9270284909370474,-1.6392694503276886,-1.0549411018413966,-0.9372362479598247,1.256597596146196,-2.111078660589697,1.0804418647961247,0.33395417300254676,-0.25685360842348554,1.9413988841524754,-2.44034276662774,-1.4646104281247827,1.2169268770342518,-2.42395755088102,-1.4102044616603842,1.2148143315952604,LR
1.4672649222692853,0.796788274558293,-1.1220831525861743,-0.7460926683903094,-0.27320643340454737,0.8118281325864757,-1.7250804025979267,-1.1762429856206764,-0.9269726583539841,-1.6755069916594931,-1.1028032322925188,-0.9317600759285791,1.222021603362954,-2.105098335832745,1.09356242834268,0.630098970789447,-0.52665441266994,1.3596435900681059,-2.439084311261045,-1.4637087023369038,1.2174372766684216,-2.400481423107567,-1.3923652716218402,1.2231245450309312,LR
1.4846851145051263,0.817120866790334,-1.1537465490421843,-1.1802611947689583,-0.5586400149454638,0.6343607558949895,-1.7225713139151282,-1.1759287950785284,-0.9279190206369102,-1.548509330226661,-1.1375367854384173,-0.9799503898035399,1.2911735889294378,-2.122185127965994,1.0969850418242384,0.8416309890020088,-0.23609966903420007,-0.015056789521927549,-2.437804926647372,-1.4633467810429537,1.2176228284774258,-2.405792214609969,-1.428854181709423,1.2228063409951195,LR
1.4820050384875576,0.799838080110588,-1.1350878900491044,-1.1802611947689583,-0.9758124380861977,0.6343607558949895,-1.7218270487931149,-1.1759025033484236,-0.9282512245061384,-1.6340479845134042,-1.1329958576515682,-0.9502007020510991,1.2825296084365445,-2.1349999596175064,1.0747373532219329,0.3762606320664318,-0.1945919125999061,1.6505212371102906,-2.4376212893835625,-1.4628721778436176,1.2178847684243252,-2.442575687799861,-1.4244071579806423,1.2081721189338899,LR
1.4578847934252295,0.8191542092960491,-1.1633586556733786,-1.1117081277548966,-0.8440738841157243,0.6639386842994242,-1.718271499173099,-1.1749106674835106,-0.9293985840880935,-1.4959595540831956,-1.0905438633739004,-0.9915353501770198,1.2168351442555487,-2.1085157642456416,1.0912805302500463,0.4397203206622594,-0.52665441266994,-0.015056789521927549,-2.436639640186581,-1.461953204825322,1.218030936729709,-2.4047779681515054,-1.3897774380813657,1.2212928286756541,LR
1.4833451039398284,0.8242373573540595,-1.131129936542765,-1.294516156785104,-1.0416817150714344,0.841405867255789,-1.7174754290541931,-1.1748071601739623,-0.9297168298115553,-1.622347283525182,-1.1251731569576415,-0.9531324745584121,1.3101904168254719,-2.1016812573510806,1.0678921262588161,0.8204777594700663,-0.25685360842348554,-0.015056789521927549,-2.4361434144920953,-1.4618138066218405,1.2179291739854547,-2.441720022790325,-1.4374177916253794,1.2090700501235951,LR
1.4538647617293372,0.8028878856628833,-1.1096439693925526,-1.3173674784710383,-1.107550992056671,1.0780287132859019,-1.718378562833343,-1.1736931245402238,-0.9292506277429751,-1.7053178484549898,-1.0715693222032863,-0.9168559700644053,1.3171056012197866,-2.099118361007025,1.0735966378330082,0.9262437685763473,-0.17383797321062067,1.2538699474721329,-2.435400763792866,-1.4616893560180526,1.218188206425375,-2.4326734572399817,-1.4410378138894042,1.2127651186952073,LR
1.4659249117039876,0.8191542092960491,-1.120386952967659,-1.3173674784710383,-0.4049451311896927,1.2259181615729535,-1.718282723589092,-1.1723640382768583,-0.9291612956100732,-1.6564216338555564,-1.091079056633459,-0.9366426476327734,1.2773432201408088,-2.1213305958971533,1.091851121601901,0.672405429853332,0.0544550202263056,1.14809630487616,-2.4344461200758554,-1.461008935869083,1.2185622175503625,-2.412254239950122,-1.421583009494341,1.2199493591093773,LR
1.5114853806980493,0.815087524284619,-1.1526156720982725,-0.5404339163699953,-0.11951130516383401,0.8709836019251025,-1.7157969471548948,-1.1727352670241835,-0.929995992726873,-1.5699594667239176,-1.1875557691955332,-0.9790530221729744,1.2462247487430547,-2.1409802843744585,1.0884282744629503,0.312801082024036,-0.5059004732806545,0.7514451884423486,-2.433980950683338,-1.4604438354372098,1.218741690026593,-2.422854903699962,-1.4062651621053972,1.2150516005531977,LR
1.5101453701327519,0.8039043487094635,-1.148657718591933,-0.7460926683903094,-0.33907571038978407,1.3738076098600052,-1.7140614797590157,-1.173298049805129,-0.9305291938951293,-1.596247707826524,-1.1877069586695759,-0.9701796726831597,1.244495952644476,-2.1187676995530973,1.082153405194296,1.053162868661139,-0.8587168991461652,0.9629924736342944,-2.433009428541346,-1.4601084951689602,1.2189568455430169,-2.4236268916896377,-1.404301226914076,1.2146482433247043,LR
1.4645849011386902,0.7937380525934428,-1.1430035654670783,-0.7232413467043753,-1.261246163441786,1.6991644348385426,-1.7124486175224485,-1.1730334728932117,-0.9307329828233112,-1.6015949505767737,-1.105688504249463,-0.9575440675993595,1.2479536156533029,-2.0999725431446326,1.0924214792963631,-0.03400563952835668,-0.9832403995437925,1.5976341560057847,-2.4323984295569794,-1.4598960498719509,1.2194838972626103,-2.401750074698992,-1.4055481496168498,1.2233111966111752,LR
1.4659249117039876,0.8039043487094635,-1.1277373057110291,-1.431622440487184,-1.3271154404270227,1.3738076098600052,-1.712367456360651,-1.1727067915955653,-0.9306743586110946,-1.6463775701814523,-1.0993818057556608,-0.9412939102893376,1.2462247487430547,-2.126456738516498,1.0844350696295377,0.524332961683166,-0.6719317165187672,1.5183041405642381,-2.431829964203569,-1.4594606080310895,1.2198132385076519,-2.4232651910231464,-1.4055693944313254,1.214855458214636,LR
1.409644303300573,0.8283036259529347,-1.147527073242726,-1.1802611947689583,-0.4269014609749904,0.604782633755434,-1.7093696738738384,-1.1694423370134963,-0.9313918073034606,-1.5114861137880047,-0.9922901064388893,-0.9719047365444022,1.2894447928308592,-2.1392715701680105,1.0633283300735488,0.20703507291775505,0.09596281744202519,1.14809630487616,-2.4322600264721235,-1.4589214798991372,1.2197754409169288,-2.461181678054529,-1.4278980305971753,1.2010239961277613,LR
1.5061253384368596,0.8323703109643649,-1.1339570131051924,-0.42617865500593577,-0.7342915161158763,1.6104304558901181,-1.7078966851288782,-1.1699862526392835,-0.9316570120730124,-1.6164038925578912,-1.1658148102209793,-0.9605650194985301,1.2323943799544257,-2.1281651027917143,1.0867169677221713,1.2435416573417581,0.0544550202263056,0.566341357200483,-2.4311089178883165,-1.4578333487503674,1.219905750093338,-2.4197608784091726,-1.3985688919095294,1.2158717602511349,LR
1.559725870822706,0.7978047376048729,-1.1237795837993947,-0.3347748650017674,-1.3051591106417253,0.014230713355838028,-1.7084941694263656,-1.1732127108672143,-0.9318021767889771,-1.7221288835811979,-1.2750579444926518,-0.9381280418783989,1.25141120785046,-2.1136419068649857,1.0678921262588161,-0.03400563952835668,-0.0078067707539336674,0.8572188310383214,-2.4313620942630547,-1.4569889108219491,1.2199242524104754,-2.443010268451391,-1.407332848493641,1.2071821801149396,LR
1.4739649750957728,0.796788274558293,-1.1113404006057732,-1.2488144114569768,-0.029907099200566903,1.3738076098600052,-1.7097918845985076,-1.1719745538099584,-0.9312578091041082,-1.7189904905831057,-1.1118967984959982,-0.9180849735584405,1.298088773323752,-2.1162048032090417,1.0684624839532786,0.8416309890020088,-0.4643927304401691,1.1216528509260806,-2.431035327955393,-1.4569844468329005,1.220003812374165,-2.4456555419824486,-1.431645387287202,1.2072826239737997,LR
1.445824698337552,0.7978047376048729,-1.120386952967659,-1.3859199467892724,-1.4368976646121987,0.9597175808735271,-1.7101294804949205,-1.1710237714771026,-0.9310261038843944,-1.666550984630075,-1.062196448740246,-0.9288812536851812,1.3050040285297362,-2.142688648649674,1.085005660981392,0.7993245299381239,-0.8172091563056798,1.4125304979682654,-2.4304634869169863,-1.457334734700844,1.2202617875388204,-2.4315465167305774,-1.43644684981951,1.2130213691697798,LR
1.4619048800080952,0.815087524284619,-1.126606660361822,-1.0660062327528124,-1.0416817150714344,1.906209352464221,-1.7095682596952577,-1.170239212275108,-0.930889314055889,-1.6356193347271073,-1.087203537317916,-0.9432474963422148,1.2375807682501616,-2.1213305958971533,1.0998372976113342,1.264694748320269,-0.7549473381378234,1.5183041405642381,-2.4289072961336005,-1.4569247240703218,1.220766900796666,-2.3984367346384086,-1.4012686641085532,1.2243965702776514,LR
1.4846851145051263,0.8242373573540595,-1.1407420431739592,-1.0431556594366624,-1.063638188671404,1.6104304558901181,-1.7079795731239058,-1.1702987835705612,-0.9312885170247929,-1.5878792341555188,-1.1307508250511762,-0.9656538185463952,1.2998175694223308,-2.1144960890025937,1.0907101725555841,1.2858481164056434,-0.25685360842348554,1.068766116230267,-2.427710953370841,-1.456786475682201,1.2210634665084932,-2.412478953237327,-1.4329195383123257,1.2203550890274506,LR
1.476644996226368,0.8222040148483444,-1.1441344424109903,-1.0203043377507282,-0.5366836851601662,1.1963404269036402,-1.7061663982326887,-1.1696859504196824,-0.931810551676437,-1.572984143588124,-1.117635968409204,-0.9689646034691023,1.270427964934825,-2.1033899715575286,1.082153405194296,0.8204777594700663,-0.38137697288302724,0.8836622849884013,-2.426945348013635,-1.4564328736405694,1.2212609126642284,-2.4193357451631092,-1.4171076817564017,1.2169616156645942,LR
1.4605648145558243,0.7988212006514531,-1.1316952592173686,-0.8146457354043709,-0.7123351863305788,0.7822498167117989,-1.7054428551094314,-1.1687439902288217,-0.9319194252134109,-1.634232342488038,-1.0927043871757958,-0.9445155158201874,1.270427964934825,-2.1068070500391936,1.0912805302500463,0.46087341164077017,-0.44363879105088366,0.6192280918962961,-2.4262114740953966,-1.4561385885443303,1.2214906057155457,-2.4072545380134893,-1.417442354814816,1.2217225491216963,LR
1.4605648145558243,0.8110208392731887,-1.1237795837993947,-0.8146457354043709,-0.9099431611009609,1.2850738246467015,-1.705041366383519,-1.1678509448846675,-0.9317938019015177,-1.6495211320947214,-1.0853817478520835,-0.9381949264222919,1.1736151709794138,-2.0999725431446326,1.0838647119350753,1.053162868661139,-0.04931455437584473,0.6721148265921094,-2.4251123510605357,-1.4545422390059621,1.2216550120192504,-2.409454433858195,-1.3667683627784706,1.2181031429844489,LR
1.4712849539651778,0.8039043487094635,-1.146396196298814,-0.4718808493559337,-0.8879866875009914,1.0484509786165885,-1.7030062934222812,-1.1675539618868074,-0.9322655872284046,-1.5821365693942548,-1.1152910458846326,-0.965520049458609,1.2496824117518814,-2.099118361007025,1.0673215349069618,0.7147117503637853,-0.277607547812771,0.5927846379462164,-2.4248564741378016,-1.4539303343252734,1.2216143069215484,-2.4383648442198114,-1.4058147182541767,1.2089313795992893,LR
1.4645849011386902,0.814071061238039,-1.1277373057110291,-0.5404339163699953,-0.9318994908862586,1.2259181615729535,-1.702116110892356,-1.1668557024500732,-0.932273962115864,-1.6343391667350224,-1.092958787498881,-0.9445127289641921,1.2030047754669198,-2.093138036250073,1.0969850418242384,1.053162868661139,-0.0078067707539336674,1.0158793815344538,-2.423388726301324,-1.4526551890898334,1.2220274372313402,-2.3897201534647703,-1.3820475526727203,1.226787977741485,LR
1.4471647089028494,0.8079710337208937,-1.1401764889046508,-0.7917944137184368,-1.261246163441786,0.9597175808735271,-1.700469575407808,-1.1659510398298263,-0.9326005827267857,-1.5851155875077338,-1.0672241541978562,-0.9577307869510613,1.2133775520583914,-2.0828861009426167,1.057623818499357,0.8839373095124622,-0.23609966903420007,0.4870109953502436,-2.4231645808175566,-1.4516500475556544,1.2218865553022813,-2.4443410029930357,-1.3859021418915074,1.2054999432031634,LR
1.4672649222692853,0.8181373298369142,-1.1571389482792154,-0.9974531657387509,-1.261246163441786,0.8709836019251025,-1.697824930316475,-1.1658414181644396,-0.9334604045059637,-1.5249580297100944,-1.106092695762438,-0.9837711693734319,1.2306655838558471,-2.0914293220436244,1.0952737350834594,0.7147117503637853,-0.38137697288302724,0.8572188310383214,-2.422045878809717,-1.45098011101733,1.2222460288923753,-2.393302744581194,-1.3962805699149037,1.2261568423133715,LR
1.4444846877722546,0.8069545706743135,-1.1271719830364257,-0.7003907733882252,-1.3710282438122898,1.2259181615729535,-1.6971126116092115,-1.1648763981172747,-0.9333626974856024,-1.631233510199715,-1.0582891184602223,-0.9405163774665809,1.2393095643487404,-2.111078660589697,1.0929918369908256,1.2223885663632474,-0.3398692300425419,0.5927846379462164,-2.4208117283749964,-1.450399318987588,1.2224551050760255,-2.404621411146606,-1.4015558724865254,1.2219798541249707,LR
1.4498447300334445,0.8211871353892095,-1.1492232728612415,-1.0888575544387467,-0.029907099200566903,1.2259181615729535,-1.6949022650751566,-1.162968631747784,-0.9339349814620034,-1.5394120395157482,-1.0700583013904568,-0.9738276671813278,1.235851972151583,-2.1213305958971533,1.0758783022682497,0.9685500890868006,-0.29836135126397095,0.7514451884423486,-2.4203560109004694,-1.44976435036348,1.2224680566980215,-2.4332295045332444,-1.3997926201154867,1.2106389251999128,LR
1.4913851673316136,0.8293205054120698,-1.132260813486677,-0.677539451702291,-1.0855946622713735,0.841405867255789,-1.693909335968061,-1.1633508663356185,-0.9342448522980058,-1.6173765100969648,-1.1387027796364957,-0.9566634211047674,1.2583263922447745,-2.1674641298150914,1.0827237628887583,1.1377757867889091,-0.25685360842348554,0.3019071641083777,-2.420011015893827,-1.4493765920420045,1.2223240029431677,-2.441529725051611,-1.4133994531740484,1.2080656115349935,LR
1.435104558928199,0.8232204778949246,-1.1220831525861743,-0.7460926683903094,-0.029907099200566903,0.9597175808735271,-1.6931944270109527,-1.160721693325149,-0.9341499369067978,-1.6252780584303455,-1.0324453316025044,-0.9386659050855392,1.2272079916586898,-2.105098335832745,1.0924214792963631,1.2223885663632474,-0.23609966903420007,-0.12118742359594813,-2.4187741649111096,-1.448620554623994,1.2223816244451091,-2.4024647034411837,-1.3950206717399976,1.2224868187984306,LR
1.4699449433998804,0.8039043487094635,-1.162793332998775,-0.5861358113720795,-1.5027663663387474,1.0780287132859019,-1.6902959374348503,-1.1611737189174804,-0.9349874256527505,-1.5224433524766516,-1.1181731717022325,-0.9862514712094668,1.25141120785046,-2.1204764137595458,1.1038305024447472,-0.03400563952835668,-0.4643927304401691,0.4870109953502436,-2.4182759138056267,-1.4483168004600753,1.2226620667091455,-2.3931063735103932,-1.4084522350791364,1.226851249463602,LR
1.4471647089028494,0.8100043762266088,-1.132260813486677,-0.49473172201999743,-1.7662449124264137,1.1076064479552155,-1.6891596811696878,-1.1607638823804334,-0.9350376749775078,-1.6112892509905907,-1.0637380570189223,-0.9482081000142846,1.2012759793683412,-2.0794686725297207,1.088998865814805,1.095469327725024,-0.4851465338913691,0.4341242606544303,-2.4170363622749123,-1.447467222180631,1.2228716715304282,-2.3960472158696655,-1.3802691062255061,1.2241951552955799,LR
1.4525247511640396,0.8303369684586498,-1.1373494123422234,-0.6089863846882294,-1.3051591106417253,0.1906924110338349,-1.6873862234427541,-1.1600218616254852,-0.9355541263708449,-1.5735139573937311,-1.0673045555366536,-0.9617327121606634,1.2635127805405104,-2.1102244784520896,1.0907101725555841,1.095469327725024,-0.38137697288302724,0.24902025620821822,-2.416081043420903,-1.4472371238360193,1.222969205173623,-2.4090043324691095,-1.413984088954677,1.2208725989879294,LR
1.4230444638405213,0.8100043762266088,-1.1186907533491435,-0.31192369298979,-0.8440738841157243,0.6639386842994242,-1.6868042806443349,-1.1578257597042485,-0.9353112546345189,-1.6438025889376149,-1.0144179531600248,-0.9294135431803301,1.2306655838558471,-2.0957009325941285,1.0958440927779216,0.7570182094276705,-0.40213091227231273,0.11680328090520799,-2.4150892671689315,-1.4466747288520547,1.2231346687525926,-2.3941017251579217,-1.3964836730305064,1.2258531380472115,LR
1.463244890573393,0.8008545431571682,-1.1458306420295057,-0.24337092532364213,-1.1734204128565797,0.7526720820424855,-1.6849522520054494,-1.1577076652886287,-0.9357355822658013,-1.582732717611296,-1.1014597433997697,-0.9634131863259768,1.265241576639089,-2.1247480243100494,1.0929918369908256,0.524332961683166,-0.0078067707539336674,0.06391645960722159,-2.4146274734614104,-1.4462177110641234,1.2231690301987044,-2.4112325705302187,-1.4154989921337149,1.220069048117048,LR
1.437784580058794,0.814071061238039,-1.1305643822734566,0.2822018400810457,-0.953855964486228,0.04280296274678338,-1.6831727503622118,-1.1562501775526588,-0.9359700791146683,-1.6067311292906439,-1.044148969963067,-0.9468676222804273,1.2185639403541273,-2.1196218816907053,1.0981259908705552,0.4397203206622594,-0.02856062858036783,-0.20051759492140656,-2.4139928446820687,-1.445299211499212,1.2232142287162822,-2.399130444125634,-1.3913529158738283,1.2236011920042098,LR
1.4444846877722546,0.817120866790334,-1.133391458835884,0.3279035854091731,-0.16342423798230593,-0.2825538622317542,-1.6811894823978661,-1.1543671306503434,-0.9363720737127255,-1.5975451055358643,-1.056300059252588,-0.9518505208004617,1.244495952644476,-2.1187676995530973,1.1072533495836978,-0.0679565369032322,0.012947155041543227,-0.35917814541753884,-2.4134945935765857,-1.4446371207598219,1.2233265642131868,-2.387102547335441,-1.4049026030706682,1.2290354420375034,LR
1.4310845272323063,0.8232204778949246,-1.1684474861236298,0.2364999450789615,-0.1853806828193411,0.10195854832648292,-1.6765244424277495,-1.1522388107309711,-0.937605973798429,-1.4571082646437288,-1.0415743792663663,-0.997945118966773,1.2583263922447745,-2.1204764137595458,1.0907101725555841,0.0801159312669338,0.3657636216884796,-0.22696104887148627,-2.413408851177674,-1.4438714790017366,1.2232776652321813,-2.41257477692136,-1.411712641796866,1.2193609320936925,LR
1.4659249117039876,0.8262702834472195,-1.1441344424109903,0.8077744558117768,-0.2951629070045169,0.3681595939901999,-1.6735681039384511,-1.1513423588171356,-0.938192215920596,-1.5618882056755707,-1.096159285139566,-0.9698062339797566,1.273885557131982,-2.1315825312046104,1.1009782466576512,0.20703507291775505,0.46953304675873586,-0.6500556192553775,-2.413035500417062,-1.4432196689643986,1.2232211010055047,-2.4026496026624864,-1.42038489608052,1.223665781887204,LR
1.4726249645304754,0.8059376912151786,-1.1430035654670783,0.3736057797591709,-0.20733701260463872,0.604782633755434,-1.6716616800528283,-1.1507801001238336,-0.938560710968815,-1.592930987254837,-1.1159091748730157,-0.9619194315123651,1.235851972151583,-2.1230393101036014,1.0998372976113342,0.2493413934282084,0.4902871220861068,-0.49139524196359147,-2.412565605065549,-1.4421647471887045,1.223210792571671,-2.3989813100821746,-1.400451276594652,1.2241405834352541,LR
1.4887051462010186,0.8283036259529347,-1.1379149666115318,0.6478175987935466,-0.20733701260463872,0.841405867255789,-1.6696240168417462,-1.15062785266346,-0.9389040813546555,-1.5960676572812036,-1.135851503463021,-0.9635469554137631,1.1978183871711838,-2.1093702963144816,1.0667511772124993,0.4185670911303169,0.07520887805273975,-0.8616030776516694,-2.412799202467307,-1.4410091827508171,1.2227728162931522,-2.439688155800016,-1.3793124845002798,1.2069480747431083,LR
1.4619048800080952,0.8079710337208937,-1.1316952592173686,0.5792645317794851,-0.4488579345749599,-0.2529759338273197,-1.6682649990899483,-1.1498105379837602,-0.9391497447201351,-1.6250084133552967,-1.0916428273253944,-0.9475336808633624,1.2669703727376678,-2.0803232045985607,1.0964146841297762,0.5031798707046553,-0.44363879105088366,-0.20051759492140656,-2.4119613574511756,-1.4409686686683885,1.2229258568877586,-2.3894482031502253,-1.4147254388572754,1.2285885855000547,LR
1.4391245906240913,0.8344036534700799,-1.133391458835884,-0.3347748650017674,-0.029907099200566903,0.3681595939901999,-1.6666970345173535,-1.147588493724181,-0.9394568239269843,-1.5745322336835321,-1.0392680843415214,-0.957259808287814,1.2894447928308592,-2.0939922183876805,1.0969850418242384,0.7147117503637853,0.3657636216884796,-0.14763084290515865,-2.411101232914068,-1.4405828717966467,1.2230551087889026,-2.3950174486736473,-1.4269446359323756,1.226952747851164,LR
1.4726249645304754,0.8059376912151786,-1.1294337369242495,0.2364999450789615,-0.5147272115601966,-0.19381988328332958,-1.6660322037239073,-1.1472891523319257,-0.9396187384178684,-1.642188164430773,-1.1115689008621212,-0.9444542049882858,1.2842584045351233,-2.1290196348605535,1.0855760186758545,-0.19487573397542615,0.5733026077670776,-0.22696104887148627,-2.411500914017653,-1.4400199357231005,1.2229292930323696,-2.4246337151866624,-1.4253019277143577,1.2152564427535504,LR
1.4659249117039876,0.8049212281685985,-1.1305643822734566,0.3279035854091731,0.12200951613621683,0.2794258087768963,-1.6651739676087312,-1.146202980691222,-0.9396969040341574,-1.6350025108493598,-1.0998996078560663,-0.9452763275069714,1.2393095643487404,-2.1162048032090417,1.109535014018939,0.2704946229601509,0.5733026077670776,-0.4649517880135116,-2.410731932975451,-1.4390346792310487,1.2230688533673473,-2.3825205556834326,-1.4021799052965298,1.230700279225698,LR
1.4779850067916653,0.8069545706743135,-1.1413073658485628,0.6478175987935466,-0.5586400149454638,1.4329632729337531,-1.6633677000504326,-1.146236871692154,-0.9398281106043567,-1.6011650691312487,-1.124891402700813,-0.9603309235949046,1.2323943799544257,-2.122185127965994,1.099266939916872,0.8204777594700663,0.3657636216884796,-0.7822727158014301,-2.4099048901513083,-1.438117600026289,1.2229922009106362,-2.3992822774277998,-1.3986199870329514,1.2239275686374618,LR
1.4444846877722546,0.8089879131800286,-1.1283028599803375,0.5564135094414646,-0.9758124380861977,1.2554958962422669,-1.6621520094567024,-1.1453023360762402,-0.9396382798219408,-1.6249188188255677,-1.0578504068072205,-0.9426343880231948,1.2635127805405104,-2.1059528679015855,1.088998865814805,0.6512522003213895,-0.17383797321062067,-0.7822727158014301,-2.4094282434298027,-1.4379185466964262,1.2228484114745988,-2.4098944130271356,-1.4137760107875836,1.2205130047005666,LR
1.4498447300334445,0.7906882470411477,-1.1577045025485238,0.6021158534654193,-0.7782046071304874,0.3681595939901999,-1.659292373628269,-1.1447476766537656,-0.9402803545271711,-1.5436462425312913,-1.0847455285624712,-0.97445192292433,1.1926319988754481,-2.1025354394886895,1.0964146841297762,0.4397203206622594,-0.1530841153841865,-0.7822727158014301,-2.408784162732471,-1.436970557749313,1.222798190899512,-2.3934586267714173,-1.3771113603675993,1.2250311329240462,LR
1.4270644955364138,0.8232204778949246,-1.1186907533491435,0.7392216881456287,-0.4049451311896927,0.2794258087768963,-1.658144029530498,-1.1425020484502388,-0.9401128567779805,-1.6319812799286044,-1.0162654360971686,-0.9338223493652822,1.2825296084365445,-2.1059528679015855,1.1146691678986689,0.2493413934282084,-0.0078067707539336674,-0.3856215993676186,-2.407888931071399,-1.4368822925113005,1.2230437430798042,-2.3734476723607134,-1.4241791796075842,1.235297233469648,LR
1.435104558928199,0.8059376912151786,-1.12547578341791,0.007990006079274253,-0.8221174105157546,-0.5783327588058573,-1.6576432478938763,-1.1411637906531158,-0.9402021889108819,-1.6322181885408678,-1.0407791051543507,-0.937534441551348,1.270427964934825,-2.1162048032090417,1.1009782466576512,-0.004496959150149989,0.09596281744202519,-0.0683005849775271,-2.40765735908064,-1.436595988486391,1.223167444285807,-2.3966626468544416,-1.418019729709485,1.2259082371718883,LR
1.4217044532752237,0.8303369684586498,-1.1209522756422625,-0.08341405333801648,-0.3610321839897537,-0.9036893900492738,-1.6568368167755918,-1.1387253855448014,-0.9404003945807576,-1.6121584902261314,-1.0040147190617468,-0.938794100461334,1.2842584045351233,-2.1179135174154897,1.0872873254166335,-0.7025524114214565,0.26199406068013786,-0.2798479567716458,-2.4083892075878808,-1.4363165833536484,1.2230754613377535,-2.417992189142616,-1.4249298745393346,1.2178468925098764,LR
1.437784580058794,0.8120377187323239,-1.152050349423669,0.46500986911125297,0.12200951613621683,0.014230713355838028,-1.6539702736142392,-1.136853082439173,-0.9410871353524385,-1.5322255244484715,-1.0524486603386842,-0.9737635694934306,1.3050040285297362,-2.1307283490670015,1.099266939916872,-0.5121736227408372,0.46953304675873586,-0.940933093093216,-2.4087058468405522,-1.4361364681591446,1.222942508973182,-2.406345562644527,-1.4363167589460606,1.2229012485782944,LR
1.4699449433998804,0.8262702834472195,-1.1350878900491044,0.6478175987935466,0.165922319521484,-0.5783327588058573,-1.6520422643132453,-1.1358489305146426,-0.9416426695539206,-1.5973013050366984,-1.1006376397105686,-0.9583104529981344,1.2548688000476171,-2.1085157642456416,1.083294354240613,-0.19487573397542615,1.0921504128087867,-0.7029425271555371,-2.409098101437145,-1.434505353615153,1.2226615380715133,-2.4187236882517147,-1.4092701604364422,1.2168250541976922,LR
1.4364445694934962,0.8049212281685985,-1.1424382427924746,0.6021158534654193,-0.009729152885994165,-0.19381988328332958,-1.6500166889347714,-1.1340935863014072,-0.9420502474102843,-1.5736147512396759,-1.049486919717123,-0.9590935595328823,1.3032752324311576,-2.1025354394886895,1.0969850418242384,-0.3006416045282753,0.8431035479516176,-0.5442819766594047,-2.409086624108157,-1.434094801895049,1.2226903488224838,-2.3989428456456254,-1.4344200541802945,1.2257273854995048,LR
1.4699449433998804,0.8211871353892095,-1.1124710459549803,0.46500986911125297,-0.07559845863416527,-0.10508650491378028,-1.650343923831805,-1.133348683064421,-0.9417962091573452,-1.6858732510462755,-1.0952600136436716,-0.9270976658480323,1.2151063481569702,-2.093138036250073,1.0884282744629503,-0.08910966944777252,1.1544120950385572,-0.2798479567716458,-2.409021810956225,-1.432428110711062,1.2226892915472187,-2.4030018559235105,-1.38809808928142,1.221899182679272,LR
1.4538647617293372,0.7896717839945675,-1.1503541498051533,0.9905824848419841,0.07809661208067932,-0.22339761795264304,-1.6479850696399934,-1.1323738800479146,-0.9423294103256016,-1.5733028933573512,-1.0900119036464457,-0.9650407102273753,1.2496824117518814,-2.111078660589697,1.0793011494072002,-0.1525692472008547,0.8431035479516176,-0.4649517880135116,-2.409445121854786,-1.4314546229174117,1.222494752898462,-2.4252309261751788,-1.4065958013382782,1.2141344242146819,LR
1.4686049328345827,0.7978047376048729,-1.1384802892861352,0.6706686211315672,-0.05364199941566291,-0.2529759338273197,-1.6467978717945535,-1.131937664432822,-0.9426225313866852,-1.6158516801198517,-1.1100956337214225,-0.9532746042141849,1.260055188343353,-2.1273109206541054,1.0895692235092673,0.0801159312669338,0.9261190336325884,-0.09474400428673761,-2.4095261382947015,-1.4305656803708997,1.2224595984959015,-2.4168902167762347,-1.4128508529015171,1.217720349065643,LR
1.4753049856610705,0.8069545706743135,-1.1305643822734566,0.4421585474253188,-0.11951130516383401,0.1906924110338349,-1.6462850023253235,-1.1316973702483768,-0.9426783639697486,-1.6386147210719786,-1.1165155932316173,-0.9463715619132205,1.2531400039490386,-2.1367086738239545,1.0907101725555841,-0.19487573397542615,0.7185799116159048,0.03747305761844571,-2.4098319753553845,-1.4297827913823984,1.2224397745846831,-2.4183491661063736,-1.409695460108505,1.2169929878934769,LR
1.463244890573393,0.7957713950991578,-1.135653212723708,0.030840923645524994,-0.4488579345749599,0.33858185932088647,-1.6458584745175802,-1.131452359275142,-0.942745363069425,-1.6249808458076875,-1.1000897745008738,-0.948743176365429,1.2877159967322804,-2.142688648649674,1.097555633176093,0.0801159312669338,0.2204861819015669,-0.35917814541753884,-2.4098123963824043,-1.429730238056777,1.2223892896907804,-2.412474904349269,-1.4278201777643824,1.2201397015400781,LR
1.4578847934252295,0.799838080110588,-1.1350878900491044,0.35075490709510726,-0.8440738841157243,-0.3121315969010677,-1.645052043399296,-1.1313079731294178,-0.9429603185142195,-1.6191959682391477,-1.088471955830201,-0.9490775990848944,1.2877159967322804,-2.1349999596175064,1.1026895533984304,0.0801159312669338,0.15822449967179605,-0.12118742359594813,-2.4095916265836332,-1.4297351754992098,1.2224796867259362,-2.402152264246061,-1.4276503537094296,1.224183291847683,LR
1.4712849539651778,0.726640664792729,-1.1367840896676198,-0.06056276158687363,-0.953855964486228,-0.2825538622317542,-1.6462202460792088,-1.1323037396516553,-0.9427565295860377,-1.6994614675598394,-1.1404601606385307,-0.9288310902772613,1.2721567610334035,-2.1238934922412094,1.0827237628887583,0.4185670911303169,0.4902871220861068,0.4341242606544303,-2.4096152563786086,-1.4293192128832892,1.2224950172172784,-2.42625664448314,-1.4188071996840141,1.2143229212201543,LR
1.415004345561763,0.8018714226163032,-1.1316952592173686,-0.42617865500593577,-1.458853994397496,0.1906924110338349,-1.64570046927706,-1.1310748414760972,-0.9427481546985779,-1.6009919104728307,-1.00760481362456,-0.9432447094862192,1.2825296084365445,-2.1170589853466493,1.119232730426544,0.1012690638114741,0.4902871220861068,0.5134544493003234,-2.408762558348493,-1.4290298652294828,1.2229673549419091,-2.371097967657872,-1.4246844834860577,1.2362410366578878,LR
1.4605648145558243,0.8110208392731887,-1.120386952967659,0.2822018400810457,-0.5805964885454333,-0.22339761795264304,-1.645810986603763,-1.1306189725743816,-0.9426364895324512,-1.6618653630224371,-1.0842779772988136,-0.9337777596693532,1.256597596146196,-2.1230393101036014,1.0827237628887583,-0.11026280199231282,0.34500968229919415,0.2225769754624847,-2.4091581886300837,-1.428572035807179,1.2229269141630235,-2.425082466946395,-1.410741296608443,1.2143983200223432,LR
1.4779850067916653,0.8110208392731887,-1.1294337369242495,0.09939405052916929,-0.2951629070045169,0.1906924110338349,-1.6456339861977152,-1.1306236020152307,-0.9426895304863613,-1.6399241795833979,-1.1196048398893796,-0.9463520539212514,1.2998175694223308,-2.1315825312046104,1.062187381027232,-0.5121736227408372,-0.3606231694318273,-0.015413786022901362,-2.4105442448896457,-1.429086409090769,1.2225748414997846,-2.460590540398098,-1.43295819580702,1.2014777071017726,LR
1.4699449433998804,0.7937380525934428,-1.1469615189734175,0.1679468181953172,-0.7123351863305788,0.4273152570639479,-1.6444079346046068,-1.1309848730973338,-0.9430189427264362,-1.5906032524536164,-1.1167888703907682,-0.9628335202789037,1.2842584045351233,-2.1196218816907053,1.0707443820459124,0.29164785249209346,0.17897843906108152,-0.015413786022901362,-2.4109560784592188,-1.4290163379899408,1.2223620648527072,-2.442855061075845,-1.4246495908951946,1.2080732568680823,LR
1.4391245906240913,0.8028878856628833,-1.1277373057110291,-0.06056276158687363,-1.0197253852861368,0.8118281325864757,-1.6441989877838095,-1.13024197886298,-0.9428011956524884,-1.6301445920691666,-1.0502183971146581,-0.9396831075239127,1.1217511463987162,-2.1144960890025937,1.0690328416477408,0.6089457412575044,0.15822449967179605,0.6721148265921094,-2.4109419005822326,-1.4272768702572165,1.2222909630911372,-2.4325182498644344,-1.3402410520758414,1.2072217249412627,LR
1.4686049328345827,0.8069545706743135,-1.1441344424109903,-0.7232413467043753,-1.2392896898418164,0.7526720820424855,-1.6436567621496736,-1.1308745526484227,-0.9430775669386527,-1.5852835772509752,-1.1084744980315446,-0.963510726285821,1.2393095643487404,-2.1315825312046104,1.0747373532219329,0.630098970789447,0.4902871220861068,1.1216528509260806,-2.411040470584131,-1.4265716952598848,1.2223477916366299,-2.4388911996673177,-1.4019904499573148,1.2085272314742694,LR
1.4726249645304754,0.8120377187323239,-1.1690128087982334,-0.9289006974205167,-1.2832026370417555,0.7822498167117989,-1.6413825227861187,-1.1317327461642985,-0.9440239292215793,-1.492430907989265,-1.1221634377110807,-0.9969752930803232,1.2531400039490386,-2.1256022064476574,1.0884282744629503,0.735864979895728,0.5317948649265922,1.1216528509260806,-2.4106691452345164,-1.4260247889651958,1.2225626828342373,-2.417526567015976,-1.409192374834075,1.2172919467804781,LR
1.4471647089028494,0.8211871353892095,-1.1164289994613197,-0.8146457354043709,-1.261246163441786,0.6935164189687375,-1.6423961738919703,-1.1312636003756198,-0.9436414760275943,-1.656195924559509,-1.0538705405367603,-0.9312110652974568,1.2773432201408088,-2.1187676995530973,1.0713147397403746,0.8627842185339515,0.3865175610777651,1.2538699474721329,-2.4106549673575306,-1.4258040920520658,1.2226433000731922,-2.4413360532395156,-1.4210491326850065,1.2085048227393531,LR
1.4779850067916653,0.8089879131800286,-1.1350878900491044,-0.7917944137184368,-1.2392896898418164,0.33858185932088647,-1.642675057458572,-1.1321493084927678,-0.9437782658560997,-1.6215323178989955,-1.1221587185020643,-0.9529987054706259,1.2410383604473187,-2.1136419068649857,1.0941327860371426,0.46087341164077017,0.012947155041543227,1.1745397588262398,-2.410182371458021,-1.4254895160965133,1.2229808352015377,-2.4040289238608237,-1.4025861115277347,1.2222658950353733,LR
1.4659249117039876,0.7978047376048729,-1.120386952967659,-0.8374963087205208,-1.1734204128565797,0.6935164189687375,-1.644153226703221,-1.132503417043746,-0.9433734796288893,-1.6797119041557023,-1.099394914669595,-0.9298204241556797,1.2686991688362461,-2.0692167372222636,1.091851121601901,0.2704946229601509,0.012947155041543227,0.804331923138162,-2.4096152563786086,-1.4254327016904365,1.2233355510529391,-2.391979433000989,-1.4150827685691019,1.2276110373933524,LR
1.4565447828599323,0.816103987331199,-1.1215178299115707,-1.0203043377507282,-1.1734204128565797,0.6935164189687375,-1.6451521997266207,-1.1323655819935627,-0.9431110664884909,-1.649537500326114,-1.0751401903589954,-0.9366928110406932,1.222021603362954,-2.111078660589697,1.0701737906940576,0.46087341164077017,-0.11157626379323268,1.0423226622801873,-2.409821173163395,-1.4250043616503345,1.2233588111087685,-2.436911968221759,-1.392036783762577,1.2087708276044185,LR
1.4712849539651778,0.7927215895468628,-1.1492232728612415,-0.7689432417064593,-1.3710282438122898,0.8709836019251025,-1.6446117009257146,-1.1333105120144018,-0.9433958126621147,-1.584401415727493,-1.1203421726018055,-0.9654364437787426,1.2531400039490386,-2.1281651027917143,1.0867169677221713,0.9050905390444046,-0.1945919125999061,1.4389737787139987,-2.4093857097988467,-1.42499178131756,1.2236146717228942,-2.420974870011818,-1.40925718496431,1.21593977735241,LR
1.490045156766316,0.780521950925127,-1.1000318627613586,-0.8374963087205208,-0.029907099200566903,0.7526720820424855,-1.6482725873727435,-1.1335232915975746,-0.9423573266171335,-1.7879903392762768,-1.1445622019868587,-0.8989643545730077,1.265241576639089,-2.1059528679015855,1.0855760186758545,0.7570182094276705,0.11671675683131066,-0.015056789521927549,-2.408908387940342,-1.4248498805747631,1.2235911473482484,-2.41499938605327,-1.414594608449145,1.2185463086714405,LR
1.4739649750957728,0.8120377187323239,-1.1271719830364257,-1.2031125164548926,-1.3710282438122898,0.604782633755434,-1.649243931064467,-1.1342586739090412,-0.9422735777425382,-1.644568449869623,-1.1110195499755136,-0.9435624110697112,1.2289367877572686,-2.1162048032090417,1.088998865814805,0.4397203206622594,0.033701080837020135,1.7298505597344527,-2.4086403585516205,-1.4244130860099475,1.2239670087049492,-2.4117515030162866,-1.3963192946400236,1.2189024757405222,LR
1.4846851145051263,0.8201706723426293,-1.1022936166491824,-1.5001741604356342,-0.029907099200566903,0.45689357293862454,-1.652247757467583,-1.1339659709602676,-0.9416315030373079,-1.7343335537991442,-1.1202215705936096,-0.9139910821009852,1.2375807682501616,-2.1281651027917143,1.097555633176093,0.524332961683166,-0.29836135126397095,2.1793885840684233,-2.4081684377891097,-1.4243322607536832,1.224499611119684,-2.404326517133067,-1.401503634445869,1.2220934795926053,LR
1.4552047722946346,0.7927215895468628,-1.1283028599803375,-1.7286843838158397,-2.0077658343967353,0.9597175808735271,-1.6536887997977934,-1.1347228408651089,-0.9413746731552156,-1.6497089360128068,-1.0840935785761374,-0.9379441093826928,1.2686991688362461,-2.1170589853466493,1.1089646563244768,0.46087341164077017,-0.04931455437584473,2.708257663070019,-2.4073704258559374,-1.4243894809769464,1.2253060478280489,-2.3852872958562212,-1.4173393578028652,1.2303435848922653,LR
1.4297445166670089,0.8201706723426293,-1.1390456119607388,-2.2771077225366776,-2.402981496308155,0.6639386842994242,-1.6538519855380025,-1.1347307021797581,-0.941617544891542,-1.5642021567029867,-1.0297309124905043,-0.9593945399804013,1.2306655838558471,-2.1196218816907053,1.0924214792963631,0.8416309890020088,-0.21534586558300012,2.443823123569221,-2.406772929611557,-1.424166822614083,1.2258368000110695,-2.408159464494395,-1.3974470850287137,1.2203753887049626,LR
1.4364445694934962,0.8242373573540595,-1.1294337369242495,-2.208555553566357,-2.0516782063379866,1.2850738246467015,-1.6546420117406047,-1.1345717289279622,-0.9415058797254149,-1.5985332298204684,-1.0370841392800632,-0.9486372758375984,1.142496770393329,-2.1179135174154897,1.0872873254166335,0.7993245299381239,-0.11157626379323268,2.602483500861007,-2.406234170286116,-1.4229529557737686,1.2263318691538976,-2.4089435991482433,-1.351737589306648,1.2173343915607313,LR
1.4686049328345827,0.83135343150523,-1.1277373057110291,-2.208555553566357,-2.271242942337682,1.0780287132859019,-1.6557998534211391,-1.1357442876818673,-0.9414751718047301,-1.617649601115465,-1.0937265328916346,-0.9503567659868496,1.1978183871711838,-2.1085157642456416,1.0907101725555841,0.8627842185339515,-0.1945919125999061,2.8669180403618046,-2.4055691603418055,-1.422391237151781,1.2269474676769332,-2.4043784778631414,-1.3799259621334716,1.220894480458495,LR
1.448504719468147,0.8039043487094635,-1.135653212723708,-2.2314062765564637,-2.205372946279085,1.8470538831255943,-1.6567349336150379,-1.136355810613638,-0.9412881326514675,-1.6067233759178787,-1.0697777706322622,-0.9506661070023551,1.211648755959813,-2.094846750456521,1.082153405194296,1.0320097776826282,-0.23609966903420007,2.6553714479872443,-2.4049608619054363,-1.4219976621173025,1.2274454443267395,-2.4126139161725844,-1.386214225526935,1.2180103444586774,LR
1.4739649750957728,0.8222040148483444,-1.126606660361822,-2.1171511648663612,-2.1175467642498633,0.014230713355838028,-1.6581284880314304,-1.1376196479654148,-0.9414053810759008,-1.6353987943462365,-1.106945736488524,-0.9461346791535993,1.2133775520583914,-2.1076615821080336,1.091851121601901,0.8416309890020088,-0.4643927304401691,2.81403182527903,-2.404316781208104,-1.4218141651129135,1.2280441264455355,-2.4034047202852546,-1.387964569656267,1.221733621673067,LR
1.4753049856610705,0.814071061238039,-1.1407420431739592,-2.0028960531762583,-2.3590676862201843,0.014230713355838028,-1.6585610597554779,-1.1392768130934754,-0.9418325003363365,-1.5936701421250983,-1.1170945702637165,-0.9618274652645119,1.2462247487430547,-2.1290196348605535,1.0753079445737872,1.1589288777674198,-0.3606231694318273,2.6818145555286312,-2.4041412455882862,-1.4219104790584536,1.2283504719535638,-2.4375253747625067,-1.4054624980546926,1.209243520095065,LR
1.4659249117039876,0.8191542092960491,-1.1537465490421843,-2.2999599422663524,-2.9518918981606745,1.6991644348385426,-1.658065458618545,-1.1411302490439457,-0.9422512447093129,-1.5352234952509318,-1.1020986718649288,-0.9797302281798921,1.273885557131982,-2.1153502711402012,1.091851121601901,-0.03400563952835668,-0.13233018958870962,2.8669180403618046,-2.4042695216181533,-1.4221218421762996,1.2289240437848163,-2.4098255819301544,-1.4195715423921522,1.2208106454266903,LR
1.4686049328345827,0.8232204778949246,-1.1407420431739592,-2.162854107586143,-2.842109530160827,2.9414347155330978,-1.6583469324349913,-1.1428302146628746,-0.942094913476735,-1.579308311306762,-1.1011826209591982,-0.964544649860168,1.1822591514723069,-2.1085157642456416,1.1112463207597183,1.264694748320269,-0.3398692300425419,3.4222302269047873,-2.4027383109037412,-1.421533069075228,1.2298475737287782,-2.3735374227126598,-1.372474276225774,1.2326055489579357,LR
1.437784580058794,0.8303369684586498,-1.1164289994613197,-2.2999599422663524,-2.820153344190201,2.142833360905061,-1.6600815364142554,-1.1432700115435295,-0.9414640052881174,-1.6396536730224867,-1.0325038847514112,-0.9336830065655047,1.222021603362954,-2.0982638289381845,1.1066827582318433,-0.03400563952835668,-0.5889160948997108,2.8933611479031924,-2.4022731415112237,-1.4215642493623724,1.2306585038570195,-2.378759138677792,-1.3923996935997243,1.231671236528013,LR
1.4217044532752237,0.8069545706743135,-1.1390456119607388,-2.2314062765564637,-2.77624097224895,2.0540988007512726,-1.6601419755772961,-1.1430900747860022,-0.9413439652345309,-1.5737904943556824,-1.0203895004209065,-0.9546596716439707,1.222021603362954,-2.093138036250073,1.113528218852352,-0.03400563952835668,-0.4643927304401691,3.025578417653591,-2.4015777504019447,-1.4214586016215482,1.2314879363023976,-2.366822341868898,-1.3923498086239623,1.236363098355138,LR
1.4511847405987421,0.8191542092960491,-1.129999059598853,-2.3456613882465662,-2.424937682278781,1.906209352464221,-1.6611892999311275,-1.1436906792252046,-0.9411038851273578,-1.6118733384055526,-1.06677233363092,-0.9484533433418922,1.2030047754669198,-2.0914293220436244,1.1123872698060353,-0.03400563952835668,-0.6096700342889964,2.9198042554445793,-2.4008931614846554,-1.4212801096957899,1.232313403965532,-2.366636767832918,-1.3823943272077344,1.235893833082773,LR
1.4217044532752237,0.8201706723426293,-1.1124710459549803,-2.0714497188861474,-2.402981496308155,1.7583199041771695,-1.6628272012495273,-1.1430326871890628,-0.9404171443556768,-1.6539681221183706,-1.0053911550248507,-0.9244278578043005,1.2272079916586898,-2.0880118936307284,1.1146691678986689,0.9685500890868006,-0.3606231694318273,2.734700770611406,-2.3994402666621624,-1.4211733121396046,1.233119047717448,-2.3634813344065866,-1.3948372671390827,1.2378078026768013,LR
1.4270644955364138,0.8415201440338054,-1.1407420431739592,-2.4142150539564553,-1.876025842279542,1.1076064479552155,-1.6622772048658576,-1.142138593669622,-0.9407660979998234,-1.5319360651985787,-1.0164550783854185,-0.9685298539337971,1.139039178196172,-2.1059528679015855,1.1129578611578896,0.6089457412575044,-0.3398692300425419,2.8933611479031924,-2.3983458695862976,-1.420153628822918,1.2338631051851792,-2.3670146640516405,-1.3501132349948064,1.2337800302997255,LR
1.4203644427099265,0.8222040148483444,-1.146396196298814,-1.7743873265356216,-1.9199396523675127,0.9301392649988505,-1.6611478559336144,-1.1412568162097985,-0.9411569260812682,-1.529568702047671,-1.0142186976682233,-0.9690091931650309,1.1926319988754481,-2.1042441536951375,1.1083940649726223,0.3551074025344893,0.11671675683131066,2.047173046361487,-2.3976491282030197,-1.4193720925583706,1.234360288878537,-2.376713775393957,-1.3775338363617888,1.2316506732183252,LR
1.4444846877722546,0.8272871629063547,-1.1435691197363866,-1.3630693734731225,-1.876025842279542,1.1371847638298922,-1.6600910339970187,-1.141183443939739,-0.9414807550630366,-1.5494121674108503,-1.0557355020258166,-0.9683375608701048,1.1874455397680428,-2.1033899715575286,1.1232259352599567,0.29164785249209346,0.09596281744202519,2.2058334236532735,-2.396568233867141,-1.4185752705131407,1.23505491872763,-2.3545859273437313,-1.3752431613022689,1.2402311096338692,LR
1.4565447828599323,0.8323703109643649,-1.1305643822734566,0.05267518085996921,-1.2832026370417555,1.5216970581470566,-1.6588364896556196,-1.1409007860041283,-0.9414249224799729,-1.598449665691779,-1.0716759413699521,-0.9537901725733607,1.1563271391819583,-2.099118361007025,1.104971451491064,0.4397203206622594,0.26199406068013786,2.0207282067766372,-2.3958552891958806,-1.4173343491937422,1.2354952738754947,-2.377193568628799,-1.3584107468864153,1.230300612847661,LR
1.437784580058794,0.8059376912151786,-1.150919472479757,0.05267518085996921,-1.2832026370417555,0.5160492360123725,-1.6564992208791798,-1.1402800915386002,-0.9419162492109318,-1.5431577800470972,-1.054480541998504,-0.9703050812029594,1.1580559352805366,-2.1170589853466493,1.1015488380095058,0.058962618602932226,-0.23609966903420007,2.2322765311946604,-2.3956689513840734,-1.4165175068339901,1.2358817079848456,-2.389141162472514,-1.360152687212553,1.2256986495923767,LR
1.4297445166670089,0.8069545706743135,-1.1441344424109903,-0.7917944137184368,-1.3929847174122594,0.8709836019251025,-1.6552826668688343,-1.1394193649324484,-0.9421479544306455,-1.5609931218641466,-1.03695305014072,-0.9615850087928998,1.1407679742947507,-2.1068070500391936,1.1260781910470528,0.4397203206622594,0.26199406068013786,2.285162746277435,-2.3944017192363876,-1.4151781748469228,1.2365818885290798,-2.3485854752421607,-1.35147814709443,1.2411411679036468,LR
1.4659249117039876,0.816103987331199,-1.152050349423669,-0.49473172201999743,-0.953855964486228,1.1371847638298922,-1.6535143896415905,-1.1394978907310005,-0.9426169481283786,-1.5448083869601759,-1.102684028568476,-0.9765392780649931,1.1442255664919077,-2.0982638289381845,1.1203736794728607,1.370460618873118,-0.0700684842494642,2.6289266084023946,-2.392595727763261,-1.4141312341425585,1.2373061220855923,-2.353715416411317,-1.3526049290267368,1.2391900261728748,LR
1.445824698337552,0.8425366070803856,-1.1350878900491044,-0.0377118440206229,-1.4808101803681215,1.1963404269036402,-1.6517668344131031,-1.138973104304193,-0.9427816542484163,-1.5634836774934313,-1.0490543255572904,-0.962518605551407,1.147683158689065,-2.052130295020248,1.1186623727320817,1.645451771467781,-0.734193398748538,2.81403182527903,-2.3903198409386213,-1.4135746558715971,1.2381786384980187,-2.3382466395867216,-1.3517978277679454,1.2452403846002793,LR
1.3935641216300296,0.8466032920918157,-1.1384802892861352,-1.2031125164548926,-2.4908062401906577,0.9301392649988505,-1.6499976937692447,-1.1374001425908198,-0.9430608171637336,-1.5113155395871753,-0.9509769272110757,-0.965433656922747,1.2254791955601112,-2.0726341656351597,1.116380474639448,1.7300649667024146,-0.734193398748538,3.1313525798626025,-2.388361268503653,-1.413864341706392,1.239022344159474,-2.3548693495077733,-1.3932992366936543,1.2411134865252207,LR
1.4056242716046805,0.8181373298369142,-1.1582698252231272,-1.431622440487184,-2.6005886081905056,0.10195854832648292,-1.647969528140926,-1.1369552795296132,-0.9438368900683163,-1.4827874352413521,-0.9932776446219416,-0.9819736472563056,1.2185639403541273,-2.0957009325941285,1.083294354240613,0.9050905390444046,-0.23609966903420007,2.5495972857782325,-2.3881256456908972,-1.4137228467807814,1.2393049009740404,-2.411710339321032,-1.3898774769545919,1.2185705628315855,LR
1.4257244849711164,0.8283036259529347,-1.1435691197363866,-1.0660062327528124,-1.4149413348269009,0.841405867255789,-1.6466579983029452,-1.135852773824027,-0.9441579274209314,-1.5361504540392785,-1.0205441856053312,-0.967693797135134,1.1874455397680428,-2.1179135174154897,1.1198033217783985,0.7147117503637853,0.30350193945870874,2.047173046361487,-2.387143996493916,-1.4128995789822465,1.2397825250749963,-2.365150151101051,-1.3758540169488642,1.2361065842483898,LR
1.4284045061017112,0.8201706723426293,-1.132260813486677,-0.6318375567002069,-1.3490719140269922,1.0780287132859019,-1.646035474923628,-1.1347992703130876,-0.9440797618046427,-1.587582021532861,-1.024839539737811,-0.9505657801865153,1.1753439670779924,-2.1196218816907053,1.100407888963189,0.5877926502789936,0.7185799116159048,1.3596435900681059,-2.3868300577892403,-1.4116543289461947,1.2398681643714595,-2.3929876061273663,-1.3691533621250447,1.2247416647953624,LR
1.4310845272323063,0.8130541817789038,-1.149788595535845,-0.0377118440206229,-1.107550992056671,1.6400087717647946,-1.6438639821372414,-1.1338329400468143,-0.9442891339911311,-1.534879762391684,-1.0389351179275894,-0.9708763866820461,1.1373103820975934,-2.1153502711402012,1.1038305024447472,0.3551074025344893,-0.0078067707539336674,0.6721148265921094,-2.386502616344581,-1.4105687679729377,1.2398464902285276,-2.3836616673010385,-1.3494490656207456,1.227164444488079,LR
1.4418046666416597,0.8089879131800286,-1.1610969017855548,-0.24337092532364213,-0.029907099200566903,1.8470538831255943,-1.6413341714556864,-1.1324286472066376,-0.9447246281390262,-1.5060647832535565,-1.0641881297306675,-0.9844149331084028,1.152869546984801,-2.1016812573510806,1.0998372976113342,0.6512522003213895,0.012947155041543227,0.989435927584374,-2.3860030149650986,-1.4096336299033898,1.239892217383738,-2.3853682736173756,-1.356600433217488,1.2269596022877265,LR
1.4163443561270608,0.816103987331199,-1.1384802892861352,-0.5861358113720795,-1.810157284367665,1.4625415888084297,-1.6402652616864832,-1.1314885213225288,-0.944674378814269,-1.5619278340252583,-1.0064879341573558,-0.9566327656888166,1.1338527190887666,-2.1136419068649857,1.0998372976113342,0.8416309890020088,-0.09082233799775578,1.5711908752600514,-2.385439950707682,-1.4086088738718747,1.240030984762267,-2.3885108855648585,-1.347443313104729,1.2251149679558508,LR
1.435104558928199,0.8069545706743135,-1.148657718591933,-1.2488144114569768,-2.402981496308155,0.9301392649988505,-1.6395071818986313,-1.1319337337754976,-0.94495633335874,-1.5483551242572242,-1.0483735359603013,-0.9676269125912407,1.177072763176571,-2.1119331926585376,1.1175214236857647,0.7570182094276705,-0.0700684842494642,-0.015056789521927549,-2.38448800753867,-1.4080464112517126,1.240022526560147,-2.3654423458558855,-1.3701583225262453,1.2356570913891862,LR
1.4083042927352756,0.8405032645746705,-1.1435691197363866,0.05267518085996921,-2.073634392308612,0.7822498167117989,-1.6369013905549679,-1.1318649909462868,-0.9452327046449044,-1.510490236130636,-0.9830491960427881,-0.970815075850144,1.1407679742947507,-2.0914293220436244,1.1055418091855262,0.20703507291775505,0.11671675683131066,-0.015056789521927549,-2.3839809796521956,-1.4068682563237895,1.2399347727131536,-2.3722492014956225,-1.3499573276379435,1.2317036632855978,LR
1.448504719468147,0.8252538204006397,-1.1305643822734566,-1.294516156785104,-1.3710282438122898,-0.045930434996278045,-1.6373097866137993,-1.131604169995813,-0.9453806609900224,-1.6012529406892515,-1.0595204824424531,-0.9510479062737447,1.1545983430833795,-2.0939922183876805,1.126648548741515,0.03780948605839191,0.34500968229919415,1.6769646910603704,-2.3831390838140694,-1.4057909469666536,1.240463938983277,-2.3437382814223704,-1.357927897970077,1.2434635037375033,LR
1.4230444638405213,0.8333867740109451,-1.147527073242726,0.05267518085996921,-1.3710282438122898,0.3681595939901999,-1.6348274638460616,-1.1304567674487855,-0.9459026956416661,-1.5144341184104242,-1.014909100468764,-0.9743376618285128,1.2133775520583914,-2.0769057761856646,1.1169508323339101,-0.04680322978136789,0.2827478641313378,1.3860870440181854,-2.3825982990776295,-1.405370182180695,1.2408627960769913,-2.3549793443000087,-1.3872193203889867,1.2407467741691198,LR
1.4243844744058187,0.8669358843238567,-1.1277373057110291,-1.1117081277548966,-1.0855946622713735,0.7526720820424855,-1.6340460718096088,-1.1286919896579708,-0.9460450687284784,-1.5475694491503729,-0.9956241402161852,-0.959924042619555,1.1269375346944523,-2.05896515184604,1.0901395812037296,-0.0256500916946903,0.7185799116159048,1.3332003093223723,-2.382574669282654,-1.4036965921045412,1.2409783033996904,-2.3810238167314206,-1.340383244425891,1.2275904740836647,LR
1.4217044532752237,0.8516864401498259,-1.1220831525861743,-0.6546888783861411,-0.33907571038978407,0.39773752239463445,-1.6336204074184801,-1.1262861653314804,-0.9460059859203338,-1.583857818148081,-0.9951347407626372,-0.9472410609838304,1.139039178196172,-2.0820319188050087,1.0941327860371426,0.12242229334341666,0.7185799116159048,0.9101055657341348,-2.3825267345557037,-1.402212992107757,1.2409751315738957,-2.3850693307157793,-1.3481599222107228,1.2265225001407705,LR
1.4391245906240913,0.8323703109643649,-1.148657718591933,-0.2662217979877058,-0.646465909345342,0.841405867255789,-1.6316319589544457,-1.1252105627915827,-0.9464554382139949,-1.5218997548972402,-1.0455446323332747,-0.9763079690173627,1.1407679742947507,-2.071779983497552,1.100407888963189,-0.08910966944777252,0.7185799116159048,0.6721148265921094,-2.3823714530458657,-1.4007696356486103,1.241021916004371,-2.3720845467146074,-1.3486866725949487,1.2316844181367872,LR
1.4203644427099265,0.8333867740109451,-1.1441344424109903,0.007990006079274253,-0.9099431611009609,0.39773752239463445,-1.629507954081877,-1.1236549833183782,-0.9468630160703585,-1.524766779848558,-1.0086867359879392,-0.9698285288277213,1.139039178196172,-2.0914293220436244,1.0952737350834594,0.1012690638114741,0.42802530391825044,0.4870109953502436,-2.3823815801008545,-1.399568484413466,1.2409082589133853,-2.387023594018316,-1.3487270780807072,1.2257885481642175,LR
1.4672649222692853,0.8069545706743135,-1.1424382427924746,-0.0377118440206229,-0.9977687678714952,0.5160492360123725,-1.6287844109586198,-1.1241431709580965,-0.9470612217402342,-1.5905980835384395,-1.1054489606955031,-0.9612756677773939,1.1459543625904864,-2.0999725431446326,1.0878579167684883,-0.004496959150149989,0.17897843906108152,0.46056771460451007,-2.382758981683463,-1.3986504583019383,1.2406806804125983,-2.4015968917674746,-1.3525508085341649,1.2202894446157542,LR
1.4002642293434904,0.8344036534700799,-1.1492232728612415,0.030840923645524994,-1.1295076094713126,0.6343607558949895,-1.6260456534562673,-1.1221569661379946,-0.9475106740338953,-1.4921621244000793,-0.9729955329827586,-0.9755917470265076,1.142496770393329,-2.126456738516498,1.1083940649726223,0.016656353513851592,0.07520887805273975,0.5134544493003234,-2.3827137475045097,-1.3978258377794495,1.2406352175762039,-2.381714152145266,-1.352872775042149,1.2281593923183636,LR
1.4002642293434904,0.8008545431571682,-1.149788595535845,-0.15196683597156002,-0.9099431611009609,0.22027014570314837,-1.6242480200641178,-1.1202419498894387,-0.9478400862739699,-1.5286744797221097,-0.9876469291233525,-0.9652302164350722,1.014565505040164,-2.1093702963144816,1.123796292954419,-0.4910203932088947,0.2827478641313378,0.3547940720085373,-2.382247902974993,-1.3955423044723407,1.2407607690139206,-2.342327918748924,-1.2867241542644647,1.2388030141392612,LR
1.4444846877722546,0.8089879131800286,-1.1458306420295057,-0.15196683597156002,-0.9099431611009609,-0.19381988328332958,-1.6231428467970903,-1.1198354325741322,-0.9482476641303335,-1.562046719074321,-1.063814962647337,-0.9651689056031701,1.1373103820975934,-2.1025354394886895,1.0912805302500463,-0.32179483406021786,-0.0700684842494642,0.4341242606544303,-2.3827481794914744,-1.3948021615607924,1.240554600337249,-2.3969359467983398,-1.3483271242790789,1.2218475107728768,LR
1.4284045061017112,0.8252538204006397,-1.1328261361612806,-0.35762588733978784,-0.6245094357453724,-0.46002104518811926,-1.6226032114127995,-1.1184169020196462,-0.9484598279459752,-1.5798243413385644,-1.022913403317061,-0.9529569026306929,1.1200223503001376,-2.1179135174154897,1.1106759630652558,-0.3006416045282753,0.24124012129085237,0.566341357200483,-2.382767083327455,-1.3937000297190962,1.2405649087710824,-2.373460493839563,-1.340927004107782,1.2306161805617177,LR
1.4297445166670089,0.8405032645746705,-1.1209522756422625,0.05267518085996921,-0.756247989715846,0.10195854832648292,-1.622256117933624,-1.116980115745586,-0.9483397878923886,-1.6062857410995888,-1.0146958621354325,-0.9425117663593907,1.1269375346944523,-2.1042441536951375,1.1146691678986689,-0.258335284017822,0.30350193945870874,0.8836622849884013,-2.3825456383916848,-1.392633001064012,1.2407330155382146,-2.36297319895534,-1.3438364007736876,1.2349568843310952,LR
1.4217044532752237,0.8232204778949246,-1.1271719830364257,-0.5632844896861453,-0.9099431611009609,-0.016352642206428274,-1.6222690691828467,-1.1156015031999305,-0.9482895385676313,-1.5978354262716195,-1.009303728870448,-0.9446074820680407,1.1995471832697624,-2.1179135174154897,1.083294354240613,-0.0679565369032322,0.26199406068013786,0.6192280918962961,-2.383309893474892,-1.3923667173536252,1.2404438507532423,-2.418825585267834,-1.3810686104462095,1.2152704152588514,LR
1.4444846877722546,0.8201706723426293,-1.1373494123422234,-0.1748177086356237,-0.8440738841157243,0.5752047053509994,-1.6216042383894005,-1.1151821457373634,-0.9483760790713799,-1.5798665541458403,-1.0564328962471223,-0.9579620959986912,1.1580559352805366,-2.1102244784520896,1.1146691678986689,-0.17372236589005186,0.07520887805273975,-0.015056789521927549,-2.383115454019093,-1.3918151441612943,1.2403978592792155,-2.367579483935695,-1.3601953113023548,1.234204741734434,LR
1.443144677206957,0.8283036259529347,-1.1537465490421843,0.14509590062906644,-0.9099431611009609,1.018873050212154,-1.619292008694791,-1.1147293340135669,-0.9488618225440323,-1.5108787662547478,-1.056440761595483,-0.9816615193848046,1.1252087385958736,-2.0845948151490648,1.1055418091855262,0.6089457412575044,0.17897843906108152,0.4341242606544303,-2.38240520989583,-1.3908422650934233,1.240415568639904,-2.3684068067288275,-1.3415047151545787,1.232652475485172,LR
1.437784580058794,0.8242373573540595,-1.1401764889046508,-0.19766903032155791,-1.063638188671404,0.1906924110338349,-1.6183111674203046,-1.114213544424636,-0.9491186524261241,-1.5607803348560407,-1.0433493262130735,-0.9626077849432646,1.1165647581029803,-2.1042441536951375,1.1089646563244768,0.33395417300254676,0.0544550202263056,0.8307753770882418,-2.3819157355713374,-1.3899030012158147,1.2405086088632222,-2.370392111506472,-1.3382952018689944,1.2316469823678684,LR
1.432424537797604,0.8364365795632404,-1.161662456054863,-0.5175825946840611,-0.029907099200566903,0.6343607558949895,-1.6157640884064521,-1.1126426790618358,-0.949894725330707,-1.4665113828359275,-1.0362268163087585,-0.9939543411811526,1.1407679742947507,-2.1016812573510806,1.1140985765468143,0.735864979895728,-0.1945919125999061,1.1745397588262398,-2.3809799956903084,-1.389422310758685,1.240763412202083,-2.363843709887754,-1.3508053049954727,1.2350768369709417,LR
1.4833451039398284,0.8242373573540595,-1.145265319354902,-0.38047676000385167,-0.029907099200566903,0.48647130760793794,-1.6152045944400193,-1.1129719807976985,-0.950243678974854,-1.5705409696812918,-1.1297105016413485,-0.9714226104571728,1.1666999865850993,-2.1059528679015855,1.1186623727320817,-0.03400563952835668,0.19973224251228147,-0.015056789521927549,-2.3805904416417127,-1.388933368685434,1.240770020172489,-2.3607733031106344,-1.3645468678268469,1.2371579493642284,LR
1.4163443561270608,0.8293205054120698,-1.1260411060925137,-0.1748177086356237,-0.8879866875009914,0.3681595939901999,-1.6148980815417422,-1.1113941275996548,-0.9500789728548167,-1.5913157012621317,-0.9963040558855787,-0.9448304305476841,1.1252087385958736,-2.1076615821080336,1.091851121601901,0.7570182094276705,-0.17383797321062067,1.0952095701803468,-2.380368996705942,-1.3882814233757004,1.2407089625259364,-2.3971134230582036,-1.3423805259082875,1.2213706001674225,LR
1.4297445166670089,0.8333867740109451,-1.1446999966802986,0.05369184794710378,-0.8440738841157243,0.2794258087768963,-1.613153116563099,-1.1103594912438737,-0.950464217677955,-1.528890712673666,-1.0262937552569251,-0.9710603191777518,1.102734318502682,-2.099118361007025,1.1123872698060353,0.1435755228753592,0.3242557429099087,0.46056771460451007,-2.379904502450424,-1.387068165261166,1.240759183101023,-2.3623705894494136,-1.3309746825215552,1.2343012311106616,LR
1.4364445694934962,0.8364365795632404,-1.147527073242726,-0.08341405333801648,-0.800160936915785,0.39773752239463445,-1.6113796588361662,-1.1096448977422575,-0.9509108783424628,-1.5195547903787636,-1.0385051455505436,-0.9760822336817235,1.1407679742947507,-2.0965551147317365,1.1146691678986689,0.2281883024496976,0.6978261081647049,0.645671545846376,-2.379340763056008,-1.3859425636588643,1.2409045584499578,-2.361029057872949,-1.3505401481970825,1.2361701196026824,LR
1.412324324431168,0.8303369684586498,-1.147527073242726,0.30505271274510937,-0.8440738841157243,0.24984807410758286,-1.6091313219710568,-1.1080955199728317,-0.9513156645696735,-1.5109158101468472,-0.9963696004552504,-0.9727296459190832,1.1113783698072446,-2.1076615821080336,1.0895692235092673,-0.11026280199231282,0.3242557429099087,0.6985582805421892,-2.379808632996523,-1.3848408376343546,1.2407242930172788,-2.3993052211267933,-1.3351578268300313,1.219994703843561,LR
1.445824698337552,0.816103987331199,-1.1401764889046508,0.09939405052916929,-0.9977687678714952,0.013225156008004885,-1.6083896470988879,-1.1080167321304581,-0.9515138702395488,-1.575139581216789,-1.0615191548536393,-0.9603337104508998,1.1407679742947507,-2.126456738516498,1.1146691678986689,-0.3006416045282753,0.3242557429099087,0.7778886423924285,-2.37986939532646,-1.3841037383517032,1.24080094547399,-2.3725704132815357,-1.352185680092974,1.2317229084344081,LR
1.3908841004994348,0.8354201165166601,-1.1407420431739592,0.05369184794710378,-1.063638188671404,-0.016352642206428274,-1.6064849500464948,-1.1058075280181394,-0.9517986164131726,-1.5144513481276796,-0.9519181472315601,-0.9644916995962529,1.1165647581029803,-2.1153502711402012,1.091851121601901,-0.17372236589005186,0.5110409255373068,0.3812373527542708,-2.380373047527938,-1.3829667738681861,1.2405559219313302,-2.3993396366752844,-1.3383663988896575,1.220209564066582,LR
1.4284045061017112,0.8262702834472195,-1.1424382427924746,-0.1748177086356237,-0.9758124380861977,-0.4008653821143712,-1.605409996360988,-1.1050436702780546,-0.9521838612363109,-1.5442673738383528,-1.0259415624358896,-0.9657067688103104,1.1217511463987162,-2.1281651027917143,1.1260781910470528,-0.2371819159324477,-0.0700684842494642,0.4341242606544303,-2.3800341287542897,-1.3823690727890166,1.2406817376878632,-2.355469934569672,-1.34291715916507,1.237857892790144,LR
1.4190244321446286,0.8364365795632404,-1.1633586556733786,-0.3347748650017674,-0.6903787127306091,-0.3121315969010677,-1.602666921775561,-1.1038037662619877,-0.9531413900358502,-1.45210906218204,-1.0121396239182396,-0.9953728508828849,1.1148359620044017,-2.1016812573510806,1.0958440927779216,-0.533326713719348,-0.0078067707539336674,0.5927846379462164,-2.380594492463708,-1.3816115473746569,1.2405818251753222,-2.3882240893274354,-1.3368037621084758,1.2244938505504055,LR
1.412324324431168,0.8262702834472195,-1.1684474861236298,-0.0377118440206229,-1.2392896898418164,-0.8741110741745972,-1.59950077304885,-1.1029163985339692,-0.9542440835513541,-1.4419349141426572,-1.0059880475726601,-0.9979534795347594,1.1442255664919077,-2.1102244784520896,1.097555633176093,-0.2794883749963328,-0.0078067707539336674,0.804331923138162,-2.3809982243892893,-1.3811888211389647,1.240519181615872,-2.3912951709192316,-1.3525293620284127,1.2243551800261,LR
1.4069642821699782,0.8283036259529347,-1.1571389482792154,-0.5404339163699953,-0.8660302139010218,-0.16424210986699192,-1.5975036904186666,-1.1014139266086174,-0.9548973247731974,-1.4758283524418487,-0.9909993153801564,-0.9840275601250219,1.0975479302069462,-2.0922835041812324,1.0907101725555841,0.016656353513851592,-0.40213091227231273,0.5134544493003234,-2.381169034050112,-1.380551417611739,1.2403621762390225,-2.3906412754979063,-1.3271051681482948,1.222836922327476,LR
1.4257244849711164,0.8252538204006397,-1.163923978347982,-0.2890726706517695,-0.9318994908862586,0.33858185932088647,-1.5951646948089964,-1.1007651934541736,-0.9556036069489509,-1.4674081896190772,-1.029265109082038,-0.9926361582952601,1.1217511463987162,-2.0922835041812324,1.0981259908705552,0.312801082024036,0.07520887805273975,1.068766116230267,-2.3809489393883405,-1.3798352179141804,1.2404208550162288,-2.381863961003402,-1.3399083286997682,1.227225079888441,LR
1.4364445694934962,0.814071061238039,-1.1577045025485238,-0.31192369298979,-1.1953768864565493,0.6935164189687375,-1.5937253793120163,-1.1008026657206684,-0.9559972266595486,-1.5089903892435435,-1.051174473904268,-0.9815528320009783,1.1269375346944523,-2.0974096468005765,1.1015488380095058,0.3551074025344893,0.19973224251228147,0.9101055657341348,-2.3806512039716496,-1.379104679342707,1.240467375127888,-2.3792848193106217,-1.3430058360963772,1.2284578239410138,LR
1.4243844744058187,0.8374534590223752,-1.1384802892861352,-0.4718808493559337,-0.029907099200566903,0.545626970681686,-1.5931313486809888,-1.0990226893881985,-0.9560670173883778,-1.542959638298659,-1.0123476186859977,-0.9640987529008811,1.1563271391819583,-2.1196218816907053,1.115239525593131,0.3551074025344893,-0.1530841153841865,0.989435927584374,-2.380179283209139,-1.3789850309089569,1.240624644823554,-2.370254449312509,-1.3598202999886075,1.2331264861366957,LR
1.3989242187781932,0.8242373573540595,-1.149788595535845,-0.4718808493559337,-1.3929847174122594,0.9597175808735271,-1.5917084380996913,-1.097752038897059,-0.9562205569918025,-1.5010595503908284,-0.9751646212750911,-0.9728494807268916,1.1148359620044017,-2.0820319188050087,1.1283600891396863,0.312801082024036,-0.21534586558300012,0.804331923138162,-2.3790133216113487,-1.3784496227678786,1.2409965413980115,-2.3336093131312565,-1.336773777338678,1.246072935010464,LR
1.4270644955364138,0.8191542092960491,-1.153181226367581,-0.10626494096947584,-1.0416817150714344,1.1076064479552155,-1.5902509908537987,-1.0972951218200568,-0.9564243459199843,-1.5133202171898545,-1.030283234730937,-0.9770158304402312,1.0854463575168958,-2.0880118936307284,1.1232259352599567,0.058962618602932226,0.3657636216884796,0.6721148265921094,-2.3782004566641906,-1.3771978796568467,1.2412516090556882,-2.3410127049448346,-1.3217610888513298,1.2420815438736055,LR
1.4270644955364138,0.8201706723426293,-1.1051206932116098,-0.06056276158687363,-0.6245094357453724,0.24984807410758286,-1.5922100831529278,-1.096126144331714,-0.955561732511653,-1.6842872555729047,-1.0128422617051194,-0.9150194319633413,1.1131071659058231,-2.0974096468005765,1.1140985765468143,-0.2160288249539369,0.2827478641313378,0.566341357200483,-2.377981712276418,-1.376324087618622,1.2413475567859853,-2.3600674469592353,-1.336286558444679,1.235586437966156,LR
1.4230444638405213,0.815087524284619,-1.1424382427924746,-0.08341405333801648,-0.2512499598045778,0.04280296274678338,-1.5915279840271843,-1.0948040459035924,-0.9556985223401588,-1.5534757962255643,-1.0206875097310133,-0.9617327121606634,1.1217511463987162,-2.1204764137595458,1.1032601447502848,0.0801159312669338,0.3657636216884796,0.03747305761844571,-2.3780593530313374,-1.3755163085093631,1.241130815356664,-2.3852427580875863,-1.3417152808474178,1.22601500820296,LR
