xa_S1,ya_S1,za_S1,xgb_S1,ybg_S1,zbg_S1,tilt_x_S1,tilt_y_S1,tilt_z_S1,tilt_accx_S1,tilt_accy_S1,tilt_accz_S1,xa_S2,ya_S2,za_S2,xgb_S2,ybg_S2,zbg_S2,tilt_x_S2,tilt_y_S2,tilt_z_S2,tilt_accx_S2,tilt_accy_S2,tilt_accz_S2,Posture
-1.0921620085466504,-0.803391064793916,0.13992688193152883,0.06170135863132041,-0.5960429033890506,0.0729871852126154,-0.642343879724292,0.8122010862850363,0.32078032869634393,-0.6336328811052463,0.8078827603159212,0.2799618453927132,0.9056510675830333,0.6090897266372378,-0.7507110236673405,0.3053866722308661,0.11056311157694723,1.068223986626517,0.5624289580339157,-0.6393161138342273,-0.9514201972809954,0.5160223952344902,-0.803170326914393,-0.9530193385532837,LB
-1.120302010870005,-0.7810251300561595,0.13879623658232176,0.4730190722154884,-0.7058251275742263,0.1912986857217203,-0.6411290525471762,0.8121809962587107,0.32002742631373277,-0.6027305217216126,0.8417483285738483,0.280058827981358,0.8779902591941059,0.6278848830457023,-0.7489994832691693,-0.13883019192124815,-0.40828455752667614,1.1475545216811025,0.5622507218661006,-0.6422467902810323,-0.9513831926467206,0.5565713343180798,-0.7667858929081233,-0.9609362127831291,LB
-1.152462483985038,-0.7800082505970247,0.17328647800605423,0.6329760789076752,-0.727781457359524,-0.25236954289836167,-0.6388409985177834,0.8123251203606132,0.31959165300292225,-0.5547078537870339,0.8509647689972724,0.2998259975577574,0.9160239149861744,0.649242935798223,-0.7638313535565037,0.1573143426141318,-1.0516555910898413,0.9888939711849701,0.5635456346307577,-0.6465626560569526,-0.9520228441820348,0.6194458421520479,-0.8151716301802687,-0.9927276168249906,LB
-1.102881983295084,-0.7830584725618746,0.17102495571293524,0.7243800185858004,-1.0132151827151126,0.0729871852126154,-0.6371573361187962,0.8114664901050346,0.31925247006081126,-0.5864716990334434,0.8137083616683338,0.30077324991064314,0.8987358831887188,0.6236132724951983,-0.7364495110744684,-0.054217647887743727,-1.2591947131065249,0.6980164973471316,0.5628050093425259,-0.6503009087044235,-0.9519197598436994,0.5265312841883545,-0.783208268958515,-0.9531696088933113,LB
-1.0827818248156216,-0.7678090283878437,0.1795061854002175,0.8843368756040305,-0.991258852929815,0.13214292578041179,-0.635231053651032,0.810441025283011,0.3190913930586731,-0.579430775076976,0.8034563170440985,0.30870687155876,0.87280387089837,0.6398455325596067,-0.7398723582134189,-0.011911036415083733,-1.840304608192261,0.7509030588385985,0.5629697427703549,-0.6537665874751202,-0.9520016986767351,0.5695736635008355,-0.7522372288179576,-0.96280800122908,LB
-1.1323623255055755,-0.7423928716852374,0.1704594014436269,0.9757408152821557,-1.1669103541002275,-0.25236954289836167,-0.6325009303148283,0.8103772612864117,0.31873908945954244,-0.5413169175360457,0.8584508327813661,0.30306934056537266,0.8555155558542364,0.6381368183531587,-0.7438655630468319,-0.22344309619367508,-2.0478426427042606,0.7509030588385985,0.5630622365392589,-0.656979306866379,-0.9520466328754968,0.5736873337674994,-0.7355546710206669,-0.9610073934705105,LB
-1.074741432101997,-0.7810251300561595,0.16932875609441972,1.1356976723003858,-0.8375636815446998,-0.5481484394724647,-0.6309122437434758,0.8093343268762785,0.31829884954208654,-0.602267903813302,0.7946698489977203,0.3014393084935783,0.8745326669969486,0.6304477793897584,-0.7507110236673405,0.09385465401830416,-1.8195495812982916,0.9360068900804643,0.5632053655831105,-0.6605214145404887,-0.9520942102624211,0.5649241903811975,-0.763446557670792,-0.9633036297189944,LB
-1.0734016410845928,-0.7901749631256002,0.18063706234412943,0.7472308912498641,-1.0571281299150517,-0.8735048769807602,-0.6296309334870157,0.8078974532542778,0.3179205837918314,-0.5995852368366178,0.7837046794554579,0.3075430804950206,0.8641598904054769,0.6424084289036628,-0.7472881765283901,0.7284507086559897,-1.2176868343279539,0.6715726969883592,0.564201867794077,-0.663162608061092,-0.9523030221272551,0.5868279999588946,-0.7468258518650119,-0.9679356470422835,LB
-1.1002018523905426,-0.7911914261721802,0.164805248318772,1.0899957772983015,-0.8814766287446391,-0.8439271423114468,-0.6281337690768396,0.8072205067150372,0.31734132074254734,-0.5991234804141696,0.8099443555139921,0.2962251009259139,0.8641598904054769,0.6304477793897584,-0.7444359207412942,1.0245953678894584,-0.49130017914573254,0.6715726969883592,0.5648297452034258,-0.6652884137551395,-0.9522845198101174,0.5569883697880271,-0.7474658855162984,-0.957358724161784,LB
-1.1055621141996257,-0.7830584725618746,0.18120238501873304,0.7472308912498641,-0.7058251275742263,-0.6664599593550817,-0.6264380188452441,0.8066894312365107,0.31701330431704905,-0.5761485139398,0.8112089287448564,0.30691157892643006,0.8676174826026342,0.6406997146972148,-0.7375904601207852,1.1726676975061925,-0.906378287241014,1.0153372519307036,0.565785064057435,-0.6676157753183649,-0.9522633743048178,0.568690331089572,-0.7445474127429431,-0.9609889392182266,LB
-1.0868017467375675,-0.804407527840496,0.15915109519391718,1.4556113863368456,-0.13495766248158245,-0.9326609275247504,-0.6250720937605274,0.8063575090624313,0.31633828838781164,-0.620882890336163,0.7951592484512682,0.29206599703816266,0.8935494948929829,0.6065268302931818,-0.7626904045101869,0.8130633496768964,-0.5120539825969325,1.5442052917062215,0.5656405847395848,-0.6706526405955758,-0.9520651351926339,0.5295719991197172,-0.7974907005634819,-0.9569131857852128,LB
-1.0921620085466504,-0.7911914261721802,0.1761135545684817,0.8843368756040305,-0.5960429033890506,-1.317173415577036,-0.6237225735914929,0.8057320978081138,0.3158458450051915,-0.5938141430418824,0.7990552176725486,0.3036398099876604,0.8589734312980716,0.6637664816561835,-0.7586971996767742,0.6438379290816514,-0.6988391652243304,1.5442052917062215,0.5678185766993259,-0.6727148682637754,-0.9525065476157641,0.6495486500466683,-0.7442206728747442,-0.9897749364595471,LB
-1.0787619028936757,-0.7850913986550349,0.17385203227536272,1.2956546789925725,-0.5960429033890506,-1.4059070070552184,-0.62210712110508,0.8049730442047589,0.31532492700520864,-0.5989451528405754,0.79344635036385,0.30359912189012556,0.8641598904054769,0.6253219867016463,-0.7524223304081199,1.0245953678894584,-1.1969328949386684,-0.015056789521927549,0.5683877171897357,-0.6752951892064388,-0.9526704252818358,0.5576415903946758,-0.75391193871854,-0.9588456096315252,LB
-1.0868017467375675,-0.7901749631256002,0.19420689088695814,1.5698661986790343,-1.3206052378559985,-0.9622388559291849,-0.6199157697365523,0.8034671657097261,0.31514012115526846,-0.5802026664100235,0.7876714368119835,0.31517572169561886,0.8382275948684503,0.6210503761511422,-0.7969177076127308,1.616884824909827,-1.0516555910898413,-0.015056789521927549,0.5704921192165531,-0.6777422668396123,-0.953236067548601,0.6137632277630097,-0.7551032618593798,-0.9791980135790469,LB
-1.0814414849284844,-0.7779753245038644,0.17667910883779003,2.186843203109761,-0.8595201551446695,-1.1988615082241767,-0.6174394908851185,0.8026111558923638,0.3147241684114454,-0.5899107505976449,0.7981105019416819,0.30595401520636106,0.8347705691646489,0.6039639339491256,-0.7535632794544367,1.405352529590402,-1.383718213504152,1.2533278178683829,0.5704779413395678,-0.6798024654218805,-0.9527021435397856,0.5175758186193098,-0.726268132338714,-0.9390441969307688,LB
-1.0841216158330258,-0.7830584725618746,0.18007150807482109,2.1411417571295472,-1.1010409333003188,-0.5481484394724647,-0.6150348756127187,0.801511445320875,0.3144829716526111,-0.5890604640510851,0.7958155680755798,0.30737001673769737,0.8779902591941059,0.6125071550501339,-0.7632609958620414,0.7707570291664431,-0.07454092474708618,-0.015056789521927549,0.5705137236005305,-0.6819289474779051,-0.9528633780176954,0.5446601804668851,-0.7791999909869085,-0.958985334684533,LB
-1.0546412736225346,-0.78712474116075,0.18289858463724842,1.1585486946384063,-0.9253894321299062,-0.015746483759615536,-0.6139098437635493,0.8001357152572572,0.31441792669334206,-0.6058706376914308,0.7704043753776947,0.31027224857145774,0.8347705691646489,0.614215869256582,-0.7644017112509659,-0.03306450910829899,-1.383718213504152,1.3855449144144352,0.5702126124988429,-0.6840067314715781,-0.9525964160132876,0.5547668798736805,-0.7313272218617499,-0.9533936962424743,LB
-1.0667015882581048,-0.7708588339401392,0.16593612526268392,1.1356976723003858,-1.1229974069002884,-0.16363587392613074,-0.6126984702528935,0.7990648295061492,0.31413290135680283,-0.6025246266004093,0.7957692499130121,0.30082982308735245,0.812295653389771,0.5928574665728292,-0.7398723582134189,-0.26574969381099195,-1.757288578758948,0.8566768746389176,0.5681899020489408,-0.6855691276386955,-0.9517426662368142,0.47671713959930295,-0.6941703102658499,-0.9179931677182092,LB
-1.0760817719891342,-0.7586591953184033,0.18120238501873304,0.7015289962477799,-0.6619121803742873,0.5166554332062095,-0.6113299549183321,0.7985669462450303,0.31420380873729337,-0.5751242072489594,0.8027554271124099,0.31109632188934017,0.87280387089837,0.614215869256582,-0.7438655630468319,-0.18113677568322178,-6.592948843929672,0.27492175375889405,0.567143439700026,-0.691970217390037,-0.9516105068286916,0.5204606513604496,-0.760432617693148,-0.9466868936981094,LB
-1.0653617972407006,-0.784074935608455,0.2026883521689453,0.6786779739097594,-0.6179993769890202,0.014230713355838028,-0.6101082204082976,0.7974890726586783,0.31438945207597974,-0.580138916456178,0.7712975293804198,0.3222119757131702,0.8347705691646489,0.6287394151145425,-0.7484291255747069,0.09385465401830416,-0.8648704084624431,0.5129123196965731,0.5671576175770116,-0.6931842871389442,-0.9515629294417673,0.5625744856783557,-0.717219589363227,-0.9533778783119446,LB
-1.0693817191626465,-0.7739086394924343,0.17667910883779003,0.7243800185858004,-0.7497379309594936,0.13214292578041179,-0.6091446474661083,0.796716043384836,0.31429230338144937,-0.5937521160597625,0.7913664026862711,0.3070342005902342,0.8486007963299388,0.6210503761511422,-0.7501404323154862,0.009242096129456579,-1.1346712127088976,0.2484784730131605,0.5667977695563847,-0.6948921011311396,-0.9515417839364678,0.5470443007182177,-0.735721402476044,-0.9514902719354649,LB
-1.0827818248156216,-0.7881416206198851,0.134272728806674,0.8843368756040305,-0.4862606792038748,0.3391880565147234,-0.6089003005641012,0.7966295689236942,0.31366390765906926,-0.6330617159782258,0.8118075691478571,0.2784580578975171,0.8658886865040556,0.6193416619446941,-0.7541336371488989,0.009242096129456579,-0.4290384969159616,0.27492175375889405,0.5664514242757438,-0.6965545988708689,-0.9515999340760423,0.5472224517927583,-0.7582677979902676,-0.9559351104141594,LB
-1.0479412207960472,-0.7932247686778953,0.16593612526268392,0.5644231615675704,-0.6619121803742873,0.427921841728027,-0.6088035979032362,0.795514135722907,0.3134922224661492,-0.6289610432714123,0.769440433239724,0.2994756897591175,0.9004646792872973,0.6210503761511422,-0.7501404323154862,-0.13883019192124815,-0.5535618613755033,0.22203467265438823,0.5658836340593328,-0.6990037055899735,-0.9517611685539521,0.5411531685942059,-0.7944814667156269,-0.9605644914156942,LB
-1.085461955720163,-0.8135573609099362,0.18742209241289617,0.7015289962477799,-0.46430420560390523,0.427921841728027,-0.6080800547799795,0.7947480942843086,0.3135072972635764,-0.6034438320159909,0.776964949838025,0.3086032005157257,0.888363106597247,0.6184874798070862,-0.745576869787611,-0.09652392683216751,-0.7611008474541013,0.11626132450580404,0.5651409833601029,-0.7012309655805872,-0.9518034595645513,0.5303115960049308,-0.7783320461929896,-0.9536283288786565,LB
-1.0586617444142132,-0.7952581111836103,0.17159027838753885,0.9528897929441352,-0.7497379309594936,0.6349669530888264,-0.6074773899828031,0.7936807024508223,0.3134375065347471,-0.6193873508783844,0.7738904725566287,0.30220012018036196,0.8658886865040556,0.6099442587060778,-0.7501404323154862,0.030395228673996886,-1.2591947131065249,0.46002558500075985,0.5643281184129461,-0.7033621821704517,-0.9516263659576669,0.5214823207803526,-0.7576533119006921,-0.9465260780710629,LB
-1.0707215101800514,-0.78712474116075,0.16593612526268392,0.9757408152821557,-0.46430420560390523,0.5758110962799575,-0.6067167199451071,0.7932072766130567,0.31329038767837447,-0.611823505003212,0.7897933330141524,0.2989102366776214,0.852058530150435,0.6073810124307897,-0.7581268419823116,-0.054217647887743727,-0.07454092474708618,0.3542517692004408,0.5636280013446723,-0.7043882232897231,-0.9514942065495435,0.5293769776782693,-0.7479210354973077,-0.9475094260856255,LB
-1.0975217214860011,-0.7718752969867191,0.17328647800605423,1.0214428599581968,-0.6838686539742569,0.4574995763973404,-0.6052843117810456,0.7930500503200718,0.3132158511799848,-0.5795375993239605,0.8149213731710565,0.3036294986204771,0.8036516728968779,0.5723539458891487,-0.7661132516491374,0.009242096129456579,-0.07454092474708618,0.6980164973471316,0.5618814219274837,-0.7045789573672673,-0.9507435411114071,0.4741960319686836,-0.7074268055768427,-0.9197173221458882,LB
-1.1015421922776798,-0.7739086394924343,0.15915109519391718,0.907187897942051,-0.6838686539742569,0.5758110962799575,-0.604255982592741,0.7930963447285616,0.3129757710728117,-0.5909583174067798,0.8229938423718118,0.2944356606911745,0.8451430625094427,0.6236132724951983,-0.7775222747975212,0.07270150761842069,-1.1761790914874686,0.1955913919086547,0.5625693865297701,-0.7064193383069757,-0.9511215170186379,0.5917656189453085,-0.7495735593574568,-0.9702424285777864,LB
-1.0653617972407006,-0.823723657025957,0.18007150807482109,1.2499526343165315,-0.991258852929815,0.5166554332062095,-0.6036541812121797,0.7915633883719589,0.31292943002886897,-0.6281943208535421,0.759751197987069,0.30408487089014913,0.8416853286889465,0.5911491022976133,-0.742724614000515,-0.3926687938957837,-1.4459794879196661,1.1475545216811025,0.5605655799158483,-0.7079519745471003,-0.9503682083923382,0.47370949058707845,-0.7296088121845566,-0.9238748015533023,LB
-1.0680413792755097,-0.7779753245038644,0.19024916897532362,1.318505701330593,-0.9473459057298758,0.6349669530888264,-0.6022209096315037,0.7906034345053458,0.3131200983000307,-0.5853965646766988,0.7821377272765082,0.3150645261413966,0.8918206987944042,0.6159242335317979,-0.7421542563060526,-0.37151542581040936,-1.7780422462720624,0.9888939711849701,0.55951304133394,-0.7107893130410646,-0.9501726124683167,0.5193654271408309,-0.780603762272503,-0.9500851124401242,LB
-1.0801016939110801,-0.7749251025390141,0.18176793928804139,1.1585486946384063,-0.9253894321299062,0.7532784729714436,-0.6008523942969423,0.7899142592544287,0.31322897183700454,-0.5840173258103951,0.796542675835137,0.3094963878622978,0.8589734312980716,0.6278848830457023,-0.7335972552873725,-0.2869027847895027,-1.1346712127088976,1.1739978024268358,0.5588784125545982,-0.7121765314561113,-0.9498845049586087,0.5361311977732558,-0.7347163076139923,-0.9473723373543727,LB
-1.0492815606831838,-0.8379566381534079,0.1925106912684426,1.0214428599581968,-0.6838686539742569,0.7237005445670089,-0.6006702133912055,0.7882223296460303,0.31336101589595,-0.6360157510016842,0.7348573704257914,0.3110559124774046,0.8849054435884204,0.6219045582887501,-0.7461472274820732,-0.03400563952835668,-1.0101478482493558,0.8037897935344118,0.5584915590539995,-0.7142360536764023,-0.9498554298888222,0.5388378794398551,-0.7740461065638397,-0.9559087471966107,LB
-1.10690190521703,-0.7993243797824858,0.18402946158116038,0.9528897929441352,-1.3206052378559985,0.014230713355838028,-0.5995158253771311,0.787338368487693,0.3132560506397906,-0.5844945889783726,0.8020326889908309,0.3068711695144945,0.8330413481960534,0.6355739220091027,-0.7364495110744684,-0.011911036415083733,-1.155425152098183,0.9624501708261979,0.5585509711099378,-0.7149245901690973,-0.9496915522227498,0.5600594513798229,-0.7052794657846068,-0.9500719308313501,LB
-1.1002018523905426,-0.769841954481004,0.19194536859383915,1.2042507393144473,-1.3864746586559071,0.4574995763973404,-0.5977527286495762,0.7866483197573706,0.31340819442863854,-0.5603032044657635,0.8097180082667261,0.31522142613394566,0.8105671405378703,0.6381368183531587,-0.7484291255747069,-0.22344309619367508,-1.404472016955352,1.1211107213223304,0.5589702311865029,-0.7154812360762564,-0.9495884678844144,0.5855728446609951,-0.6877464431040414,-0.9555422984726849,LB
-1.0050607729325807,-0.7525591678012581,0.1891182920314117,1.3870586186706977,-1.34256185527064,0.014230713355838028,-0.5966656871314605,0.7847205507094948,0.3135765296665749,-0.6032715348434355,0.7492579493464419,0.32056968147499554,0.8710750747997914,0.6278848830457023,-0.7347382043336894,-0.22344309619367508,-0.07454092474708618,1.2004410831725696,0.5583963647370982,-0.7162942231727393,-0.9493664400787677,0.5363856029062173,-0.7493819526446243,-0.950317108754552,LB
-1.0774215630065385,-0.7545925103069732,0.2123002272054346,0.05267518085996921,-0.029907099200566903,0.9307456559278086,-0.595540655282291,0.7848568134967482,0.31413820545219395,-0.5438367636846649,0.7919204727818949,0.33066200177726185,0.857244635199493,0.6287394151145425,-0.735308795685544,-0.22344309619367508,-0.07454092474708618,0.8566768746389176,0.557929845070582,-0.7167757929004394,-0.9492078487890203,0.5407179131279991,-0.733721297315774,-0.948824950641301,LB
-1.0801016939110801,-0.7627258803298336,0.1987303986626059,1.2956546789925725,-1.188866683885525,0.36876598491915796,-0.5937844658876553,0.7840995068522044,0.31437633141895965,-0.5603057889233515,0.7956434043392424,0.3212739199850699,0.8157533872102672,0.6355739220091027,-0.7307449995002766,-0.26574969381099195,-0.07454092474708618,1.068223986626517,0.5576962476688243,-0.7161941216001273,-0.9488748070805513,0.5538545304313364,-0.6813770325869329,-0.9429696800237558,LB
-1.165862589638013,-0.7820415931027399,0.1947724451562665,0.8843368756040305,-0.9253894321299062,-0.16363587392613074,-0.5917433490101138,0.7846104923044052,0.31431714888091256,-0.5304604726933437,0.8500480189494657,0.31206670514698875,0.8261265886717558,0.6330110256650466,-0.745576869787611,-0.3926687938957837,-1.362964138176781,1.1211107213223304,0.5576719427368494,-0.717032134089763,-0.9487373612961036,0.5686289229540296,-0.7044753898949654,-0.9529613394746771,LB
-1.072061850067188,-0.7769584450447292,0.19081449164992723,1.0899957772983015,-0.029907099200566903,-0.31152520597210964,-0.5906010488286472,0.7846192270984599,0.31429314087019516,-0.5819437293386934,0.7854341821671924,0.3153030810146149,0.8434145496575419,0.6398455325596067,-0.7484291255747069,-0.03306450910829899,-1.3007024559470102,1.332658179718622,0.5582397329532607,-0.7181515131618753,-0.9487743659303784,0.5853366595242935,-0.7245624964423761,-0.9629767258213914,LB
-1.0600015354316175,-0.78712474116075,0.2026883521689453,1.1356976723003858,-0.7497379309594936,-0.25236954289836167,-0.5895701293904978,0.7836330688496825,0.3144232307887332,-0.5852518350517524,0.7656624442438527,0.3221751892140292,0.8071094067173741,0.6278848830457023,-0.7586971996767742,0.41115268133714694,-0.9893937729219849,0.6715726969883592,0.5589823836524903,-0.7184558760515735,-0.9487664363658909,0.5787214512526228,-0.6935195197464746,-0.9543058635696555,LB
-1.0801016939110801,-0.766792148928709,0.18629121546898422,1.0899957772983015,-0.727781457359524,-0.7256156224288297,-0.5883173118823288,0.783309881469658,0.31426634123032454,-0.5742248160082217,0.7989992863064288,0.3131585953260433,0.8243973677031603,0.6270307009080943,-0.7547039948433611,0.1784675721460743,-0.49130017914573254,0.6451294162426258,0.5594239232500324,-0.718869809581563,-0.9486950702855045,0.5691782221005297,-0.7102773756203873,-0.9543348631089592,LB
-1.0626816663361591,-0.7810251300561595,0.2326553174117349,0.7472308912498641,-0.5082171528038443,-0.5777261741417782,-0.5866673227313209,0.782159509092652,0.3146437694918338,-0.5524318081375799,0.7574466509174151,0.3410299421374871,0.8313128353441527,0.6133613371877419,-0.7495700746210238,0.47461250848640635,-0.40828455752667614,0.7509030588385985,0.5592524384522103,-0.7192188123617502,-0.9484333946574217,0.5319648919618416,-0.7175530522739811,-0.9424898694643719,LB
-1.0693817191626465,-0.7901749631256002,0.20438455178746068,0.6786779739097594,-0.2008269538482864,-0.4889925826635957,-0.585951550357598,0.7817603290043513,0.31471718933856263,-0.5807522943904745,0.7702330855689528,0.3223724986185134,0.8036516728968779,0.6039639339491256,-0.745576869787611,0.6226846995497087,-0.4290384969159616,0.6980164973471316,0.5587136791267692,-0.718920536729846,-0.9479126865894182,0.5096879098681562,-0.68585390662466,-0.9281403701526664,LB
-1.0533014826051303,-0.7861082781141701,0.2055154287313726,0.7929329359259052,-0.3545219814187293,-0.34110313437654416,-0.5852936268970704,0.7810466963300811,0.3148657040095115,-0.5856713786669246,0.7599644363204006,0.32438962498808904,0.8364990820165495,0.6073810124307897,-0.7621200468157246,0.6649910200601621,0.11056311157694723,0.6980164973471316,0.5587933452926863,-0.7192039323982539,-0.9477778839931331,0.5369693176012081,-0.7332049676475093,-0.9473776099978826,LB
-1.0318609842385305,-0.7718752969867191,0.2100387049123156,0.7472308912498641,0.238301799077745,-0.25236954289836167,-0.5845959862722594,0.780650136679997,0.3151356545486236,-0.5832058061276597,0.7495952853983517,0.32991512437045556,0.812295653389771,0.6125071550501339,-0.742724614000515,0.4323057723156577,0.08980930812574726,0.8037897935344118,0.558391638778103,-0.7186662246264537,-0.9473602602634649,0.522465525763707,-0.6915368944968489,-0.9338638246824686,LB
-1.0921620085466504,-0.7850913986550349,0.21343110414934652,0.4501680498774678,0.21634532547777544,0.1025650554965136,-0.5836539987454411,0.7809506135954793,0.31542012155933197,-0.5566315517186121,0.7858038535401403,0.3272057429715871,0.8157533872102672,0.6244674546328062,-0.7301746418058142,0.3053866722308661,0.2143328085233745,0.8037897935344118,0.5580452934974622,-0.7178944956105746,-0.9469690684154214,0.5290449688575345,-0.6836030319770686,-0.9345940858085644,LB
-1.0734016410845928,-0.7901749631256002,0.19816484439329754,0.15310522347246724,0.32612754966295127,0.01383140027947626,-0.5835167155036776,0.7811401586264667,0.31550387043392725,-0.584082798735966,0.7759800334377597,0.318335737708967,0.8088379195692748,0.6244674546328062,-0.7489994832691693,0.3053866722308661,0.6294107806805707,0.5922426815468125,0.5582896930912088,-0.7169360906890139,-0.9468448385717865,0.5574283489569681,-0.6893364426684242,-0.9458801792411217,LB
-1.0827818248156216,-0.7800082505970247,0.1925106912684426,0.08455227619757115,0.391996826648188,0.4870775048017749,-0.5832853198508938,0.7817061732812123,0.3156278187683283,-0.5766878040898975,0.7909827484717933,0.31543740747360044,0.8295836143755572,0.6184874798070862,-0.7672539670380621,0.11500816065711021,0.3596099764341162,0.4864688657464934,0.5586124085768741,-0.716943530670762,-0.9469769979799091,0.5683778918944498,-0.7265592400813684,-0.9573218156572163,LB
-1.0787619028936757,-0.7830584725618746,0.2021227978996368,0.3130622151972584,0.391996826648188,0.427921841728027,-0.5827828113810423,0.7820826429049705,0.31585310324098964,-0.5725587023496126,0.7820538302273287,0.32123880559952595,0.8243973677031603,0.6236132724951983,-0.7398723582134189,0.030395228673996886,-0.0762220397846912,0.883120155384651,0.5583052212421926,-0.7167473856974009,-0.9467258951044758,0.5404311168905757,-0.7006183803808581,-0.9421234207404461,LB
-1.0841216158330258,-0.7942412317244752,0.1987303986626059,0.3130622151972584,0.1724325220925083,0.8715899928540606,-0.5824659374833867,0.7822311344039007,0.31608425013487257,-0.5805696593875656,0.7814744162314318,0.3176627119860428,0.8330413481960534,0.5621020105816923,-0.751281381361803,-0.011911036415083733,-0.013960239288785956,0.6715726969883592,0.5557147205758796,-0.7171471156258712,-0.9458219247529164,0.42735377121401336,-0.7323155091174127,-0.9075823331082654,LB
-1.089481877642109,-0.7789917875504444,0.20438455178746068,0.29021119285923785,-0.3106091780334622,1.078635297949981,-0.5817829749410282,0.7821525212574081,0.3164627950480431,-0.5617728993476586,0.7911951128775293,0.3224756122903489,0.8589734312980716,0.6090897266372378,-0.7547039948433611,-0.03400563952835668,-0.6365774829945596,0.40713885030494656,0.5551577325514573,-0.7184119125230615,-0.9458007792476169,0.5271791062775928,-0.7530513892714322,-0.9477045138954856,LB
-1.0626816663361591,-0.7850913986550349,0.20099192095572488,0.5415721392295499,-0.6179993769890202,1.3448360723845285,-0.5813434958840621,0.7813672632718891,0.3168647896461002,-0.5838510590388792,0.7695094735197783,0.32120647806997765,0.8364990820165495,0.616778765600638,-0.7432949716949773,-0.5195880325340071,-0.7611008474541013,0.14270465721284142,0.5543077350693388,-0.7190429582477024,-0.945718840414581,0.5293918236011477,-0.7183013269104117,-0.9417174271901976,LB
-1.1002018523905426,-0.8094906758985061,0.2021227978996368,0.49587009455350883,-0.156914136081552,0.9899015127366774,-0.5808651630794264,0.7812912705636131,0.3171043114274429,-0.5795487986401765,0.7836067995647482,0.3172368803899238,0.8278551015236565,0.6116526229812937,-0.7341678466392272,-0.6676602235973097,-0.44979230036716156,0.30136503450462754,0.5529318058647658,-0.7191132998933215,-0.9453778691416244,0.5059986980328786,-0.703296840534981,-0.9303337898527103,LB
-1.072061850067188,-0.7739086394924343,0.17724443151239364,0.38161513253736307,-0.2008269538482864,1.3152581439800939,-0.5807563725859533,0.781377745024755,0.3171891769536994,-0.5917569148015732,0.7931151318051096,0.3072398705627053,0.8503293091818395,0.6099442587060778,-0.7535632794544367,-1.2176432215537933,-0.8233626656219577,0.8302335938931841,0.5516051616611417,-0.7202610861684722,-0.9452351369808515,0.5283181934511704,-0.7423980560379403,-0.9460594491204528,LB
-1.0827818248156216,-0.805424407299631,0.18459501585046884,0.7243800185858004,-0.3984349286186684,1.3744140007889631,-0.5805387915990075,0.78102573282435,0.3173156377543383,-0.6016786474831629,0.7806258325360832,0.3078680279041009,0.8174819000621679,0.6210503761511422,-0.7432949716949773,-0.7099665441077628,-0.5950696042159888,1.1211107213223304,0.5509516290458196,-0.7202556752726554,-0.9449549590356311,0.5408204849587951,-0.6958087157366324,-0.9412850704224004,LB
-1.0680413792755097,-0.7789917875504444,0.1930762455377511,0.7472308912498641,-0.5301736264038139,1.847660080319431,-0.5799844781322641,0.7805872461628031,0.3176911118754402,-0.5836098429973019,0.780328697153572,0.316698738497184,0.8537870430023358,0.6321564935962065,-0.7495700746210238,-0.7522728646182164,-0.6573314223838451,0.5393559468509991,0.5508179519199583,-0.7211863493531547,-0.9451664140886277,0.5692936154101752,-0.7387850929685987,-0.9600714992475354,LB
-1.0479412207960472,-0.7830584725618746,0.18007150807482109,0.6101250565696547,-0.7058251275742263,1.5223034490760148,-0.5800311026294669,0.7797417180983066,0.31786810116375175,-0.6092356014714333,0.7688557756782534,0.3093171930217844,0.8589734312980716,0.6253219867016463,-0.7529926881025821,-0.7522728646182164,-0.07454092474708618,0.5393559468509991,0.5505161656812712,-0.7218660931401474,-0.9453487940718371,0.5590593760295611,-0.7484306421230169,-0.9582893457412499,LB
-1.0868017467375675,-0.766792148928709,0.19081449164992723,0.5644231615675704,-0.7936508781594327,1.670192897363066,-0.5792885643406827,0.7795416913144537,0.3181749012076855,-0.566523132395005,0.8019575312176076,0.31558566821256334,0.8710750747997914,0.6176329477382461,-0.7484291255747069,-0.5618942144910287,-1.0101478482493558,0.5393559468509991,0.5498349524489778,-0.7234636601300743,-0.9453910850824363,0.5346695491844118,-0.7607405330421912,-0.9518804475551844,LB
-1.057321404527076,-0.7749251025390141,0.20155747522503334,0.7700819135878847,-1.2327796310854642,1.3744140007889631,-0.5786081920481688,0.7782847544499799,0.3185835957157104,-0.5790543057549429,0.7707696771126643,0.3229510499231888,0.8174819000621679,0.6261761688392543,-0.7438655630468319,-1.0907243985758652,-0.7195931046136159,0.8037897935344118,0.5491969479846395,-0.7234636601300743,-0.9452536392979886,0.5525865536545875,-0.6950315320172131,-0.9453239153508464,LB
-1.0787619028936757,-0.7708588339401392,0.2100387049123156,0.9300389202800714,-1.2547361046854337,0.9603235843322431,-0.5774097697867359,0.777393805456399,0.3189730279825786,-0.5568004029477166,0.785109955029217,0.3274200521976444,0.8261265886717558,0.6210503761511422,-0.755844943889678,-0.4772814349166903,-1.383718213504152,1.411988195160169,0.5490679968177731,-0.7243699851793978,-0.9450844752555919,0.5579324355201568,-0.7143387656281827,-0.951142277463823,LB
-1.089481877642109,-0.8013577222882009,0.20438455178746068,1.318505701330593,-2.264732452137314,0.6645448814932611,-0.5762743769381877,0.7754241093970604,0.31915811299543373,-0.5776698979734621,0.7790850981850025,0.32006999819499454,0.8036516728968779,0.6278848830457023,-0.759838148723091,0.1573143426141318,-2.193121034057772,1.3062148989728886,0.5498531811479588,-0.7253689718195849,-0.945010465987043,0.5807452204668164,-0.6904665861220086,-0.9543954985093208,LB
-1.0104210347416638,-0.7942412317244752,0.23435151703025042,2.1182895373998725,-2.659948114048734,0.6645448814932611,-0.5746995050326736,0.7717755859204056,0.3198091209139546,-0.5884479476026511,0.7107483298453822,0.3435166537423118,0.857244635199493,0.614215869256582,-0.7649723026028206,0.136161251635621,-2.3799054010566567,1.2004410831725696,0.5500442449187608,-0.727706478812467,-0.9450448274331545,0.5530197846767656,-0.7567564580237846,-0.9577304455292189,LB
-1.057321404527076,-0.7810251300561595,0.2190852572742013,2.3696504837701844,-2.3086448240785646,0.9899015127366774,-0.5726575247385176,0.7696259531035401,0.32029263108328454,-0.56762324984177,0.7596104956441739,0.33304364891105437,0.8209396338826641,0.614215869256582,-0.7484291255747069,-0.22344309619367508,-2.753475494435282,1.517762010960488,0.5495885274442334,-0.7293392166252036,-0.9446457060206241,0.5333685064885246,-0.7048989415759637,-0.9404625380348836,LB
-1.0774215630065385,-0.7576427322718234,0.21116958185622753,2.232544649089975,-2.3086448240785646,1.0490571758104255,-0.5702287338009013,0.7680073957652014,0.3207244961132806,-0.5470414910941911,0.7907773754868223,0.32963253717250757,0.8019231600449772,0.6176329477382461,-0.7438655630468319,-1.2176432215537933,-3.2515703116543038,1.570648572451955,0.5484887292723739,-0.7307913657900525,-0.9441567162105703,0.5363241947706748,-0.6794562593288181,-0.9363366944885273,LB
-1.0519611427179931,-0.7291767700169216,0.22360876504984906,1.6155691413988167,-2.286688638107939,1.3744140007889631,-0.5680123433505424,0.7662551960778253,0.32146204453554955,-0.529133784464669,0.7815181126112128,0.34189135932571013,0.886634239686999,0.6441171431101109,-0.7364495110744684,-0.03400563952835668,-3.376093676113846,1.411988195160169,0.5489782035968662,-0.7338647546140271,-0.9443364530056172,0.5722520029510305,-0.7649289885542861,-0.9662273105451342,LB
-1.0519611427179931,-0.7362932605806473,0.211734904530831,1.4099096410087182,-2.3086448240785646,1.3152581439800939,-0.5664107055299675,0.7646864270655984,0.3219910582600764,-0.5450712729260229,0.7831462397218554,0.3337712970114912,0.7880929328796872,0.6398455325596067,-0.735308795685544,-1.2599494035108147,-3.0025222233543656,0.5393559468509991,0.5485994517402593,-0.734495800338668,-0.944233368667281,0.573248704227911,-0.6521768418555018,-0.9437025774716074,LB
-1.0533014826051303,-0.7413764086386574,0.20947315064300712,1.1813997169764268,-1.93538534813777,1.137790961023729,-0.5650585951110881,0.7633325339871172,0.3224497229299431,-0.550056691613907,0.782418258034703,0.3317352200211458,0.8019231600449772,0.6330110256650466,-0.7381610514726399,-1.069570891937059,-2.130858672137573,0.3806955695592131,0.548117403922759,-0.734869152150031,-0.9441620025868946,0.5608921726903646,-0.6716615637899372,-0.9434468542613856,LB
-1.0841216158330258,-0.7322265755692171,0.2320899947371313,0.907187897942051,-1.6060396822849465,0.9307456559278086,-0.5630874149793509,0.7626485996126331,0.323118876437959,-0.5062406591472626,0.7998845749607933,0.34490422934249354,0.888363106597247,0.6526603642111192,-0.7495700746210238,-0.37151542581040936,-1.6742725493256352,0.14270465721284142,0.5491348353807038,-0.7368786235840163,-0.9449100248368694,0.6095436115921684,-0.7738585336765402,-0.9813439794875033,LB
-1.0734016410845928,-0.7515427047546781,0.2151275353625668,0.6558269515717388,-1.4084311322558767,0.5758110962799575,-0.5621057102882492,0.7620249353171265,0.3234527552846789,-0.5413005493046527,0.7892925725018614,0.3329617153447851,0.6860936798168707,0.6543690784175672,-0.7529926881025821,-0.2445961871721859,-0.8441166050112432,-0.17461623593420772,0.5508658866469084,-0.7337741221090947,-0.9449708181646064,0.6424941374207326,-0.5479669930277733,-0.9443748395190966,LB
-1.0881415377549721,-0.7322265755692171,0.22926291817470398,0.3130622151972584,-1.3645181850559376,0.7237005445670089,-0.560705248538938,0.7616685557196938,0.3240188976769428,-0.5066162669834334,0.8041991555003766,0.342938381123236,0.7759912185662979,0.6304477793897584,-0.7541336371488989,-0.11767705937670783,-1.2799486524958104,-0.09528622049266094,0.5514330017263204,-0.7332005671525079,-0.9450686161266166,0.5815111351244056,-0.6548472343585582,-0.9471851585097781,LB
-1.0466014297786423,-0.7637423433764134,0.22021613421811326,0.13025430590621653,-0.9034331023446085,0.427921841728027,-0.5605593311310254,0.7608562198726053,0.32437706369729546,-0.5600766336838532,0.7603917869146595,0.3362493693627293,0.7880929328796872,0.6603494031745195,-0.7444359207412942,-0.22344309619367508,-0.40828455752667614,-0.22750283206654398,0.5528946733298042,-0.731988526489532,-0.9455364604313716,0.6305661132026308,-0.654224680617916,-0.964271159803028,LB
-1.0707215101800514,-0.7362932605806473,0.21060402758691907,-0.14395748319336785,-0.2008269538482864,0.3983439133235925,-0.5601621594881877,0.7614327162802168,0.32463696437145606,-0.535810299901182,0.7976918906233792,0.3320080532231099,0.8243973677031603,0.6236132724951983,-0.7495700746210238,-0.09652392683216751,-0.8856243478517287,0.30136503450462754,0.5528993992887994,-0.7321812896530074,-0.9455628923129955,0.5545428414011522,-0.7074557146598316,-0.9485455005352855,LB
-1.0693817191626465,-0.749509362248963,0.22360876504984906,-0.25821244520951364,-0.156914136081552,0.8715899928540606,-0.5598237001751605,0.7617602710572686,0.32511209965332655,-0.5343845407982883,0.783501054325678,0.3386232132997346,0.7967369133725802,0.6304477793897584,-0.7529926881025821,-0.26574969381099195,-0.055468104473548316,-0.3861637289713688,0.5532362926514499,-0.7311944775284084,-0.9457796337423172,0.5773333574634943,-0.6772369829812378,-0.950435743233521,LB
-1.0760817719891342,-0.7434097511443725,0.19703419904409036,-0.25821244520951364,0.21634532547777544,0.7532784729714436,-0.5598254270083901,0.7628180546172947,0.325242747897695,-0.5501333638556939,0.8040112610673182,0.32254305420544105,0.8192111210307633,0.6398455325596067,-0.7564155352415326,-0.22344309619367508,0.006793604943839655,-0.22750283206654398,0.554040380817616,-0.7306966751132575,-0.9462184029772842,0.5994929218035052,-0.7028087476454496,-0.963588352468519,LB
-1.0801016939110801,-0.7718752969867191,0.18402946158116038,-0.5095733915798257,0.5237355244333334,0.8715899928540606,-0.5606361752097483,0.7639920109382484,0.32516904888805115,-0.5798511801780107,0.79721472615617,0.31121866486754457,0.812295653389771,0.6244674546328062,-0.7472881765283901,-0.09652392683216751,0.1728249297448036,-0.17461623593420772,0.5540221521186348,-0.7298823352928205,-0.9462712667405335,0.5545360932543894,-0.6920088520842471,-0.9454003686817376,LB
-1.1136019580435177,-0.7637423433764134,0.21682373498108232,-0.39531842956367996,0.5017790508333638,0.7532784729714436,-0.56024245723337,0.7653808431929482,0.32544542017421557,-0.5266897490719742,0.8116721103705359,0.330399758628081,0.8243973677031603,0.6253219867016463,-0.7450065120931487,0.09385465401830416,0.02754753073931656,-0.14817288590673572,0.5540781884895768,-0.7294163218905937,-0.9463452760090825,0.5515729820108,-0.7038602315011344,-0.9467580743854908,LB
-1.1122621670261128,-0.7647588064229939,0.20438455178746068,-0.21251040053347262,0.10656318758140279,0.9899015127366774,-0.5599756614993765,0.7665032642289792,0.325623526114188,-0.5391089292697512,0.8158084096806122,0.3227462160075162,0.8088379195692748,0.6364281041467107,-0.7398723582134189,-0.13883019192124815,-0.470546239756447,-0.09528622049266094,0.5543327151383127,-0.728843443295984,-0.946440430782931,0.569851687147467,-0.6799698997800606,-0.948355685368936,LB
-1.0653617972407006,-0.7556093897661084,0.20494987446206428,-0.25821244520951364,0.32612754966295127,1.256102480906346,-0.5601276228235926,0.7671985538357347,0.3259336761131058,-0.5577592367129862,0.7857348132600863,0.32670187940759265,0.812295653389771,0.616778765600638,-0.7364495110744684,-0.6253540416402881,-0.3460227393588198,0.06337422608086365,0.5532822019674025,-0.7283138518679092,-0.9461813983430101,0.5223028954267213,-0.6860394625991926,-0.9326853888580459,LB
-1.0881415377549721,-0.7423928716852374,0.2026883521689453,-0.39531842956367996,0.1724325220925083,0.9307456559278086,-0.5599903395818296,0.7682467291223005,0.32614388578834,-0.5377296904034469,0.8109694725836561,0.3254712037999599,0.8174819000621679,0.647534221591775,-0.7609790977694079,-0.6042005350014821,0.006793604943839655,0.22203467265438823,0.5542719528083759,-0.7278654238770873,-0.9466730313412265,0.6224777844926187,-0.7024080543091401,-0.9716423154296173,LB
-1.043921298874101,-0.7556093897661084,0.2060807514059762,-0.48672221956784845,-0.04713189751490898,0.9307456559278086,-0.5605515603814917,0.7682432352046785,0.32641271967579083,-0.5685278099976847,0.7692001031509282,0.3285969414845631,0.812295653389771,0.6313023114585985,-0.7575562506304573,-0.4561282053847478,0.15207099035551813,0.08981799179876666,0.5545933180200426,-0.7272370836003548,-0.9468924159587107,0.5837346494827811,-0.6977503304266692,-0.9569580032550454,LB
-1.1310219856184387,-0.7606925378241185,0.19024916897532362,-0.48672221956784845,-0.2227834274482559,0.5166554332062095,-0.5604626284701605,0.7694757146457991,0.3262781631506079,-0.5382052305996989,0.8383076756298867,0.31345288731917276,0.8140248743583665,0.6295935972521504,-0.7375904601207852,-0.26574969381099195,0.13131705096623267,-0.4654937444129156,0.5543732233582709,-0.7263848675091998,-0.9469479229101219,0.5511998094948115,-0.685804156109749,-0.942938044162698,LB
-1.0760817719891342,-0.7434097511443725,0.21625818071177397,-0.37246740722565946,-0.003219050985240245,0.4574995763973404,-0.5602044669023161,0.7700059166449201,0.3265603968579939,-0.5329536127802177,0.7951933316274974,0.3344019625232828,0.8192111210307633,0.6347193899402626,-0.7330268975929103,-0.011911036415083733,-0.242253178350478,0.11626132450580404,0.5544137315782288,-0.7258512179092623,-0.9469056318995227,0.5549187131758456,-0.6872025489612991,-0.9445488367549172,LB
-1.0975217214860011,-0.7576427322718234,0.20494987446206428,-0.1211066105293042,-0.3984349286186684,0.546233361610644,-0.5599100418366468,0.7704400359094395,0.3266611746704234,-0.5415710558655645,0.8085373320850415,0.32468363829561886,0.8001939390763817,0.6244674546328062,-0.7609790977694079,-0.37151542581040936,-0.2837610571290489,-0.14817288590673572,0.5546250494590097,-0.7253682954576078,-0.9470721527537576,0.5755511719034123,-0.6881915085212175,-0.9520808080085538,LB
-1.0975217214860011,-0.7708588339401392,0.2060807514059762,-0.0754045359184718,-0.2886527044334926,0.4870775048017749,-0.5597468560964376,0.7708234933684416,0.32672594046677694,-0.5500549686421815,0.8008074425017698,0.3239487443695937,0.812295653389771,0.6398455325596067,-0.7507110236673405,-0.20229000521516433,-0.5535618613755033,0.22203467265438823,0.5552718307043389,-0.7251586232447047,-0.9472836078067535,0.5922629573617341,-0.690953334403029,-0.9585767048125294,LB
-1.0707215101800514,-0.7779753245038644,0.2055154287313726,-0.34961638488763885,-0.33256565163343177,0.4870775048017749,-0.5602320962339913,0.7706758753489169,0.32680326859431985,-0.5703257309932975,0.7773197644418472,0.3243149372474085,0.7967369133725802,0.6201958440823021,-0.7484291255747069,-0.09652392683216751,-0.6573314223838451,0.010487560666788872,0.5551158740575006,-0.7247338679230815,-0.9471725939039304,0.549034329198597,-0.6763165984553859,-0.9402094511464176,LB
-1.0787619028936757,-0.7708588339401392,0.20438455178746068,-0.28106331787357736,-0.04713189751490898,0.014230713355838028,-0.5604798968024578,0.7709929483731032,0.3267717231848893,-0.5618409567308181,0.7876635714636229,0.32394762962719553,0.8174819000621679,0.6372826362155507,-0.7273223860187182,-0.20229000521516433,-0.4290384969159616,-0.14817288590673572,0.5549531660406692,-0.7242340364219992,-0.9471382324578189,0.5523044811198982,-0.6804378235419254,-0.9422236009671303,LB
-1.0787619028936757,-0.766792148928709,0.22021613421811326,-0.1211066105293042,-0.11300127517041608,0.1912986857217203,-0.5602450474832147,0.7711449337896551,0.32698165369720805,-0.5447775062468161,0.782685679878963,0.33410237550376165,0.8347705691646489,0.614215869256582,-0.7296042841113519,0.07270150761842069,-0.2007454626976097,0.27492175375889405,0.5540187764336385,-0.7241183785239139,-0.9467708293032375,0.5037569636782432,-0.7073575582385209,-0.9303390624962202,LB
-1.0868017467375675,-0.7769584450447292,0.2224778881059371,0.01599932892267505,-0.13495766248158245,-0.07490222432741195,-0.5599160857529509,0.7712637269887994,0.32712765590191906,-0.5456708670865149,0.7821307358557436,0.33391649220885883,0.798465426224481,0.6432626110412708,-0.7432949716949773,0.41115268133714694,-0.15923759751284733,-0.06884245477475792,0.5550868431665306,-0.7232059662167964,-0.9469532092864469,0.5907554213749022,-0.6691182367911805,-0.9534727858951197,LB
-1.0600015354316175,-0.7708588339401392,0.2224778881059371,-0.48672221956784845,-0.02517551451818277,-0.31152520597210964,-0.560223462067843,0.7711458072690609,0.3272636082416786,-0.555838123238996,0.76552523761134,0.33609302674137953,0.7829059780905956,0.6210503761511422,-0.745576869787611,0.136161251635621,-0.13848375328022175,0.14270465721284142,0.5550902188515272,-0.7220825289728215,-0.9467391110452877,0.5484789567200102,-0.6585005356832329,-0.9362892406969398,LB
-1.0814414849284844,-0.7169771313951863,0.2151275353625668,-0.23536142287149311,-0.2008269538482864,-0.015746483759615536,-0.5594308456153967,0.7718454642728435,0.32746460554070717,-0.5118454861704828,0.8141811564975652,0.33632294236101207,0.7880929328796872,0.6201958440823021,-0.7535632794544367,-0.03306450910829899,-0.13848375328022175,0.6715726969883592,0.5551523314554628,-0.7212201674520101,-0.9465223696159668,0.5574830089457476,-0.6703539320128867,-0.9419652414351545,LB
-1.0667015882581048,-0.769841954481004,0.243398300986841,-0.25821244520951364,-0.04713189751490898,-0.19321368608949263,-0.5590872058026803,0.7716157391892045,0.3278693917679176,-0.5325065016174364,0.7614658439296783,0.3485912398245994,0.793279179552084,0.6014010376050696,-0.7501404323154862,-0.03306450910829899,-0.3045149965183344,-0.06884245477475792,0.5543097604803366,-0.7206520233912401,-0.9461893279074978,0.512310239700219,-0.6781069446879233,-0.9274971076444808,LB
-1.1270020636964924,-0.7789917875504444,0.21399665841865487,-0.32676536254961835,-0.17887062406298876,-0.07490222432741195,-0.558815229568998,0.7723328657810965,0.3278442671055393,-0.5328364507028797,0.8145350971737918,0.32627381832667696,0.7950076924039848,0.6244674546328062,-0.726752028324256,-0.37151542581040936,-0.3045149965183344,0.5129123196965731,0.5535286269721469,-0.719678738506183,-0.9457452722962049,0.526658149347497,-0.6573771152722039,-0.9283117310667327,LB
-1.1002018523905426,-0.7566258528126882,0.2230432107805407,-0.25821244520951364,-0.3984349286186684,0.13214292578041179,-0.5582989064333085,0.7726053913556039,0.3280530809661969,-0.5233153089474806,0.8027781492298961,0.33573770260194763,0.812295653389771,0.6201958440823021,-0.7296042841113519,-0.2445961871721859,-0.5950696042159888,0.5129123196965731,0.5527198128469857,-0.7193723465305535,-0.9453646532008116,0.5194578767514827,-0.6802643690439928,-0.930489332836247,LB
-1.0975217214860011,-0.7759419819981493,0.20099192095572488,-0.18965952786940893,-0.156914136081552,0.1025650554965136,-0.5584206481760045,0.7730464984553668,0.3279405783113239,-0.5581839492433343,0.8003320258897517,0.32027873370906096,0.8088379195692748,0.647534221591775,-0.7564155352415326,-0.13883019192124815,-0.8648704084624431,0.6451294162426258,0.553947887048712,-0.7194792117229364,-0.9456871221566312,0.6171474233646042,-0.689435943698246,-0.9670577518979151,LB
-1.0868017467375675,-0.7444262141909525,0.23095911779321937,0.08455227619757115,-0.003219050985240245,0.3391880565147234,-0.5574484410676662,0.7735173038549161,0.3283305689040221,-0.5146608219700343,0.7957902241753069,0.34269508859482495,0.8071094067173741,0.6210503761511422,-0.7204769253982094,-0.18113677568322178,-0.470546239756447,0.16914793795857497,0.5528865716858127,-0.7190071110629157,-0.945219277851877,0.508293742746941,-0.6674011717224982,-0.9238616199445283,LB
-1.0935017995640552,-0.7779753245038644,0.20890782796840365,-0.21251040053347262,-0.2447399010482255,0.014230713355838028,-0.5576729293875313,0.7735994109190305,0.3282920444217084,-0.5548387996381757,0.7926860333556596,0.3251353876524967,0.8261265886717558,0.6330110256650466,-0.7478587678802446,-0.22344309619367508,-0.0762220397846912,0.11626132450580404,0.5531451491565446,-0.7188792786492424,-0.9454095873995734,0.5719118963541805,-0.7060882478040369,-0.9544587702314373,LB
-1.1095820361215714,-0.7525591678012581,0.20664607408057978,-0.05255361835222105,0.12851957489256918,0.1912986857217203,-0.5571358842530846,0.7746502066438127,0.328301256797914,-0.5298091893810853,0.8194797795098181,0.3256005139181531,0.8434145496575419,0.6270307009080943,-0.751281381361803,-0.13883019192124815,-0.055468104473548316,-0.04239912206772053,0.553261272720424,-0.7192073142081393,-0.9456554038986815,0.5620265361612083,-0.7293318228312687,-0.9556002975512923,LB
-1.0868017467375675,-0.749509362248963,0.21795461192499427,0.0388504350781114,-0.06908835673341135,0.014230713355838028,-0.5565358097057536,0.7750956811406031,0.3284444673734717,-0.5300004392426217,0.7990613351657181,0.3341634076500641,0.8209396338826641,0.6295935972521504,-0.7489994832691693,-0.2445961871721859,-0.013960239288785956,0.1955913919086547,0.5533969752572834,-0.7189442093990448,-0.9457664178015045,0.5668737299809993,-0.7018043250876534,-0.9517934489372734,LB
-1.0841216158330258,-0.766792148928709,0.21060402758691907,-0.14395748319336785,-0.26669623083352306,0.1025650554965136,-0.5565124974571521,0.7751952577928272,0.32847824608622517,-0.5504538365966467,0.7910395537655087,0.32791109622405923,0.8053808938654734,0.6389910004907666,-0.745576869787611,-0.011911036415083733,-0.13848375328022175,-0.04239912206772053,0.5540383554066182,-0.7183307490858086,-0.9459593705373641,0.5839728590635115,-0.6796176123501508,-0.9532829707287694,LB
-1.089481877642109,-0.7850913986550349,0.2190852572742013,-0.09825543851732682,-0.2886527044334926,0.30961012811028893,-0.5565038632910032,0.7750782115524937,0.3286130817743235,-0.5530546624163668,0.7812716650292476,0.3308069182890298,0.7967369133725802,0.6347193899402626,-0.7358791533800062,-0.20229000521516433,-0.3045149965183344,-0.06884245477475792,0.5540889906815656,-0.7175299365049138,-0.9459276522794143,0.5619158665542967,-0.663670555408435,-0.9421339660274651,LB
-1.0948415905814595,-0.7779753245038644,0.2151275353625668,-0.21251040053347262,-0.06908835673341135,0.5758110962799575,-0.5565021364577736,0.7753516106064066,0.328762992259849,-0.5485878582178737,0.79086564217398,0.32886615177373263,0.7638895042529087,0.6347193899402626,-0.7495700746210238,-0.2445961871721859,0.048301456534793466,0.010487560666788872,0.5545845412390517,-0.7159486022024375,-0.9459355818439019,0.5856841890825829,-0.6368725077820946,-0.9447887420346099,LB
-1.0667015882581048,-0.7393430661329423,0.20890782796840365,-0.3039144898855547,-0.2227834274482559,0.605389024684392,-0.5564408338781183,0.7755411556373938,0.32895561467141815,-0.5417442145239824,0.7938046606780549,0.3308531800985559,0.7673472380734048,0.6424084289036628,-0.7615494554638701,-0.4772814349166903,-0.2630071177397635,-0.280390086375396,0.5555553882440446,-0.7148488376276613,-0.9462844826813462,0.6182986572023547,-0.6479319127859406,-0.9586162496388522,LB
-1.0908216686595138,-0.7606925378241185,0.2123002272054346,-0.5781263089199304,0.018737408233262115,0.605389024684392,-0.5565971122854088,0.7760372919397015,0.3291122250669114,-0.540906850265364,0.7985527093050664,0.3292418199619321,0.8295836143755572,0.6355739220091027,-0.7569858929359948,-0.26574969381099195,-0.09697588809545937,0.03693089337382626,0.5561029243504769,-0.7150145463120525,-0.9466386698951149,0.5899793844971689,-0.7158124565563547,-0.9628660003076873,LB
-1.0667015882581048,-0.7820415931027399,0.2264358416122765,-0.39531842956367996,-0.2008269538482864,0.4574995763973404,-0.5568837666015443,0.7756206422632915,0.32938133811727766,-0.5566194909165337,0.7627111907534389,0.3368987068096914,0.793279179552084,0.6406997146972148,-0.745576869787611,0.05154837507388038,0.11056311157694723,-0.17461623593420772,0.5568394988167129,-0.7140142069479112,-0.9468210498783243,0.5891318172637486,-0.6655355274133389,-0.9521414434089153,LB
-1.0868017467375675,-0.7627258803298336,0.21795461192499427,-0.21251040053347262,-0.13495766248158245,0.2504544650365409,-0.5566929515296593,0.7758442529910925,0.32952399036700497,-0.5395155505969813,0.7918828938952834,0.3327114556763853,0.8105671405378703,0.6355739220091027,-0.7307449995002766,-0.054217647887743727,-0.1799915369021328,-0.015955784510961447,0.556792239226762,-0.7134460628871412,-0.9467576133624256,0.5545117999260428,-0.6754399137061449,-0.9419705140786643,LB
-1.0935017995640552,-0.749509362248963,0.21795461192499427,-0.23536142287149311,0.10656318758140279,0.0729871852126154,-0.5562612432222264,0.776522946489144,0.32964738037557517,-0.5263554925572169,0.8040331092572085,0.3337832804922719,0.8001939390763817,0.6355739220091027,-0.7666836093435996,-0.2445961871721859,0.5048874162210288,0.2484784730131605,0.5576591151338628,-0.7126756865952162,-0.947069509565595,0.6069739173048561,-0.6897613389579337,-0.9635329897116667,LB
-1.0506213517005887,-0.7556093897661084,0.2264358416122765,-0.25821244520951364,0.0406937955444285,0.014230713355838028,-0.5562586529723815,0.7763465036492385,0.3298952770443773,-0.5463919307536582,0.7649239754255525,0.3407445680835434,0.7794489523867941,0.6372826362155507,-0.7284633350650351,0.030395228673996886,0.13131705096623267,-0.09528622049266094,0.5577441823957746,-0.7111477848889314,-0.9468924159587107,0.5589028190246618,-0.6377350741419691,-0.935556343249089,LB
-1.1109218271389762,-0.769841954481004,0.22191233383662878,-0.18965952786940893,0.08460671398143323,0.36876598491915796,-0.5558303983314087,0.7769946253680985,0.33005830818692256,-0.5280198832441,0.8040488399539297,0.3329937641887341,0.6826359459963747,0.6458258573165591,-0.7626904045101869,0.1784675721460743,0.691672598848427,0.14270465721284142,0.55951304133394,-0.7075617136863096,-0.9468395521954613,0.6378419650423895,-0.554294048376782,-0.9442667503271475,LB
-1.1109218271389762,-0.7820415931027399,0.19646864477478201,-0.6238280542480579,0.545691854218631,-0.22279161449392715,-0.5564028435470644,0.7781397568686718,0.32975429977214166,-0.5591496748955065,0.8089349691410495,0.3161146134805177,0.8468715753613434,0.6321564935962065,-0.7318859485465935,0.2419272607419019,0.06905536873646181,-0.14817288590673572,0.5594070448250499,-0.707817378513656,-0.9469082750876852,0.5442809346188101,-0.7186724388594768,-0.9471271594311708,LB
-1.1229821417745465,-0.769841954481004,0.17272115533145077,-0.21251040053347262,0.2822146024630121,-0.07490222432741195,-0.5567041759456524,0.7795320830409935,0.32920881543561137,-0.5643521880208099,0.8351562927200759,0.3021184652996927,0.8053808938654734,0.6227590903575903,-0.751281381361803,0.05154837507388038,0.4841334768317434,0.5129123196965731,0.5594441773600114,-0.7071295183829381,-0.9467972611848622,0.5575046030153891,-0.6874741598805425,-0.9455242758042157,LB
-1.0586617444142132,-0.7617090008706984,0.20890782796840365,-0.3039144898855547,0.018737408233262115,-0.6664599593550817,-0.5570504060082134,0.7794901560295306,0.3290829129608033,-0.5622613618318527,0.7756252188339371,0.3288460864105647,0.8140248743583665,0.6278848830457023,-0.7438655630468319,0.6861441110386729,0.5463951590615143,0.06337422608086365,0.5599181235335199,-0.7064747999890985,-0.9467946179966996,0.5566631091140555,-0.6907254232603965,-0.9458933608498964,LB
-1.1591625368115257,-0.7861082781141701,0.24565982327996,0.13025430590621653,-0.5521299561891114,-0.5185705110680303,-0.5556309490933746,0.7798194577653937,0.32927190625447295,-0.49289107421768796,0.8196755392912374,0.3428742834353387,0.8330413481960534,0.6313023114585985,-0.7478587678802446,0.9399824497616881,0.2143328085233745,0.3806955695592131,0.5607802734816257,-0.7065505525305344,-0.9468950591468732,0.5674324765329674,-0.7142950658515717,-0.9545246782753087,LB
-1.0760817719891342,-0.7759419819981493,0.23322087168104325,0.3587641101993426,-0.9253894321299062,-0.6664599593550817,-0.5550110159639016,0.7788132094902903,0.3293919463080595,-0.541073978522743,0.7698389442233275,0.34118238316044347,0.8243973677031603,0.6295935972521504,-0.759838148723091,0.982289047379005,-0.11772981389093629,0.6451294162426258,0.5618962749414682,-0.7068454463525531,-0.9470457208721329,0.5819113002274457,-0.7132812310341978,-0.9594809631744466,LB
-1.0988620613731384,-0.7647588064229939,0.1913798143245307,0.587274034231634,-0.46430420560390523,-0.28194747130279624,-0.5545784442398541,0.7791023311735014,0.32908040049456544,-0.5578987974227556,0.8117717381164368,0.3154889643095177,0.7915499585834886,0.6244674546328062,-0.7438655630468319,0.4957655994649171,-0.32526893590761985,0.2484784730131605,0.5620954403562618,-0.706339527593677,-0.9468633408889235,0.5521776159607557,-0.6661493411986588,-0.9392050125578154,LB
-1.0921620085466504,-0.766792148928709,0.22134701116202518,0.5187211168915293,-0.46430420560390523,0.13214292578041179,-0.5537521545394278,0.7789669418656534,0.3292303109800909,-0.5364951811620889,0.7920996279389975,0.33403939255826254,0.7880929328796872,0.616778765600638,-0.7575562506304573,-0.6888137302361157,-1.0931633339303266,0.9095636093347309,0.5615175230848609,-0.7065647561320537,-0.9465963788845158,0.5559741233295633,-0.6740327808992725,-0.9421972377495823,LB
-1.102881983295084,-0.7525591678012581,0.21399665841865487,0.4273171772134041,-0.574086429789081,-0.04532433467000163,-0.5528300255947517,0.779116306843989,0.32926883546240465,-0.5269697319773758,0.8111442581027803,0.3304906101335357,0.8105671405378703,0.6321564935962065,-0.7524223304081199,-0.7945791851286695,-1.1139174092576976,0.6715726969883592,0.5613622415750221,-0.707109903885602,-0.9466360267069523,0.578479867598511,-0.6919705307416806,-0.953902506341162,LB
-1.1002018523905426,-0.7637423433764134,0.2286973639053955,0.26736017052121736,-0.3545219814187293,0.014230713355838028,-0.5520028724777107,0.7791826912788048,0.32947737016014683,-0.5233928426751305,0.7963163285878709,0.3384072319600798,0.7829059780905956,0.6330110256650466,-0.7432949716949773,-0.5830477211298347,-0.9893937729219849,0.22203467265438823,0.5611698275302218,-0.7068393590947591,-0.9465461583094289,0.570698579566211,-0.6539423128305839,-0.943180585764145,LB
-1.0881415377549721,-0.7596756583649833,0.20834250529380008,0.06170135863132041,-0.156914136081552,0.014230713355838028,-0.5517896085738389,0.7794560903327173,0.32945475796400603,-0.5451617289416143,0.7989232546056099,0.32707253125500013,0.789821445731588,0.6372826362155507,-0.7313155908521309,-0.3503621962784668,-0.9893937729219849,-0.17461623593420772,0.5609679615674311,-0.7065295853092441,-0.9464774354172051,0.5617019503019127,-0.6517492563489702,-0.9395371890989276,LB
-1.1055621141996257,-0.7647588064229939,0.21286578147474292,-0.0754045359184718,-0.5301736264038139,-0.34110313437654416,-0.5514995005912446,0.7795521730673193,0.32938245476893885,-0.5352916854117911,0.8069922280959828,0.328319091941807,0.7880929328796872,0.646680039454167,-0.7375904601207852,-0.20229000521516433,-0.3667766787481052,0.43358230425502636,0.5614682380839122,-0.7057815289625637,-0.9464827217935302,0.5912959479306107,-0.6522615521917015,-0.95007720347486,LB
-1.1136019580435177,-0.7342599180749322,0.20381899751815233,-0.006851588643575686,-0.17887062406298876,-0.04532433467000163,-0.5507871818839806,0.780496404304634,0.3293202014388231,-0.5168584724059758,0.8338366620506874,0.3256152842549294,0.8071094067173741,0.6227590903575903,-0.7450065120931487,-0.054217647887743727,-0.11772981389093629,0.03693089337382626,0.5612035843801867,-0.7055204532394004,-0.9464113557131438,0.5482366982512221,-0.6849227652307192,-0.9417016092596686,LB
-1.1136019580435177,-0.7810251300561595,0.22473941039905623,-0.23536142287149311,0.08460671398143323,-0.6368820309506472,-0.5505721911468789,0.7809479931572628,0.32929786840559777,-0.532075758686049,0.7986855462996008,0.33334630147217037,0.7829059780905956,0.6347193899402626,-0.7575562506304573,0.2630803517204127,-0.09697588809545937,-0.3861637289713688,0.5620974657672596,-0.7048332694706595,-0.9466756745293889,0.5945310094887447,-0.6641001578277334,-0.9537416907141154,LB
-1.0801016939110801,-0.7678090283878437,0.22926291817470398,-0.39531842956367996,-0.13495766248158245,-0.8439271423114468,-0.5506050009782438,0.7808082364523873,0.32934504693828637,-0.5366493871315259,0.7789915879322712,0.3394436637048228,0.812295653389771,0.6261761688392543,-0.759838148723091,0.4957655994649171,-0.2630071177397635,-0.3068333671211295,0.5627712524925607,-0.7050138581185471,-0.946939993345635,0.5761024954939412,-0.7005020717446474,-0.9548094010248341,LB
-1.0948415905814595,-0.7576427322718234,0.211734904530831,-0.1211066105293042,-0.06908835673341135,-0.8735048769807602,-0.5504124590731291,0.7812178982935535,0.32917587421160377,-0.5370232719959704,0.8034528213337158,0.3290013142895167,0.7708049718939011,0.6236132724951983,-0.7575562506304573,0.2419272607419019,-0.2837610571290489,-0.04239912206772053,0.5631776849661391,-0.7042536272562788,-0.9469162046521729,0.5725246280802516,-0.6532034504537312,-0.9436656689670396,LB
-1.0693817191626465,-0.7657756858821286,0.22078168848742172,-0.5552751369079532,0.5237355244333334,-0.5185705110680303,-0.5508234453818047,0.7816004822731502,0.32920714045811933,-0.5486343784544637,0.7760097469760106,0.3350883651549855,0.8019231600449772,0.6201958440823021,-0.7501404323154862,0.580378101932392,0.44262559805317253,-0.14817288590673572,0.5633559211339545,-0.7036104070160499,-0.9468871295823856,0.55085632882458,-0.6833697424003917,-0.9423132359067956,LB
-1.0827818248156216,-0.7678090283878437,0.20890782796840365,-0.48672221956784845,0.5896048014185701,-0.8439271423114468,-0.5512344316904809,0.7822826696888234,0.3290153555352964,-0.553426824309086,0.7902617582054056,0.32683397638178147,0.8088379195692748,0.6227590903575903,-0.7421542563060526,0.5169186904434279,0.5671492343888852,-0.280390086375396,0.5633748249699349,-0.7028921105963623,-0.9468448385717865,0.5438746961836836,-0.6848219195923861,-0.9401277251720165,LB
-1.1122621670261128,-0.7749251025390141,0.2156928580371704,-0.4410203245657642,1.0506898841298988,-0.6664599593550817,-0.5512888269372176,0.7836959593668766,0.3288880572459113,-0.536438323095146,0.8051220230413529,0.32857046635260534,0.8261265886717558,0.6278848830457023,-0.7318859485465935,0.1784675721460743,0.7746880845293979,-0.04239912206772053,0.5630257791412969,-0.7022597121477671,-0.9467523269861005,0.5376265870959146,-0.6958887199430431,-0.94016199735483,LB
-1.1229821417745465,-0.7657756858821286,0.2270011642868801,-0.7380831659381605,0.699387025603746,-0.6073041025462128,-0.5511454997791498,0.7849214509727531,0.3289215567957497,-0.5140827649561117,0.8127942334033136,0.33585725872415645,0.8295836143755572,0.6278848830457023,-0.745576869787611,0.2630803517204127,0.5256412196722288,0.5129123196965731,0.5631223237321967,-0.7021257924762999,-0.9467391110452877,0.5572454741796937,-0.7095499424158791,-0.9499322057783424,LB
-1.0707215101800514,-0.766792148928709,0.19420689088695814,-0.6466792262600352,0.6554740784038068,-0.28194747130279624,-0.5520572677244474,0.7855564705005311,0.32868091836274577,-0.5724139727246669,0.788473702344764,0.3185625877870043,0.8295836143755572,0.6321564935962065,-0.7404427159078815,-0.3926687938957837,0.2765944907531454,0.14270465721284142,0.5627955574245355,-0.7020547744687037,-0.9467972611848622,0.5589433079052393,-0.7049567597419412,-0.9496079382024943,LB
-1.1136019580435177,-0.7678090283878437,0.22021613421811326,-0.6009771815839942,0.9189513301594255,-0.22279161449392715,-0.5520330920592309,0.7868422321853851,0.32872335112587403,-0.5266122153443242,0.8079054824334072,0.33202951201427566,0.8036516728968779,0.6313023114585985,-0.745576869787611,-0.32920910529995606,0.940719463705596,0.3278084884547073,0.5627104901626239,-0.7010361733311804,-0.9467734724914001,0.5677165735116855,-0.6794441578522181,-0.9474883355115866,LB
-1.0908216686595138,-0.766792148928709,0.22926291817470398,-0.8066359336043083,1.0067772245593039,-0.07490222432741195,-0.5522057753822041,0.7877113441938293,0.3289363524302615,-0.53013655400894,0.7874765509581598,0.3389481607088149,0.7915499585834886,0.6398455325596067,-0.7535632794544367,-0.13883019192124815,1.0444890247139376,0.16914793795857497,0.5633714492849382,-0.6997159147518673,-0.9469611388509346,0.5987917893548398,-0.669670870889245,-0.9564228299388082,LB
-1.0935017995640552,-0.7789917875504444,0.22982824084930745,-0.7837852106142014,0.5896048014185701,-0.10448011398482224,-0.5525416444453866,0.7881559452112146,0.32911445837023384,-0.5369267855793396,0.7826384877887996,0.33779607444025694,0.8001939390763817,0.6227590903575903,-0.7393017668615646,0.05154837507388038,1.148258449784194,-0.3597201018169428,0.5629913471543325,-0.6984720850759675,-0.946860697700761,0.540804289406564,-0.6729745740010321,-0.936589781376994,LB
-1.1042217743124882,-0.7779753245038644,0.23887502480589817,-0.6009771815839942,0.5017790508333638,-0.16363587392613074,-0.5523853660380961,0.7885673540111916,0.32937938397687017,-0.522346137351858,0.7869390854868528,0.34279736620986145,0.8001939390763817,0.6056726481555738,-0.7723881209177916,-0.11767705937670783,0.9822272065460813,0.6451294162426258,0.562731419409602,-0.6978660647444794,-0.946736467857126,0.5523274248188921,-0.7003817292829034,-0.9463204449741837,LB
-1.0881415377549721,-0.769841954481004,0.23095911779321937,-0.4410203245657642,0.6774304081891044,-0.07490222432741195,-0.5523326976245891,0.789080959901609,0.3295948977474955,-0.5322471943727413,0.783073703731419,0.3397975944162573,0.798465426224481,0.6287394151145425,-0.7524223304081199,-0.3503621962784668,0.5463951590615143,0.14270465721284142,0.5627179166696161,-0.6971640010122423,-0.9467840452440495,0.5726791606411222,-0.6791577562393526,-0.9491887630434718,LB
-1.0653617972407006,-0.7718752969867191,0.20721162834988813,-0.5781263089199304,0.34808387944824887,0.1912986857217203,-0.5531011384118195,0.7891464708570194,0.3295923852812576,-0.5673906486588202,0.7758742881986894,0.326317571965807,0.7708049718939011,0.6244674546328062,-0.7524223304081199,-0.07537078043228404,0.6086568412912851,-0.17461623593420772,0.5627888060545425,-0.6958281861074558,-0.946736467857126,0.5670653773490656,-0.6492012232204245,-0.9408869858374167,LB
-1.085461955720163,-0.7708588339401392,0.21682373498108232,-0.32676536254961835,0.4139533002481576,0.1617208154378221,-0.5532349679871238,0.789492368701586,0.329681717414159,-0.5470871498449187,0.7870020082737376,0.33120348789719617,0.7967369133725802,0.6347193899402626,-0.7541336371488989,-0.5195880325340071,0.6086568412912851,0.08981799179876666,0.5629602908523647,-0.6950794533987983,-0.946897702335035,0.5880359182294537,-0.6770836976109718,-0.9541898654124416,LB
-1.061341326449022,-0.7444262141909525,0.22360876504984906,-0.39531842956367996,0.2602581288630426,0.5166554332062095,-0.5531822995736169,0.7895596266158073,0.33001364212047185,-0.5350806213754112,0.7802596568735177,0.3396476615636969,0.8192111210307633,0.6321564935962065,-0.7290336927594973,-0.6253540416402881,0.5671492343888852,-0.17461623593420772,0.5621892843991643,-0.6945647419342198,-0.9468289794428112,0.5435035481117242,-0.6848965453647525,-0.9400117270148025,LB
-1.1015421922776798,-0.7464595566966675,0.20777695102449173,-0.966593089970452,0.1724325220925083,0.04340929555520508,-0.5534326903919276,0.7902566631813737,0.32999298406473815,-0.5288081428085397,0.8163519926450887,0.3274097408304608,0.8192111210307633,0.6449713252477189,-0.7518517390562652,-0.4772814349166903,0.3803639158234017,-0.09528622049266094,0.5627233177656106,-0.6944382622445008,-0.9472307440435048,0.6040384734629947,-0.6984300300290333,-0.9642948866988218,LB
-1.0452610898915058,-0.7515427047546781,0.20155747522503334,-0.6466792262600352,0.2602581288630426,0.0729871852126154,-0.5542693410917319,0.7901920257053687,0.32995473874533976,-0.5689542454997589,0.774464642986952,0.32617404888203644,0.8019231600449772,0.6330110256650466,-0.7581268419823116,-0.41382202342772617,0.712426402299627,0.1955913919086547,0.5629987736613248,-0.6938248019312645,-0.9474078376503892,0.5894030927636172,-0.6861598050609365,-0.9565678276353259,LB
-1.1229821417745465,-0.7820415931027399,0.21851993459959784,-0.9437419179584745,0.238301799077745,-0.13405800364223255,-0.5546242053204419,0.7907772569070345,0.3299284974312999,-0.5332232578552664,0.8078679035467956,0.3289255118064376,0.7915499585834886,0.6441171431101109,-0.759838148723091,-0.15998367084936782,-0.07454092474708618,-0.06884245477475792,0.5639959510092907,-0.6935393771769255,-0.9477752408049706,0.6166500849481783,-0.6732858508713532,-0.963477626954815,LB
-1.0734016410845928,-0.7556093897661084,0.23152444046782297,-0.9437419179584745,0.238301799077745,0.36876598491915796,-0.5548970449707393,0.7907851182216837,0.33028247600792265,-0.5294533957197592,0.7795412883899171,0.3425621555638376,0.8019231600449772,0.6253219867016463,-0.7489994832691693,-0.15998367084936782,1.0652428281651376,-0.12172955319969832,0.5638480960064438,-0.6926445502812127,-0.9477805271812949,0.5600965661870189,-0.6813608972847996,-0.9451815539760837,LB
-1.0988620613731384,-0.7789917875504444,0.22134701116202518,-0.6466792262600352,0.018737408233262115,-0.16363587392613074,-0.5551154893743003,0.7908113226038482,0.3303140214173536,-0.5416020693566245,0.7904627615523986,0.3323279842913982,0.8053808938654734,0.6236132724951983,-0.7489994832691693,0.32653976320937683,0.11056311157694723,-0.04239912206772053,0.5639810979953059,-0.6924876343025239,-0.9477593816759953,0.5560375559091345,-0.685644820001183,-0.9446252900858084,LB
-1.085461955720163,-0.7637423433764134,0.21456198109325844,-0.32676536254961835,-0.2227834274482559,-0.16363587392613074,-0.5551681577878066,0.7906409941197812,0.3303050882040634,-0.5440047534279063,0.7918872635332613,0.33059651066136636,0.8174819000621679,0.6321564935962065,-0.759838148723091,0.009242096129456579,0.4841334768317434,-0.33327664786686306,0.5645097302657578,-0.6924578743755312,-0.9481109257016022,0.5881540107978043,-0.7049749119568411,-0.9600082275254189,LB
-1.0693817191626465,-0.7789917875504444,0.1721558326568472,-0.5324242642438894,-0.156914136081552,0.1617208154378221,-0.5565219950399156,0.7905187070030151,0.3298291154334467,-0.6013504213694458,0.7905580196603211,0.3036927602515759,0.8036516728968779,0.6355739220091027,-0.7415836649541983,0.05154837507388038,0.11056311157694723,0.22203467265438823,0.5647169973245426,-0.6921102243192981,-0.9480897801963025,0.5711270868856553,-0.6755347086061778,-0.9478811474530612,LB
-1.0506213517005887,-0.7810251300561595,0.2055154287313726,-0.28106331787357736,-0.3764784550186989,0.014230713355838028,-0.5572783479945378,0.7896059210242974,0.3297596038675328,-0.5835280018403379,0.7607072747766787,0.32509107664216774,0.8226688548512595,0.6355739220091027,-0.7507110236673405,-0.054217647887743727,0.19357873319600355,-0.22750283206654398,0.5650613171941856,-0.6922867547953231,-0.9483567422007103,0.5818856572697467,-0.703621563490413,-0.9575037218583009,LB
-1.0653617972407006,-0.7434097511443725,0.2196508115435098,0.10740338833996577,-0.11300127517041608,0.13214292578041179,-0.5567352589437875,0.7894495682107177,0.329955855397001,-0.5357405195462971,0.7856386812245678,0.33709852438457205,0.812295653389771,0.6270307009080943,-0.7421542563060526,-0.30805601432144525,0.2558404154257744,0.16914793795857497,0.5646285543776344,-0.6920818171162596,-0.9482589442386993,0.5525683336583276,-0.6877370308444637,-0.9438212119505763,LB
-1.089481877642109,-0.7820415931027399,0.19929572133720946,-0.16680835585743156,0.08460671398143323,-0.015746483759615536,-0.5570883963392672,0.7895910718744044,0.3297562539125491,-0.5684502762700347,0.7918173493256119,0.3190243698254661,0.8157533872102672,0.6330110256650466,-0.722758823490843,-0.11767705937670783,0.4841334768317434,0.010487560666788872,0.564019580804266,-0.6914798549566343,-0.9480369164330532,0.5364888495516896,-0.6761048226148866,-0.9357039772673608,LB
-1.0774215630065385,-0.7566258528126882,0.21116958185622753,-0.21251040053347262,-0.2008269538482864,0.1617208154378221,-0.5570296840094562,0.789466164319422,0.3298129239843583,-0.5463109510825573,0.7913314455824461,0.32974401141232906,0.789821445731588,0.6244674546328062,-0.7489994832691693,-0.20229000521516433,-0.13848375328022175,0.5129123196965731,0.5638285170334641,-0.6911809029627529,-0.9478386773208692,0.5597861514359255,-0.6679659072971627,-0.9422816000457377,LB
-1.1095820361215714,-0.7708588339401392,0.2190852572742013,-0.28106331787357736,-0.2227834274482559,0.2208765366321064,-0.5567430296933213,0.7895727288068896,0.3299109101676349,-0.531979272269418,0.8038041402271556,0.3312335859419481,0.8192111210307633,0.6330110256650466,-0.7529926881025821,-0.4772814349166903,0.4011178552126871,-0.2010595513208105,0.5636806620306176,-0.690991521609163,-0.9481109257016022,0.5800758043079368,-0.7019098768557753,-0.9565124648784735,LB
-1.1055621141996257,-0.7515427047546781,0.1891182920314117,-0.6923812709360763,0.018737408233262115,0.2504544650365409,-0.5574423971513621,0.7903405172042989,0.3297171711044045,-0.546677082574237,0.8250510679319049,0.31513419754128513,0.8382275948684503,0.6133613371877419,-0.755844943889678,-0.13883019192124815,0.8784576455377396,-0.015955784510961447,0.5631560805821616,-0.6912458337125553,-0.9481400007713894,0.5402644376655321,-0.7296034337505122,-0.9478521479137575,LB
-1.089481877642109,-0.7576427322718234,0.22191233383662878,-0.8980401726303472,-0.02517551451818277,-0.19321368608949263,-0.5575934950589636,0.7904261181860353,0.3298187864055802,-0.5308662325347114,0.7948088034854238,0.33554206531106007,0.8174819000621679,0.6364281041467107,-0.7592677910286285,-0.09652392683216751,1.1067507069437086,-0.3068333671211295,0.5637907093615033,-0.6907588530890382,-0.9485338358075946,0.5964231898410619,-0.7036329926627576,-0.962668276176073,LB
-1.10690190521703,-0.7586591953184033,0.17780998578170198,-0.4410203245657642,-0.09104481595191372,-0.10448011398482224,-0.5580113887005579,0.7910995708076538,0.3293684966231729,-0.5609088290272943,0.8271948123239642,0.30731121407619133,0.8071094067173741,0.6219045582887501,-0.7661132516491374,0.009242096129456579,1.1067507069437086,-0.3861637289713688,0.5640911453261919,-0.6902103235256044,-0.9487770091185402,0.576562719103171,-0.7000677631955603,-0.9548858543557246,LB
-1.0801016939110801,-0.7779753245038644,0.20834250529380008,-0.5095733915798257,-0.003219050985240245,-0.015746483759615536,-0.5585138971704094,0.79095369974694,0.3293109890626175,-0.5626662601873573,0.783013402727321,0.3255313998894638,0.7708049718939011,0.6304477793897584,-0.7575562506304573,-0.2445961871721859,0.8161959633079687,0.06337422608086365,0.5644118354008592,-0.6889096794436275,-0.9487875818711904,0.5869683614115628,-0.6515966432829596,-0.9484110481257877,LB
-1.0680413792755097,-0.7688254914344241,0.20099192095572488,-0.5552751369079532,0.32612754966295127,-0.13405800364223255,-0.5591778645472412,0.7910917094930044,0.3291725242566201,-0.5693014243024576,0.7823238738543757,0.32267403643723164,0.812295653389771,0.6313023114585985,-0.7495700746210238,-0.11767705937670783,0.8369499026972542,0.08981799179876666,0.5645252584167415,-0.6884341969737211,-0.9488589479515768,0.5723815673688784,-0.6920733932927802,-0.9517565404327056,LB
-1.0975217214860011,-0.7678090283878437,0.21399665841865487,-0.6238280542480579,0.2602581288630426,0.7532784729714436,-0.5593160112056194,0.791498750895954,0.3293537009886612,-0.5408560225994606,0.7988716928774683,0.3291303457221102,0.7621602832843132,0.6398455325596067,-0.751281381361803,-0.26574969381099195,-0.07454092474708618,-0.04239912206772053,0.5650680685641787,-0.6874866138437941,-0.9489065253385011,0.5992398662998965,-0.6350068634729351,-0.9491360366083743,LB
-1.0586617444142132,-0.7596756583649833,0.23378619435564682,-0.5552751369079532,0.4139533002481576,0.014230713355838028,-0.5593419137040655,0.791365108546917,0.3296794841108366,-0.5382767339263094,0.765352199947407,0.34433180912100875,0.793279179552084,0.616778765600638,-0.7547039948433611,-0.13883019192124815,-0.07454092474708618,-0.12172955319969832,0.5647305000645289,-0.6874183012841063,-0.9488113705646526,0.5512578435569725,-0.6777640695175913,-0.9412982520311743,LB
-1.0693817191626465,-0.7749251025390141,0.20438455178746068,-0.6466792262600352,0.45786624744809673,0.0729871852126154,-0.5600792714931607,0.7915345635515786,0.3296041101237011,-0.569894126576047,0.7784829620716195,0.32402538290947136,0.7863637119110918,0.6415542467660549,-0.7062156464627296,-0.20229000521516433,1.2105199960758795,-0.14817288590673572,0.5640155299822703,-0.6853959789725561,-0.9483937468349843,0.5343193203674171,-0.6272834321851429,-0.9246393348622125,LB
-1.0693817191626465,-0.7423928716852374,0.23152444046782297,-0.6009771815839942,0.8969950003741279,0.1912986857217203,-0.5598038415930184,0.7921975344203316,0.3299614386553075,-0.5220816611919856,0.7836784616275889,0.34427021960350707,0.8243973677031603,0.6364281041467107,-0.7501404323154862,-0.18113677568322178,1.1897663285627649,0.22203467265438823,0.5642977372479775,-0.6849928672342003,-0.9485681972537069,0.5826934104372656,-0.7049796180866301,-0.958070531035596,LB
-1.085461955720163,-0.7657756858821286,0.2270011642868801,-0.7837852106142014,0.8091691059742496,-0.04532433467000163,-0.5599350809184779,0.7927976147718905,0.330135077988635,-0.5343294057030704,0.7850950982600914,0.3379841872199561,0.8918206987944042,0.6543690784175672,-0.7375904601207852,0.05154837507388038,1.8123830149223883,0.06337422608086365,0.5650005548642486,-0.6854406188630452,-0.9491259099559846,0.5956700966623223,-0.769523515836735,-0.9755282536962816,LB
-1.0908216686595138,-0.7637423433764134,0.19194536859383915,-0.6466792262600352,0.8091691059742496,0.01383140027947626,-0.5604842138855323,0.7938047365263993,0.3298855063423409,-0.5611181700919493,0.8061104351520006,0.3163891187960789,0.8451430625094427,0.6398455325596067,-0.7649723026028206,0.1573143426141318,1.5840899535164192,-0.4390504636671821,0.5660220371441891,-0.6854088298501212,-0.949752345550486,0.6085131695814735,-0.7378452116193357,-0.9739016431735327,LB
-1.057321404527076,-0.7657756858821286,0.2060807514059762,-0.7380831659381605,0.853082053174189,-0.6960376940243953,-0.5612466107564585,0.7941838265883738,0.32969762970033245,-0.5684528607276234,0.7736990824131876,0.3267344856227402,0.8330413481960534,0.6577861568992313,-0.735308795685544,0.707297617677479,1.5010752834639611,-0.09528622049266094,0.5673446305258174,-0.6847426133026707,-0.9501197487050674,0.6066412336694452,-0.6994082327208628,-0.9654179597663922,LB
-1.0921620085466504,-0.7861082781141701,0.211734904530831,-0.23536142287149311,0.9848206071446624,-0.7847712855025777,-0.5613588549163905,0.7948581526893979,0.32949244495757396,-0.5588628001032017,0.7860179658010679,0.32605895172942034,0.8486007963299388,0.6594948711056794,-0.751281381361803,0.41115268133714694,1.438812921543763,0.40713885030494656,0.568954157132148,-0.6846371008342419,-0.950658959090208,0.631155226415032,-0.7282057132032176,-0.9800100006795438,LB
-1.102881983295084,-0.7881416206198851,0.2196508115435098,0.0388504350781114,0.2822146024630121,-0.6960376940243953,-0.5610247126864377,0.7950179994205993,0.32937938397687017,-0.5474610347093634,0.7892646068188013,0.33007397516220177,0.798465426224481,0.6210503761511422,-0.7398723582134189,0.2419272607419019,1.1275045103949084,0.5922426815468125,0.5685504252065667,-0.6836279687643981,-0.95025190811319,0.5382103017909055,-0.6718437582431922,-0.9354324361266102,LB
-1.1082422451041671,-0.7759419819981493,0.21399665841865487,-0.18965952786940893,0.018737408233262115,-1.13970603888555,-0.5607579169524443,0.7952005566163428,0.32912590404976194,-0.5408482692266957,0.8023770164635058,0.32764857438927913,0.793279179552084,0.6261761688392543,-0.7672539670380621,0.6649910200601621,0.2558404154257744,0.618685962292546,0.5694699617996133,-0.683532601725626,-0.9502598376776776,0.5887734906706386,-0.6845812346688981,-0.9560168363885597,LB
-1.0760817719891342,-0.7637423433764134,0.22360876504984906,0.3587641101993426,-0.5960429033890506,-0.6664599593550817,-0.5600352372458022,0.7943995760015252,0.32915828694793875,-0.5409947218233675,0.7807918787792513,0.33666600433406363,0.8174819000621679,0.5578304000311881,-0.7507110236673405,0.707297617677479,0.06905536873646181,0.11626132450580404,0.5669820819571935,-0.684208287340756,-0.9492924308102194,0.41968045352992,-0.7156927863988662,-0.9016110643335071,LB
-1.0841216158330258,-0.7952581111836103,0.22191233383662878,0.38161513253736307,-0.06908835673341135,-0.31152520597210964,-0.5597192267647617,0.7938833496728915,0.32917084927912804,-0.5606676129857177,0.7705774130416276,0.3317184988851728,0.8278551015236565,0.6210503761511422,-0.7467178188339278,0.19962066312458512,0.46337953744245797,0.27492175375889405,0.5667147277054708,-0.68445989399624,-0.9491840600955582,0.544538713825153,-0.7099398788840997,-0.9454715493691189,LB
-1.0479412207960472,-0.7505262417080977,0.23378619435564682,0.1988072531811126,0.10656318758140279,0.0729871852126154,-0.5590820253029908,0.7933653763854469,0.3295454859114841,-0.5374712446446142,0.7622654876796717,0.34597354598798413,0.8019231600449772,0.6398455325596067,-0.7644017112509659,-0.011911036415083733,0.2558404154257744,0.22203467265438823,0.5676632951894869,-0.6844389267749496,-0.949493313110566,0.6126585561379231,-0.6891179437853695,-0.9654074144793724,LB
-1.0626816663361591,-0.7556093897661084,0.2055154287313726,-0.5095733915798257,0.15047604849253873,0.2208765366321064,-0.5594835140289036,0.793320828935768,0.32956809810762483,-0.5587249623651579,0.7834783322081917,0.3271998905739962,0.7673472380734048,0.6287394151145425,-0.7683949160843789,-0.6676602235973097,0.42187165866388704,0.1955913919086547,0.5678476075902958,-0.683633379660215,-0.9495620360027898,0.5988599456371452,-0.6561420923547531,-0.9535676934782948,LB
-1.0546412736225346,-0.769841954481004,0.21399665841865487,-0.7380831659381605,0.21634532547777544,-0.015746483759615536,-0.5602105108186202,0.7929854128440669,0.329622534876112,-0.5656969674526032,0.7659263703777303,0.33130520814103337,0.8278551015236565,0.6244674546328062,-0.7484291255747069,-0.03400563952835668,0.7331803416889124,-0.015955784510961447,0.5675903803935626,-0.683747008472369,-0.9495858246962519,0.5542951844149538,-0.7103641028693537,-0.9490437653469542,LB
-1.0760817719891342,-0.7332434550283518,0.2100387049123156,-0.8294871056162857,0.3041710760629817,0.2504544650365409,-0.5602588621490526,0.7934684469552927,0.3297361541826462,-0.5311703370442712,0.8036223632872664,0.3316909090108168,0.8416853286889465,0.6424084289036628,-0.7569858929359948,-0.11767705937670783,1.1067507069437086,-0.12172955319969832,0.5682567406118714,-0.6838998662791952,-0.9500536690010061,0.6031733610479908,-0.7279650282797296,-0.9700157049068684,LB
-1.0975217214860011,-0.7484928992023826,0.19929572133720946,-0.4638713469037847,0.43590977384812707,0.1025650554965136,-0.5602225986512278,0.7943296976490877,0.32962951394899476,-0.5399755840477034,0.8161387543117571,0.3221910742932037,0.8295836143755572,0.6355739220091027,-0.7393017668615646,0.2207737541030959,-0.07454092474708618,-0.3068333671211295,0.5683809658197426,-0.6844186359156363,-0.9501805420328037,0.5646360445144217,-0.703366087873303,-0.9513136383778894,LB
-1.0760817719891342,-0.7637423433764134,0.21738905765568592,-0.5095733915798257,0.6774304081891044,0.13214292578041179,-0.5603590184763769,0.7947402329696593,0.329744808233021,-0.5465831806151946,0.783634765247808,0.3328566508737534,0.7967369133725802,0.6569319747616232,-0.7649723026028206,0.28423358125235526,1.2312740714032502,-0.8092579529465675,0.570264598047789,-0.683500812712702,-0.9509285642827783,0.6504292831992267,-0.6799725889970827,-0.9767594159558011,LB
-1.1189622198526008,-0.7881416206198851,0.21851993459959784,-1.1036989246506614,0.6335177486185092,-0.25236954289836167,-0.5608589366963836,0.7954617269585789,0.32968897564995764,-0.5397533206951076,0.8016132037449327,0.3284904835855331,0.8019231600449772,0.6560777926240153,-0.7375904601207852,-0.054217647887743727,-0.07454092474708618,-0.8092579529465675,0.5710592342959647,-0.6832722023644398,-0.9513012538136847,0.6099559233593815,-0.6658125167666267,-0.9595336896095441,LB
-1.085461955720163,-0.7769584450447292,0.2190852572742013,-0.6466792262600352,0.34808387944824887,-0.16363587392613074,-0.5611153714309984,0.795514135722907,0.3297241501772873,-0.5494303913916692,0.7826804363133895,0.3319194312024516,0.8243973677031603,0.6330110256650466,-0.7609790977694079,-0.26574969381099195,0.6294107806805707,-0.06884245477475792,0.5713016084787135,-0.6834886381971141,-0.9515761453825801,0.5907648687803705,-0.7133256031150643,-0.9626392766367693,LB
-1.0760817719891342,-0.7271434275112065,0.22078168848742172,-0.6238280542480579,0.43590977384812707,0.427921841728027,-0.5607380583703029,0.7960513255572722,0.33002341282250786,-0.5170927965606505,0.8019653965659682,0.33898912749194976,0.8157533872102672,0.6295935972521504,-0.7489994832691693,-0.18113677568322178,0.6709185235210561,0.1955913919086547,0.57114092587288,-0.6833574239735553,-0.951552356689118,0.5675006328152727,-0.6959539334558319,-0.9508206462097306,LB
-1.0948415905814595,-0.766792148928709,0.2026883521689453,-0.21251040053347262,0.5237355244333334,-0.19321368608949263,-0.5606974777894042,0.7966348098001271,0.32985647339914814,-0.5516108121103547,0.8025762719553078,0.3224535961279838,0.8295836143755572,0.6304477793897584,-0.7421542563060526,-0.41382202342772617,0.42187165866388704,-0.015955784510961447,0.5706149941504255,-0.6835880634077488,-0.9515470703127928,0.5577644066657608,-0.7065575161744129,-0.9495130306193199,LB
-1.0948415905814595,-0.747476019743248,0.21060402758691907,-0.5095733915798257,0.5237355244333334,0.1912986857217203,-0.5605057993009039,0.797379014253589,0.3299106310047195,-0.5306999657631956,0.8095239963404983,0.3294159984616535,0.87280387089837,0.6424084289036628,-0.7626904045101869,-0.26574969381099195,0.13131705096623267,0.5922426815468125,0.5712064141618123,-0.6852410920797986,-0.9520043418648977,0.6077432060358268,-0.7668995123273118,-0.9793509202408294,LB
-1.085461955720163,-0.7789917875504444,0.23378619435564682,-0.7609341882761809,0.6115612750185396,0.1617208154378221,-0.5606707118743435,0.7974951870145166,0.3301830940100694,-0.5377003998841124,0.7748893717984241,0.3406578968620818,0.8209396338826641,0.6381368183531587,-0.7615494554638701,-0.054217647887743727,0.6501647200698562,-0.280390086375396,0.5718390175301562,-0.6853107573634406,-0.9523796745839659,0.6028494500033716,-0.7087330927453822,-0.9659953142307063,LB
-1.1471022221759548,-0.7749251025390141,0.21456198109325844,-0.71523214360014,0.32612754966295127,-0.16363587392613074,-0.560409096640039,0.7984795983044831,0.33008594531553903,-0.5185263090363098,0.8312419710192873,0.32593298583842173,0.8226688548512595,0.6278848830457023,-0.7541336371488989,0.3053866722308661,0.6294107806805707,0.16914793795857497,0.57206653869892,-0.6853750117512658,-0.9524113928419157,0.5703827662977072,-0.7077461500982305,-0.9542531371345588,LB
-1.089481877642109,-0.749509362248963,0.17328647800605423,-0.48672221956784845,0.34808387944824887,-0.07490222432741195,-0.5609513222741741,0.799266603248813,0.3296186265952975,-0.5680074725365676,0.8213561020576171,0.30642137095681377,0.8468715753613434,0.6338652078026547,-0.7341678466392272,-0.011911036415083733,0.8784576455377396,-0.4654937444129156,0.57168103547232,-0.6855454549694968,-0.9524880452986264,0.5513428702061851,-0.7198866203450055,-0.9498979335955289,LB
-1.0841216158330258,-0.7647588064229939,0.21286578147474292,-0.7837852106142014,0.21634532547777544,-0.015746483759615536,-0.5612656059219855,0.7993015424250318,0.3296364930218779,-0.5469786026262087,0.791114711538732,0.3295205055614867,0.8468715753613434,0.6125071550501339,-0.7444359207412942,0.030395228673996886,0.8369499026972542,-0.4654937444129156,0.5707216657963149,-0.6859370685542417,-0.9524008200892655,0.5207406994511099,-0.7317864056682926,-0.9412639798483615,LB
-1.0948415905814595,-0.7525591678012581,0.20155747522503334,-0.7837852106142014,0.5017790508333638,0.04340929555520508,-0.5615289479895189,0.7999994524700038,0.32954157763067,-0.5423834370341623,0.8108820798240939,0.3232955053242382,0.8451430625094427,0.6364281041467107,-0.7478587678802446,0.1573143426141318,-0.07454092474708618,-0.4390504636671821,0.5709977968290286,-0.6868880334940544,-0.9526915707871354,0.5769831286464997,-0.7268779122985005,-0.9604590385455001,LB
-1.0707215101800514,-0.766792148928709,0.20494987446206428,-0.6466792262600352,-0.003219050985240245,-0.37068106278097873,-0.5620806712064181,0.799688493801656,0.32939808789219643,-0.5628385573599127,0.7836417566685729,0.32518304289002065,0.789821445731588,0.6176329477382461,-0.7489994832691693,0.2630803517204127,-0.07454092474708618,-0.3597201018169428,0.5706960105903415,-0.6866668631275403,-0.952495974863114,0.5452951810772741,-0.6695774205977231,-0.9374782218083823,LB
-1.0908216686595138,-0.766792148928709,0.2196508115435098,-0.5095733915798257,-0.02517551451818277,-0.5185705110680303,-0.5619908758784719,0.7995295205498599,0.3293922254709749,-0.5387359058911689,0.7918837678228791,0.33307764855420013,0.8589734312980716,0.6347193899402626,-0.735308795685544,0.2630803517204127,-0.07454092474708618,0.43358230425502636,0.5705771864784647,-0.6877544531867286,-0.9524483974761898,0.5534179253357767,-0.7343707432266382,-0.9535123307214425,LB
-1.0452610898915058,-0.7434097511443725,0.21060402758691907,-0.71523214360014,0.12851957489256918,0.01383140027947626,-0.5624320817686681,0.7991679000759947,0.32948351174428375,-0.5549128874223748,0.7747722655006105,0.3326626856964633,0.8330413481960534,0.6270307009080943,-0.7524223304081199,0.09385465401830416,0.9199655243163105,0.3542517692004408,0.5705690848344732,-0.6877713622361562,-0.9524404679117029,0.5648870755740014,-0.7184176355466224,-0.9544455886226633,LB
-1.1430823002540091,-0.7484928992023826,0.24057122442441356,-0.6923812709360763,-0.003219050985240245,-0.04532433467000163,-0.5613208645853366,0.7998125278772329,0.3298042699339835,-0.4788350708806363,0.8306005081641012,0.3448523938209762,0.8071094067173741,0.6637664816561835,-0.7450065120931487,-0.41382202342772617,0.46337953744245797,0.14270465721284142,0.5716297250603732,-0.6872580034955319,-0.9528105142544461,0.6364795142109598,-0.6754957149593557,-0.9709146906252757,LB
-1.0693817191626465,-0.7413764086386574,0.20777695102449173,-0.5781263089199304,-0.02517551451818277,0.014230713355838028,-0.5614158404129719,0.799716445142631,0.3298296737592775,-0.5427590448703324,0.7952134319621968,0.32977996185467195,0.8036516728968779,0.6253219867016463,-0.7330268975929103,-0.30805601432144525,0.44262559805317253,0.010487560666788872,0.5707473210022883,-0.6866939176066247,-0.9524801157341395,0.5366494554446465,-0.6716844221346261,-0.9348445363752762,LB
-1.0586617444142132,-0.749509362248963,0.21851993459959784,-0.7380831659381605,0.10656318758140279,-0.04532433467000163,-0.5616852263968101,0.799394131242012,0.3299686968911057,-0.5448145501389157,0.7778528602751763,0.33610640365015804,0.8347705691646489,0.6295935972521504,-0.7421542563060526,-0.15998367084936782,0.2558404154257744,0.06337422608086365,0.5703624929126876,-0.6871017638788202,-0.9524457542880272,0.5553053819853598,-0.7126445589041891,-0.9498636614127159,LB
-1.0667015882581048,-0.7251105014180466,0.20381899751815233,-0.8751890006183699,-0.06908835673341135,-0.10448011398482224,-0.561889856134533,0.7994421726093129,0.3299555762340856,-0.5359955193616789,0.8039588254115807,0.3292730327490822,0.8416853286889465,0.6244674546328062,-0.7438655630468319,-0.03306450910829899,0.3596099764341162,-0.4126071829214486,0.5698892218761784,-0.687631355306895,-0.952490688486789,0.5459990127846446,-0.7228420698524163,-0.9485718637528342,LB
-1.0975217214860011,-0.7657756858821286,0.22078168848742172,-0.5552751369079532,0.0406937955444285,-0.6960376940243953,-0.5617663875586074,0.7994465400063402,0.3299019769543447,-0.5333636800508987,0.7968747683214731,0.3335029227791202,0.8174819000621679,0.6304477793897584,-0.7529926881025821,0.009242096129456579,0.46337953744245797,0.1955913919086547,0.5700330260570293,-0.687624591687124,-0.9525171203684136,0.5748237216823716,-0.7005390484787029,-0.9543638626482629,LB
-1.072061850067188,-0.7556093897661084,0.2021227978996368,-0.8294871056162857,0.12851957489256918,-0.37068106278097873,-0.562343149857337,0.799431690856447,0.32973950413762987,-0.5566039841710038,0.7920122351794352,0.32458414753657805,0.8209396338826641,0.6253219867016463,-0.7740994276585708,0.36884636082669364,0.8161959633079687,0.27492175375889405,0.5707817529892527,-0.6877990930772175,-0.9527391481740597,0.5932866512256662,-0.7201528528302045,-0.9649196949547235,LB
-1.0827818248156216,-0.7606925378241185,0.21851993459959784,-0.5781263089199304,0.32612754966295127,-0.4002589911854132,-0.5623215644419652,0.7995269001116436,0.32975848721587153,-0.5397343680061261,0.7897443930687976,0.33350766043431257,0.8278551015236565,0.6270307009080943,-0.742724614000515,0.45345900184760024,0.7539342810781977,-0.015955784510961447,0.5707587983312764,-0.687682082455178,-0.952662495717349,0.5514852561028822,-0.7057762986294602,-0.9471139778223968,LB
-1.0774215630065385,-0.78712474116075,0.17328647800605423,-0.7609341882761809,0.018737408233262115,-0.5185705110680303,-0.5637315237740406,0.7994037395154722,0.32913762889220544,-0.601632988732436,0.7915796410196028,0.30310696312131213,0.8036516728968779,0.6261761688392543,-0.7489994832691693,0.5169186904434279,0.13131705096623267,-0.12172955319969832,0.5709863195000404,-0.6875671009190699,-0.9525911296369626,0.5616999258578839,-0.6831075437407261,-0.9461148118773045,LB
-1.0586617444142132,-0.7647588064229939,0.20834250529380008,-0.39531842956367996,-0.17887062406298876,-0.42983672585472665,-0.5640682562538382,0.798759111714234,0.32904941341096483,-0.5649560896106159,0.7742278086085385,0.32816358537725576,0.8382275948684503,0.6270307009080943,-0.7432949716949773,0.009242096129456579,0.02754753073931656,-0.49193719836299543,0.5706305223014095,-0.6882360229144286,-0.952662495717349,0.5510621473008483,-0.7179470225677352,-0.94941021407088,LB
-1.0546412736225346,-0.7739086394924343,0.21795461192499427,-0.37246740722565946,0.06265025476293086,-0.22279161449392715,-0.5643566374032026,0.7980926469278593,0.3291127833927422,-0.5650258699655009,0.7619465041072699,0.333285269325868,0.8641598904054769,0.6287394151145425,-0.7524223304081199,0.07270150761842069,-0.2630071177397635,-0.06884245477475792,0.5706068925064339,-0.6898085645112028,-0.952884523522995,0.5649221659371687,-0.7531851778182873,-0.9613211157593388,LB
-1.0814414849284844,-0.7525591678012581,0.22078168848742172,-0.18965952786940893,-0.3984349286186684,-0.10448011398482224,-0.563857582599811,0.797636690678203,0.3292487357325018,-0.5325814508874985,0.7921197282736969,0.335865619292143,0.8313128353441527,0.6073810124307897,-0.7398723582134189,0.030395228673996886,-0.3875306181373907,-0.17461623593420772,0.5693538382357335,-0.6906154643498914,-0.9525303363092263,0.5049925493505302,-0.7122095780508465,-0.9317468583133159,LB
-1.0626816663361591,-0.7769584450447292,0.21116958185622753,-0.39531842956367996,-0.003219050985240245,-0.04532433467000163,-0.5642720225749459,0.7970872721321614,0.32924371080002607,-0.5689352928107773,0.769350418697375,0.3283413867897717,0.8226688548512595,0.6347193899402626,-0.7381610514726399,-0.32920910529995606,-0.1799915369021328,0.2484784730131605,0.5690088432290914,-0.6909063000000475,-0.9524272519708902,0.5619833480219257,-0.6948641282575805,-0.9486351354749507,LB
-1.0667015882581048,-0.7759419819981493,0.2055154287313726,-0.05255361835222105,0.06265025476293086,0.0729871852126154,-0.5644300278154661,0.7967291455759182,0.32919178649777675,-0.5710795311232264,0.7754312069077094,0.32475776866510053,0.7880929328796872,0.6201958440823021,-0.745576869787611,-0.30805601432144525,-0.6573314223838451,0.5393559468509991,0.5683532852027713,-0.6909577035103076,-0.9520149146175471,0.5460037364873784,-0.6645311048555428,-0.9366767799949043,LB
-1.0546412736225346,-0.7566258528126882,0.23717859359267776,-0.25821244520951364,-0.06908835673341135,0.1025650554965136,-0.5640570318378444,0.7959980433135383,0.32959378109583426,-0.5351538476737472,0.7624254164296707,0.34697765020317883,0.8174819000621679,0.6184874798070862,-0.7552745861952158,-0.3503621962784668,-0.2837610571290489,0.3278084884547073,0.5678428816313007,-0.6915075857976957,-0.951885398397587,0.5527282647366083,-0.704831038846153,-0.9473670647108635,LB
-1.0801016939110801,-0.7678090283878437,0.19703419904409036,-0.18965952786940893,-0.5301736264038139,0.04340929555520508,-0.5642089931620611,0.7955263644345838,0.32942656250955915,-0.5654523054675744,0.7936298751589308,0.3196798383556184,0.8399568158370458,0.6270307009080943,-0.7689655074362333,-0.054217647887743727,-0.4290384969159616,0.4864688657464934,0.5682371616388917,-0.6928190516713064,-0.9520968534505837,0.5875675968441084,-0.7374303998936597,-0.9663433087023482,LB
-1.0693817191626465,-0.7708588339401392,0.2270011642868801,-0.23536142287149311,-0.2886527044334926,-0.04532433467000163,-0.5640345830058581,0.7947856538987437,0.32961806826946666,-0.546666744743884,0.770435836771137,0.33833115079140147,0.8347705691646489,0.6270307009080943,-0.7421542563060526,0.030395228673996886,-0.11772981389093629,0.03693089337382626,0.5679286240302117,-0.6933892248180076,-0.9520387033110093,0.5498144149643881,-0.7132240851724758,-0.948015599862559,LB
-1.10690190521703,-0.7484928992023826,0.2060807514059762,0.15310522347246724,-0.3106091780334622,0.014230713355838028,-0.5631763468906821,0.7950319750910869,0.3295678189447098,-0.5288400177854627,0.8199875314428742,0.3258440851321638,0.8399568158370458,0.6270307009080943,-0.755844943889678,0.07270150761842069,-0.44979230036716156,-0.3068333671211295,0.5680812049920534,-0.6946459053714726,-0.952292449374605,0.5689838754737581,-0.7285546391118496,-0.9579360786260981,LB
-1.0975217214860011,-0.7749251025390141,0.23152444046782297,-0.16680835585743156,-0.44234787581860757,-0.22279161449392715,-0.5627351410004857,0.794299125869896,0.32970628375070726,-0.5303338342715159,0.7870133693324806,0.33904904489585397,0.8209396338826641,0.6313023114585985,-0.7290336927594973,0.19962066312458512,-0.3875306181373907,0.010487560666788872,0.5677294586154183,-0.6948508430505361,-0.9520704215689589,0.541437265572924,-0.6870808618910441,-0.9397243679435229,LB
-1.0734016410845928,-0.7484928992023826,0.22134701116202518,-0.28106331787357736,-0.3545219814187293,-0.19321368608949263,-0.5623647352727087,0.7938772353170535,0.3298366528321603,-0.533507548189982,0.7880874263474994,0.33711914711893887,0.8174819000621679,0.6236132724951983,-0.7535632794544367,-0.13883019192124815,0.2558404154257744,0.22203467265438823,0.5675410953926137,-0.6949069810946359,-0.9520096282412228,0.5611209348656272,-0.7024786462559731,-0.9498821156649999,LB
-1.0841216158330258,-0.7566258528126882,0.21399665841865487,-0.5095733915798257,-0.3764784550186989,-0.015746483759615536,-0.5622965253601342,0.7936038362631407,0.3298815980615264,-0.5401254825878268,0.7950176721807776,0.3311037184525557,0.812295653389771,0.6287394151145425,-0.742724614000515,0.32653976320937683,-0.03471417867807141,-0.04239912206772053,0.5676032079965493,-0.6948623412041468,-0.9519197598436994,0.5570504527382458,-0.6877504769295748,-0.9454188229340215,LB
-1.0760817719891342,-0.7657756858821286,0.2156928580371704,-0.28106331787357736,-0.04713189751490898,-0.10448011398482224,-0.5622568081958507,0.7933749846589071,0.3299164934259414,-0.5495630602145365,0.7833070423994499,0.3315933690509727,0.8900919026958257,0.6441171431101109,-0.737020102426323,0.5169186904434279,-0.055468104473548316,-0.14817288590673572,0.56811361156802,-0.696474111795593,-0.952292449374605,0.5726960310080293,-0.7692976216068691,-0.9672238401684715,LB
-1.1578227457941208,-0.7596756583649833,0.20042659828112142,-0.32676536254961835,0.32612754966295127,-0.34110313437654416,-0.561543626071972,0.7948957123038333,0.3296345388814705,-0.513963879907049,0.8539448620983418,0.3183245902849849,0.8001939390763817,0.6330110256650466,-0.7461472274820732,0.6861441110386729,-0.1799915369021328,-0.015955784510961447,0.568733387333377,-0.696259028686873,-0.9522501583640058,0.5726150532468747,-0.6755582392551222,-0.9484136844475426,LB
-1.10690190521703,-0.7627258803298336,0.22813204123079203,-0.5095733915798257,0.6554740784038068,-0.6073041025462128,-0.5611101909313094,0.7956442841543223,0.3296920464420259,-0.5195532001847384,0.8020746375154207,0.3377938449554606,0.8486007963299388,0.6441171431101109,-0.7307449995002766,1.088055056485286,0.5463951590615143,0.2484784730131605,0.5695435517325368,-0.696353719363668,-0.9522898061864424,0.5683421267166063,-0.7171389128525606,-0.9554210276719618,LB
-1.0600015354316175,-0.747476019743248,0.18459501585046884,-0.4181693022277436,0.8750385267741584,-0.4002589911854132,-0.5616817727303501,0.7964391504133015,0.32934113865747183,-0.5730531952348462,0.795388217481321,0.31528357302264626,0.8105671405378703,0.6295935972521504,-0.7438655630468319,1.066901965506775,0.42187165866388704,0.1955913919086547,0.570170078867887,-0.6959194949743652,-0.9521602899664824,0.5607430386469047,-0.6864179698950689,-0.9464575337054365,LB
-1.0814414849284844,-0.7728921764458543,0.2055154287313726,-0.8066359336043083,1.2263413853003116,-0.9030828053851947,-0.5623258815250397,0.7973851286094273,0.3290711881183598,-0.560818373011703,0.7880384864021446,0.32427369177867443,0.852058530150435,0.6287394151145425,-0.7324565398984478,0.982289047379005,0.5671492343888852,0.16914793795857497,0.5702018103068541,-0.6962110069864984,-0.9520334169346849,0.5371144027566105,-0.7258002085768492,-0.9459724505025419,LB
-1.0921620085466504,-0.7657756858821286,0.20325367484354875,-0.6238280542480579,-0.029907099200566903,-0.9622388559291849,-0.5625831796762697,0.7974471456472156,0.32878309198975186,-0.5518520281519319,0.8008887177681626,0.3230597373070151,0.8451430625094427,0.6364281041467107,-0.7564155352415326,0.4323057723156577,0.29734829420434533,0.5393559468509991,0.5709302831290985,-0.6968028237164672,-0.9522237264823812,0.5891999735460539,-0.7327551961005444,-0.9659953142307063,LB
-1.0948415905814595,-0.7901749631256002,0.2060807514059762,-0.39531842956367996,0.853082053174189,-0.7256156224288297,-0.5629501317375873,0.7980463525193692,0.3285164914056239,-0.565304129899177,0.7883347478570601,0.32201494499428523,0.8364990820165495,0.6535145463487272,-0.7484291255747069,0.2630803517204127,-0.2007454626976097,0.22203467265438823,0.572036832670951,-0.697357440537695,-0.9525964160132876,0.6155926503504319,-0.7137162118875405,-0.9715342262376682,LB
-1.0626816663361591,-0.784074935608455,0.22360876504984906,-0.28106331787357736,0.391996826648188,-1.0509724474073676,-0.5631435370593172,0.7976279558841483,0.32846484626629,-0.5627989290102248,0.7599189920854281,0.3351739216340486,0.7880929328796872,0.6278848830457023,-0.7552745861952158,0.7919101201449539,-0.2837610571290489,0.8302335938931841,0.5727254724102365,-0.6970848666609208,-0.9523585290786664,0.5761881969578302,-0.6698073486531222,-0.94847168352615,LB
-1.1149422979306545,-0.8308401475896822,0.22982824084930745,-0.14395748319336785,-0.04713189751490898,-1.1101279167459943,-0.5632229713878848,0.7970671821058356,0.32830209428665985,-0.5621571220424568,0.7707355939364351,0.330951556115199,0.8278551015236565,0.6005465055362295,-0.7626904045101869,1.1938210655915666,0.06905536873646181,0.5393559468509991,0.5725958461063712,-0.697686828820546,-0.9520572056281463,0.5245318083025071,-0.7254761579256727,-0.9413905232925945,LB
-1.0908216686595138,-0.7708588339401392,0.21682373498108232,0.5644231615675704,0.6335177486185092,-0.6664599593550817,-0.5623690523557832,0.7974899461380837,0.32824542421485065,-0.5441736046570101,0.7909722613406459,0.3309036221920754,0.8330413481960534,0.5569758679623481,-0.759838148723091,1.299586797590984,-0.5535618613755033,-0.3068333671211295,0.5707074879193297,-0.6989982946941568,-0.9513091833781724,0.4298019988595936,-0.7390714945814644,-0.9097546622342706,LB
-1.0680413792755097,-0.7637423433764134,0.21682373498108232,0.15310522347246724,0.4798225772333943,-0.42983672585472665,-0.561997783211391,0.7975467222994393,0.3282713863659751,-0.5514695284288592,0.7779157830620612,0.3329617153447851,0.812295653389771,0.6321564935962065,-0.7461472274820732,0.32653976320937683,-0.49130017914573254,0.08981799179876666,0.5709518875130762,-0.699239755919984,-0.9512986106255222,0.5692996887422618,-0.6894245145259016,-0.9501167483011828,LB
-1.0868017467375675,-0.7728921764458543,0.20381899751815233,-0.16680835585743156,0.5237355244333334,-0.04532433467000163,-0.5620634028741208,0.7979380410730907,0.32817758762642835,-0.5593865835077698,0.792779543608391,0.3229348861584147,0.8019231600449772,0.6193416619446941,-0.7529926881025821,-0.41382202342772617,-1.0101478482493558,-0.22750283206654398,0.5703557415426943,-0.699732823801295,-0.9512219581688107,0.5531493490946133,-0.6856078432671275,-0.9435918519579033,LB
-1.061341326449022,-0.7678090283878437,0.22191233383662878,-0.3039144898855547,0.4139533002481576,-0.31152520597210964,-0.5621048468716346,0.7977100629482626,0.3282956735396075,-0.5534380236253019,0.7684196858080383,0.3360088636903139,0.8209396338826641,0.6347193899402626,-0.7438655630468319,-0.11767705937670783,-0.03471417867807141,0.40713885030494656,0.5703118576377401,-0.6997774636917841,-0.9511796671582116,0.5704536218387176,-0.6969899543136389,-0.9520834443303087,LB
-1.0466014297786423,-0.7911914261721802,0.1987303986626059,-0.32676536254961835,0.7652563025889825,-0.19321368608949263,-0.5631003662285737,0.797562444928738,0.32811170517841354,-0.5990631764037758,0.7552391098108754,0.32003293301025393,0.8019231600449772,0.6278848830457023,-0.751281381361803,0.030395228673996886,0.5256412196722288,-0.14817288590673572,0.5703415636657091,-0.6991180107641046,-0.9511928830990243,0.5688138221753329,-0.6824130534447399,-0.9484954104219437,LB
-1.0412411679695592,-0.7576427322718234,0.19646864477478201,-0.39531842956367996,0.6554740784038068,-0.07490222432741195,-0.5637539726060268,0.7976244619665265,0.32800757741099995,-0.5801440853713544,0.7704236017847982,0.3225803980757813,0.8105671405378703,0.6500974678670631,-0.751281381361803,0.3053866722308661,-0.055468104473548316,-0.015955784510961447,0.5714980733455097,-0.6989915310743856,-0.9515232816193308,0.6152734630085468,-0.6871043925399883,-0.965908315612796,LB
-1.0774215630065385,-0.769841954481004,0.24170210136832548,-0.16680835585743156,0.8969950003741279,-0.4889925826635957,-0.5631625322248441,0.7978961140616282,0.32830600256747433,-0.5283119269515807,0.7701920109719586,0.34694671610162836,0.8209396338826641,0.6236132724951983,-0.759838148723091,0.38999959035863613,0.9614732671567959,0.010487560666788872,0.5717586762272394,-0.6986492919139695,-0.9516131500168542,0.5696640886674585,-0.7107291640801188,-0.9546011316062,LB
-1.0546412736225346,-0.7789917875504444,0.1998612756065178,-0.4638713469037847,0.699387025603746,-0.10448011398482224,-0.563940470594838,0.7978847588293572,0.32817423767144466,-0.5849494535139181,0.76732552845832,0.3216125229885287,0.8486007963299388,0.6099442587060778,-0.7478587678802446,0.4957655994649171,0.5256412196722288,0.2484784730131605,0.5711199966259018,-0.6991031308006084,-0.9513964085875333,0.5201515862387087,-0.7366276686125294,-0.9419968772962131,LB
-1.0090806948545266,-0.7942412317244752,0.21343110414934652,-0.5552751369079532,0.940907947574067,-0.42983672585472665,-0.5652813565977236,0.7971685057168703,0.3281580462223563,-0.6084774939121905,0.7190585073521466,0.3307854594978645,0.8486007963299388,0.6261761688392543,-0.7472881765283901,0.1784675721460743,0.1728249297448036,0.06337422608086365,0.5709397350470888,-0.699726060181524,-0.9514519155389444,0.5538160659947878,-0.7326563673749781,-0.953317242911583,LB
-1.0868017467375675,-0.7993243797824858,0.22191233383662878,-0.21251040053347262,0.7652563025889825,-0.13405800364223255,-0.5653754690087437,0.7973353402833155,0.3282116455020972,-0.5621028484331019,0.7703807793326128,0.33112629198611965,0.8486007963299388,0.6227590903575903,-0.7586971996767742,0.09385465401830416,-0.40828455752667614,-0.5183804791087289,0.5708863992241441,-0.7009320135867059,-0.9517373798604899,0.563017164106002,-0.7411186610396231,-0.9582814367759851,LB
-1.0975217214860011,-0.7728921764458543,0.21682373498108232,-0.14395748319336785,0.743299685174341,0.014230713355838028,-0.5650059266975819,0.7979677393728769,0.32827920292760404,-0.5419871535372851,0.7948280298925278,0.3303063989522303,0.8261265886717558,0.6389910004907666,-0.7467178188339278,0.07270150761842069,-0.9271320906922141,-0.7299279375050207,0.5712165412168017,-0.7017037426025851,-0.9520466328754968,0.5830922259109531,-0.703937546490523,-0.9579993503482154,LB
-1.057321404527076,-0.7657756858821286,0.22191233383662878,-0.1211066105293042,0.7213434992037153,0.2208765366321064,-0.5648591458730542,0.797957257620011,0.3285095123327407,-0.5541651176934849,0.7665197672151571,0.3364606130471917,0.8416853286889465,0.6201958440823021,-0.7535632794544367,-0.054217647887743727,0.006793604943839655,0.3278084884547073,0.5708114590172217,-0.7023516973766536,-0.9520016986767351,0.5510034384240111,-0.7304370910273978,-0.9518699022681646,LB
-1.072061850067188,-0.7647588064229939,0.21343110414934652,-0.34961638488763885,0.6115612750185396,0.014230713355838028,-0.5648962727874935,0.7982018318535431,0.3285759531065864,-0.5530546624163668,0.7818991450429036,0.3305427243406523,0.8053808938654734,0.614215869256582,-0.7375904601207852,0.009242096129456579,-0.44979230036716156,-0.09528622049266094,0.569827784409242,-0.7022982647804622,-0.9516210795813418,0.519407265650761,-0.6796391260863285,-0.9303443351397301,LB
-1.0801016939110801,-0.8308401475896822,0.22587028734296816,-0.23536142287149311,0.3041710760629817,0.01383140027947626,-0.5654635375034603,0.7974672356735417,0.32863932308836336,-0.5844110248496831,0.746921940883346,0.33046692185757354,0.8019231600449772,0.6201958440823021,-0.7552745861952158,0.05154837507388038,-0.11772981389093629,-0.12172955319969832,0.5696704774884052,-0.7021521705934071,-0.9515602862536049,0.5582232806456379,-0.6870371621144331,-0.9456903640747721,LB
-1.0680413792755097,-0.7708588339401392,0.19929572133720946,-0.14395748319336785,0.12851957489256918,0.04340929555520508,-0.5656992502393184,0.7972907928336362,0.32852654127057535,-0.5722701045855829,0.7819786724541052,0.3214088038152543,0.852058530150435,0.6295935972521504,-0.7318859485465935,-0.054217647887743727,-0.9478860300814994,-0.09528622049266094,0.5690385492570607,-0.703383825753719,-0.9515074224903562,0.538111778848167,-0.7252092531362181,-0.9462123557822346,LB
-1.0707215101800514,-0.7881416206198851,0.20890782796840365,-0.02970250620982642,0.4139533002481576,0.014230713355838028,-0.5658788408952105,0.7971405543758953,0.3284871792995154,-0.5745323664612324,0.7703073694145807,0.3252914515882473,0.8157533872102672,0.6330110256650466,-0.7313155908521309,-0.2869027847895027,-0.6365774829945596,0.3542517692004408,0.5684734595886466,-0.7035021890997128,-0.9512589628030855,0.549151072137595,-0.6824022965766512,-0.9415091577715634,LB
-1.0492815606831838,-0.78712474116075,0.21625818071177397,-0.3039144898855547,0.37004049686289037,0.605389024684392,-0.5663744420321427,0.7965797805975823,0.32869013073895137,-0.5788992382996436,0.7516280409857673,0.3310881120589804,0.8313128353441527,0.6458258573165591,-0.7604087400749453,-0.2445961871721859,-0.5535618613755033,0.27492175375889405,0.5693065786457826,-0.7042488927224391,-0.951663370591941,0.6164516894333492,-0.7179167688762355,-0.9726994804533162,LB
-1.0519611427179931,-0.784074935608455,0.1998612756065178,-0.39531842956367996,-0.06908835673341135,0.30961012811028893,-0.5671359754864539,0.795860033567474,0.32862452745385157,-0.5900425579346492,0.7625774798313086,0.3212075928123758,0.8451430625094427,0.6150700513941899,-0.7586971996767742,-0.09652392683216751,0.08980930812574726,-0.3068333671211295,0.5688333076092734,-0.7049550146265389,-0.951774384494764,0.5471799384681519,-0.7388980400835317,-0.9521625339829541,LB
-1.0921620085466504,-0.7708588339401392,0.2151275353625668,-0.14395748319336785,-0.04713189751490898,-0.16363587392613074,-0.5667914722571231,0.7957744325857377,0.32863569397046427,-0.5449549723345479,0.79273584722861,0.3297905519074548,0.8347705691646489,0.6270307009080943,-0.7472881765283901,0.4957655994649171,0.19357873319600355,0.22203467265438823,0.5689953404891055,-0.7051274869307012,-0.9517479526131394,0.5572785400988318,-0.716807466854573,-0.9514032733175546,LB
-1.1162820889480594,-0.7586591953184033,0.18742209241289617,0.24450929785715367,-0.003219050985240245,0.1025650554965136,-0.5661706757110349,0.796471469151304,0.3283615559876227,-0.5473430111461629,0.8298227126039981,0.31273805875631555,0.8261265886717558,0.6295935972521504,-0.7398723582134189,0.136161251635621,-0.5120539825969325,0.03693089337382626,0.568811703225296,-0.7054974569321787,-0.9516713001564286,0.5530312565262625,-0.7012046296917003,-0.9467396201332062,LB
-1.072061850067188,-0.7759419819981493,0.1925106912684426,0.6101250565696547,-0.02517551451818277,0.5758110962799575,-0.5659021531438118,0.7962426175470704,0.328267757248076,-0.5797150654116924,0.7852340527477952,0.31645823282476854,0.8140248743583665,0.6176329477382461,-0.7626904045101869,-0.054217647887743727,-0.5950696042159888,0.8566768746389176,0.5686733001404395,-0.7060250192743223,-0.9514968497377061,0.5619340865505565,-0.7063201927722027,-0.9509524622974735,LB
-1.0680413792755097,-0.7739086394924343,0.2123002272054346,0.3587641101993426,0.10656318758140279,0.36876598491915796,-0.5655136156671224,0.7959220506052623,0.3283847265095939,-0.5628135742698923,0.7744733822629082,0.3290712643750049,0.8295836143755572,0.6449713252477189,-0.7313155908521309,-0.30805601432144525,-0.7611008474541013,0.11626132450580404,0.5685848571935311,-0.7064443637001286,-0.9515285679956559,0.5733539753174121,-0.6954618067407671,-0.9528005238476305,LB
-1.0921620085466504,-0.7657756858821286,0.2151275353625668,0.4044661548753836,-0.3106091780334622,0.5758110962799575,-0.564662286884865,0.7956547659071879,0.3285686948707882,-0.5413108871350062,0.7954922148652,0.3303448575649688,0.8053808938654734,0.6338652078026547,-0.7056452887682672,-0.26574969381099195,-0.8441166050112432,0.43358230425502636,0.5673500316218119,-0.7059830848317417,-0.9508862732721791,0.5139372178847542,-0.6509653495869954,-0.9224485514839235,LB
-1.0760817719891342,-0.7779753245038644,0.20664607408057978,0.15310522347246724,-0.02517551451818277,0.427921841728027,-0.5645500427249325,0.7953542889917058,0.3285988444656425,-0.5663784027700586,0.7807936266344427,0.3247131789691715,0.8071094067173741,0.6372826362155507,-0.7472881765283901,-0.2869027847895027,-0.968639969470785,0.010487560666788872,0.5674870844326698,-0.7063084149427301,-0.9509682121052156,0.5825382030617191,-0.6832104062918257,-0.9535228760084623,LB
-1.057321404527076,-0.7515427047546781,0.22134701116202518,0.29021119285923785,-0.04713189751490898,0.36876598491915796,-0.5638783045985676,0.7949131818919426,0.3288819156617743,-0.5444492801330983,0.7744541558558046,0.33769435419641936,0.8053808938654734,0.6193416619446941,-0.745576869787611,-0.2869027847895027,-0.15923759751284733,0.2484784730131605,0.5668099220223721,-0.706054779201315,-0.9507118228534573,0.542011532862447,-0.6841818859410997,-0.9393341923238033,LB
-1.0318609842385305,-0.7728921764458543,0.20890782796840365,0.0388504350781114,-0.003219050985240245,-0.13405800364223255,-0.5642452566598852,0.794023106377767,0.3288805198471977,-0.5849597913442717,0.749555958656549,0.32910665744614803,0.7811774652386948,0.6355739220091027,-0.7524223304081199,-0.054217647887743727,0.06905536873646181,0.724459778092865,0.5672609135379043,-0.7051159887770903,-0.9505796634453347,0.5893531564775718,-0.6581825357703562,-0.9506571942609291,LB
-1.0827818248156216,-0.78712474116075,0.20890782796840365,-0.1211066105293042,-0.02517551451818277,0.1025650554965136,-0.5643842667348785,0.7937357316533669,0.32884199536488395,-0.5672174900004023,0.7797973491754341,0.3247377033019326,0.8157533872102672,0.6295935972521504,-0.7410133072597358,0.32653976320937683,-0.2837610571290489,0.06337422608086365,0.5673068228538566,-0.7050997560896397,-0.9504950814241356,0.5559700744415055,-0.6902393472836318,-0.9455453663782545,LB
-1.0801016939110801,-0.7627258803298336,0.2123002272054346,-0.05255361835222105,0.10656318758140279,0.01383140027947626,-0.564082070919676,0.7937645564737476,0.32888331147635097,-0.5482182807827432,0.789491827993663,0.3296208323773261,0.8382275948684503,0.6441171431101109,-0.7438655630468319,0.32653976320937683,0.06905536873646181,0.27492175375889405,0.5680224680731144,-0.7053067228546345,-0.9506959637244828,0.5886047870015662,-0.7145310446452708,-0.9621172849293068,LB
-1.0600015354316175,-0.7718752969867191,0.21795461192499427,-0.1211066105293042,-0.02517551451818277,-0.22279161449392715,-0.5641027929184327,0.7932273666393823,0.3289419356885676,-0.5606538292119132,0.7670318887861914,0.3332097455283889,0.8192111210307633,0.6304477793897584,-0.7592677910286285,0.32653976320937683,-0.3667766787481052,0.4864688657464934,0.5685875577415282,-0.7056679001504097,-0.9507858321220063,0.5835227576744261,-0.7068882898681449,-0.958753338370105,LB
-1.074741432101997,-0.7810251300561595,0.2060807514059762,-0.14395748319336785,0.21634532547777544,-0.015746483759615536,-0.564305695822926,0.7931286634665641,0.3288648867239401,-0.5697916097583765,0.7784008128776311,0.32410898858933773,0.8157533872102672,0.616778765600638,-0.7524223304081199,0.030395228673996886,-0.22149937489927807,0.8566768746389176,0.5681804501309505,-0.7058166997853733,-0.9504897950478113,0.5452182522041769,-0.7012859785066222,-0.9439662096470932,LB
-1.0935017995640552,-0.7769584450447292,0.17328647800605423,0.13025430590621653,0.06265025476293086,0.1912986857217203,-0.5645949403889056,0.7935234761578372,0.32841627191902484,-0.5854112099363663,0.809127233212086,0.30331291177938297,0.8140248743583665,0.6347193899402626,-0.7501404323154862,0.030395228673996886,-0.5328079219862178,0.3806955695592131,0.5684829115066369,-0.7060371937899103,-0.9505241564939229,0.5802822975988815,-0.6936539805975851,-0.9548884906774795,LB
-1.0466014297786423,-0.7800082505970247,0.21399665841865487,-0.1211066105293042,0.2602581288630426,-0.10448011398482224,-0.5649308094520881,0.7929941476381216,0.32846121714839094,-0.5773451178031954,0.7544604403231766,0.3306332971605077,0.8313128353441527,0.6176329477382461,-0.7335972552873725,-0.011911036415083733,-0.40828455752667614,-0.04239912206772053,0.5674924855286643,-0.7063983710856854,-0.95025190811319,0.5174948408581551,-0.7054293896335949,-0.9348840812015997,LB
-1.0479412207960472,-0.7627258803298336,0.211734904530831,0.15310522347246724,0.1724325220925083,-0.07490222432741195,-0.5648056140429327,0.7926229188907963,0.3285203996864384,-0.5663103453868997,0.7657909116004088,0.33107334172220415,0.8278551015236565,0.614215869256582,-0.7290336927594973,-0.20229000521516433,-0.32526893590761985,0.5393559468509991,0.5661104800910973,-0.7065640797700766,-0.949728556857024,0.5037765333038556,-0.6990505668569086,-0.9286860887559226,LB
-1.0948415905814595,-0.7881416206198851,0.20494987446206428,0.29021119285923785,0.37004049686289037,0.13214292578041179,-0.5645379548923248,0.7929190284092511,0.328431346716452,-0.5648570187363965,0.789941900705408,0.32154145816064233,0.8347705691646489,0.6236132724951983,-0.7484291255747069,-0.3926687938957837,-0.3460227393588198,0.7773465127886783,0.5655953505606317,-0.707115991143396,-0.9495963974489013,0.5516472116251919,-0.7183631789019225,-0.9497002094639144,LB
-1.0827818248156216,-0.7657756858821286,0.21738905765568592,0.01599932892267505,0.19438885187780588,0.2208765366321064,-0.5640950221688988,0.7929897802410941,0.32857483645492513,-0.5443967294954696,0.7875080123516022,0.3322569194635119,0.8226688548512595,0.6338652078026547,-0.7609790977694079,-0.09652392683216751,-0.3667766787481052,0.3278084884547073,0.5661084546800995,-0.7075420991889735,-0.9498237116308724,0.5927778409597435,-0.7112031385802837,-0.9629239993862939,LB
-1.1042217743124882,-0.7718752969867191,0.22078168848742172,-0.02970250620982642,-0.04713189751490898,0.2208765366321064,-0.5634966744547969,0.7930780016610468,0.3287222344742128,-0.534108003836337,0.7985229957668152,0.33245924520878845,0.7880929328796872,0.647534221591775,-0.745576869787611,-0.18113677568322178,-0.2630071177397635,0.2484784730131605,0.5667842668163987,-0.7068143337016062,-0.9499215095928835,0.604469680041144,-0.6580729501767011,-0.9559509283446883,LB
-1.1149422979306545,-0.7556093897661084,0.21286578147474292,-0.0754045359184718,0.08460671398143323,-0.015746483759615536,-0.5627377312503306,0.7936885637654716,0.3287428925299465,-0.5236004607680599,0.8189160962106422,0.32878505426426224,0.8105671405378703,0.6184874798070862,-0.7586971996767742,-0.09652392683216751,-0.242253178350478,0.40713885030494656,0.5665871268126031,-0.706919846170035,-0.9498289980071976,0.5584594657823393,-0.6994949599698291,-0.9483266858296323,LB
-1.0787619028936757,-0.7647588064229939,0.23095911779321937,0.10740338833996577,0.06265025476293086,0.1025650554965136,-0.5620409540421346,0.7934666999964818,0.3290307094956386,-0.5336540007866539,0.7788578770101412,0.340893107508106,0.8313128353441527,0.6389910004907666,-0.7609790977694079,0.2419272607419019,-0.470546239756447,0.3542517692004408,0.5675208412826347,-0.7075975608710962,-0.9501488237748547,0.6026746730022124,-0.7197817408811392,-0.9681860976089953,LB
-1.0734016410845928,-0.7678090283878437,0.22021613421811326,0.26736017052121736,0.2602581288630426,0.1025650554965136,-0.5615177235735258,0.7934125442733425,0.3291806199811641,-0.5484172840170445,0.7781578610060482,0.3342918817114587,0.8053808938654734,0.6347193899402626,-0.7278927437131805,-0.03306450910829899,-0.2630071177397635,0.06337422608086365,0.5671677446320008,-0.7070517367555708,-0.949932082345533,0.5491362262147167,-0.6675907615225641,-0.938427297640132,LB
-1.0667015882581048,-0.7606925378241185,0.20834250529380008,0.1988072531811126,0.19438885187780588,-0.31152520597210964,-0.5612569717558366,0.7933723642206908,0.329121437443117,-0.5576325982911577,0.7824269973106591,0.3281602411500612,0.8174819000621679,0.6398455325596067,-0.7489994832691693,-0.18113677568322178,-0.03471417867807141,0.27492175375889405,0.567517465597638,-0.7069211988939891,-0.9500721713181431,0.5892134698395798,-0.6955848384195333,-0.9584554340118057,LB
