xa_S1,ya_S1,za_S1,xgb_S1,ybg_S1,zbg_S1,tilt_x_S1,tilt_y_S1,tilt_z_S1,tilt_accx_S1,tilt_accy_S1,tilt_accz_S1,xa_S2,ya_S2,za_S2,xgb_S2,ybg_S2,zbg_S2,tilt_x_S2,tilt_y_S2,tilt_z_S2,tilt_accx_S2,tilt_accy_S2,tilt_accz_S2,Posture
0.858398586898591,-1.1962410372019556,-0.18342499126205747,-1.9062554548530808,-0.5213325617738138,1.18485117540471,-1.1864988485632508,-0.6963279171190014,-0.20653114250534,-1.1908682095498864,-0.7911128050792108,-63.24439,0.4872944600241861,-1.3739171611043715,-0.3391275868123696,-0.09070203856799595,0.5535131897412096,-1.3211794633397917,-1.2587383530497178,-0.4313053783674516,-0.23469711332609441,-1.4106090202214028,-0.5323050639388232,-137.6304,LR
0.8477272105606836,-1.36885601905775,-0.25197744382350956,-2.3540298004930738,-0.29412973929878733,1.1445152179503757,-1.1938016106383824,-0.6987878981030502,-0.2069431267842029,-1.3193415165097235,-0.7934103960475564,-64.2873,0.47374872711663285,-1.2806002751991106,-0.371999215367963,-0.09070203856799595,0.5535131897412096,-1.6421127771132213,-1.2601947285427684,-0.4328049657349948,-0.23710513698872152,-1.2934781677379328,-0.5231879719679945,-137.9179,LR
0.7751615017823593,-1.333030746342343,-0.20996139529319835,-2.4179978634336226,-0.5051037659616456,1.0033396310603044,-1.198923853540433,-0.7004868481806624,-0.20684496167460534,-1.2281297480832178,-0.7395512651130803,-63.84867,0.41414728038954207,-1.3645831791521874,-0.22955748629497288,-1.0784281508618867,0.321313832468257,-2.1140730235000436,-1.2709062275122478,-0.4327332189156222,-0.2390439501582626,-1.4615788869928183,-0.45203708225009176,-136.6798,LR
0.807175630796081,-1.3525715616368987,-0.19669319327762802,-2.2580782298182127,-0.5700188429118758,1.0840114138689239,-1.2066658264075516,-0.7033911066668473,-0.20593055754347045,-1.2338787521459573,-0.7722434932289367,-63.7052,0.44665726130152617,-1.5698810925976499,-0.39756437535460737,-0.09070203856799595,-0.11212507592790431,-1.7176268616884711,-1.2755380727077947,-0.43494002493126516,-0.2406197891727758,-1.4626989173596947,-0.5246089178716987,-137.3883,LR
0.7559535488949587,-1.5414723349397106,-0.12592975111860572,-1.9222482561921612,-0.24544344753088118,1.3663625876490664,-1.2101992842903553,-0.7053752719310159,-0.20467064314469705,-1.1933565632925949,-0.7812234752787112,-63.32118,0.4195657954864195,-1.4672340470096346,-0.37930269193504096,-0.09070203856799595,-0.8087231883042558,-2.3028576166696157,-1.2784736687996694,-0.43727692133368246,-0.24270025079306184,-1.3835161644529443,-0.49414439432362217,-137.3463,LR
0.71326804354333,-1.5968397569758395,-0.13919795313417604,-2.0981596436747267,-0.4888749701494776,1.8100571949463982,-1.2142835209798313,-0.7072264281899155,-0.2034779757107656,-1.2070170018345734,-0.7531070518263192,-63.59541,0.41685709277262106,-1.383247320787126,-0.357389270231936,-1.1278507455226858,-0.9325628590356617,-2.1140730235000436,-1.2845361887442728,-0.43947111252394144,-0.24458594579357515,-1.3412831002150691,-0.48247995917939585,-137.3671,LR
0.6663138128162603,-1.5903257072022656,-0.194481750794028,-1.4424893553459315,-1.0893394585137164,1.9714015531639322,-1.2177294191549077,-0.7091351759768696,-0.20312860067503202,-1.2443125497584664,-0.7004866822874274,-64.21508,0.4385300434908504,-1.5232226496450183,-0.41217432049063435,-1.0454790350429002,-1.9078000379095816,-1.7742614977170788,-1.2912098152683125,-0.4433414986371217,-0.2462060499489469,-1.4057753538148587,-0.5186777443280547,-137.514,LR
0.7324759964307306,-1.4763345052563046,-0.22986347187353914,-0.3230541197291037,-0.716077792624504,2.2537521985438778,-1.2194650785226,-0.7106997458223545,-0.20286347758375617,-1.2766554801819219,-0.7244245351775093,-64.34102,0.3653828638562064,-1.2992644168340493,-0.3245176416763426,-0.8642618115212122,-2.418638907812533,-1.4344499719341135,-1.2945566232641084,-0.44606472406692915,-0.24679920283643197,-1.270231880906223,-0.43108934002660604,-137.0834,LR
0.7239394198812369,-1.4861049129035817,-0.16905129444770192,0.028768655236028173,-0.3752736120611856,1.931064803109302,-1.2191925136259647,-0.711874887240041,-0.2017913909143703,-1.2092091904678142,-0.7352619672751872,-63.71768,0.3301641802304239,-1.2712662932469265,-0.371999215367963,-0.6171470038021596,-2.836598075363797,-1.2645443326963417,-1.2947336728338512,-0.4486389368718861,-0.24734809058306095,-1.1709621187430175,-0.41298658198463883,-137.2165,LR
0.7495500237311046,-1.4242234410938788,-0.1458322805849761,0.2846395452847218,-0.3752736120611856,1.5882096931476581,-1.2177506029551641,-0.7133187891219827,-0.2005446167271171,-1.1750864352716692,-0.7514835131480846,-63.3427,0.3545458336624516,-1.5325566315972026,-0.39026089878752857,-0.4688783565656177,-2.9139979963130935,-0.9058542239427085,-1.2984488581602425,-0.45223021997344154,-0.2471710300196316,-1.368149687222541,-0.45112096641990174,-136.9707,LR
0.7025966672054226,-1.5707835578815434,-0.1358810158517908,0.3645992573452343,-0.5537900470997076,1.426866655930617,-1.2164739259263655,-0.714897071236052,-0.19966113074073785,-1.1905451203395567,-0.741244008338554,-63.52901,0.32203585275046753,-1.2806002751991106,-0.57287773298319,-0.4853525907548068,-3.0687978382116867,-0.4716501542675362,-1.294088298595754,-0.4559176911185513,-0.24876457509048822,-0.9686919882198639,-0.45063005202988415,-138.2323,LR
0.6791191147411939,-1.6163805722703952,-0.17015678924648714,0.9722929223590597,-0.3428160204368493,1.7495540513651926,-1.214841361053256,-0.7156512460081964,-0.19922673080692746,-1.2318778663346222,-0.721347701007249,-63.98721,0.3491273185655742,-1.383247320787126,-0.41217432049063435,-0.35355796189391786,-3.6415558337242016,-0.037446254245254926,-1.2944966548614525,-0.4597596938746174,-0.24826880551288955,-1.2293536008747452,-0.442711255026815,-137.3298,LR
0.6577763620653796,-1.6652339445329503,-0.21991266002638366,2.2356559329769485,0.17650459516499128,2.415095235760919,-1.212194798274529,-0.7150204816533117,-0.19932876068461955,-1.2913333663248474,-0.6998776822717212,-64.61172,0.3843471118606373,-1.5605509329148954,-0.3537375319483966,-0.23823778303575407,-4.740633494479401,0.35900081914147275,-1.2990085632516897,-0.46555462928546987,-0.2465513180476314,-1.4518153899563095,-0.4676419751044268,-136.8659,LR
0.7346107962191443,-1.447021948288304,-0.19116481351164274,3.6589387867046326,1.2800614348111148,2.7176149166684263,-1.2052027319364937,-0.7128909663421481,-0.1978980235360734,-1.2257590101495317,-0.7313297649010487,-63.87749,0.3843471118606373,-1.2712662932469265,-0.2332092245785123,-0.2876608093236255,-4.028554424533342,0.9253536094205027,-1.3017899548795941,-0.46952829928148304,-0.24401049896243351,-1.3611353556320018,-0.42399543381747157,-136.7219,LR
0.7154019691303561,-1.2972041396007699,-0.18674238143047253,3.994768760330684,1.9616693707439818,2.798287095777193,-1.196453822430511,-0.7087238079193363,-0.19600196830896166,-1.1640914827149047,-0.6915274616018244,-63.60308,0.4493659640153246,-1.2059475309287884,-0.05059239038285081,-1.1607997534349044,-4.307194545525746,1.5860985726306076,-1.31177612174077,-0.4735563707119653,-0.23989384086271998,-1.566134853084539,-0.4303371200242642,-136.1259,LR
0.7196706945057965,-1.0040839060254405,-0.14472633290016132,3.7708821112466495,1.085315247274442,2.83862252483133,-1.1859749025702375,-0.7057523593170879,-0.1927949837442297,-1.0223899398848004,-0.6559203379562475,-62.64895,0.4060200625788663,-1.2619361335641721,-0.07981078465396926,-0.09070203856799595,-4.074994782677856,1.7560049537906435,-1.3171247321299546,-0.4770640805953507,-0.23529026621357949,-1.5386884523770414,-0.40638745563315976,-135.9738,LR
0.8455932849736574,-1.0203683634462917,-0.23981473660672423,2.475535383400063,0.2251908763030532,2.515935129396755,-1.181166179911985,-0.70588262586864,-0.19119574270676756,-1.1913386727859787,-0.7351014127255922,-63.57138,0.3843471118606373,-1.1779494073416634,-0.21860077544342,-0.09070203856799595,-2.8830374195709694,0.8498398958063846,-1.317644458286299,-0.4793134616466656,-0.2332098045932934,-1.305029187986225,-0.41490076155894295,-136.8096,LR
0.7901016034957071,-1.1994973950756602,-0.19337625599524277,0.46055082802009534,0.030445645452362995,2.5361028439238233,-1.180080157085495,-0.7063461005467941,-0.18939244191392118,-1.1729240048551688,-0.7333187035887068,-63.43036,0.433111528393973,-1.131290964389033,-0.17477243603627451,-1.1113767271470332,-1.691081070401425,0.37787927845843,-1.3229188220817212,-0.480556021947006,-0.23185529128306565,-1.357433033030383,-0.44019560868804825,-136.8961,LR
0.7367447218061709,-1.2255522601437885,-0.24202617909032426,0.46055082802009534,-0.4401886890114156,2.495767414869686,-1.1798217147223646,-0.7066217171453416,-0.1887702142507233,-1.2115246631418384,-0.6812007590627726,-64.05798,0.4872944600241861,-1.065968379801464,-0.2478191697145393,-0.27118657513443645,-0.42172429331391287,0.26460864621039754,-1.323375724197187,-0.4815478625928362,-0.23205005790283592,-1.2727745761077927,-0.4946005195048983,-137.7052,LR
0.6428362603520318,-1.2939477817270653,-0.18010805397967247,0.5565025034421487,-0.7809928695747341,1.7092173013105625,-1.1775832931619152,-0.7066532553630857,-0.18799648767822466,-1.123258958172674,-0.6346233305888184,-63.60508,0.433111528393973,-1.131290964389033,-0.15285751833223402,-0.37003241189664304,-0.7313234701424277,0.8309614364894276,-1.3263255984801718,-0.4816219746919685,-0.23004927353609533,-1.3812195365289457,-0.43535527011182873,-136.7715,LR
0.6812530403282206,-1.2222959022700852,-0.1668398519641019,0.5724944668036898,-0.3752736120611856,1.2856906727403978,-1.1749932205172058,-0.7063227896902009,-0.18720498317249218,-1.1024919740613992,-0.6566193038833646,-63.30188,0.3735100816668822,-1.0193099368488325,-0.26242761884963073,-0.9960565482888692,-0.7622833371284121,0.8687182314696312,-1.3265940284730087,-0.48118203265669546,-0.22889837987380957,-1.1271508298972694,-0.40633952383444927,-137.2879,LR
0.6214935076762175,-1.1636721223602533,-0.16462840948050186,0.41257504268266476,-0.9595093046132562,0.8218280867158988,-1.1717549235846447,-0.7059909527904573,-0.18667241812908367,-1.0539818296000354,-0.5989705319420637,-63.24632,0.3843471118606373,-0.9259930509435716,-0.37930269193504096,-0.9960565482888692,-0.9635228274153803,0.6610554262905235,-1.3228988326141693,-0.48150449913057836,-0.22958891607118104,-0.9427870434465777,-0.43500737802441475,-138.157,LR
0.71326804354333,-1.206011444849234,-0.18121400166448726,-0.24309430292139886,-0.9919668962375924,0.5193088021085397,-1.171284643218947,-0.7071400408978334,-0.18666468859289517,-1.1272352227524245,-0.6755550520989885,-63.39357,0.3518371309486532,-1.1032966630713412,-0.2697325914176442,-0.9136849457158517,-0.34432447375835057,0.45339274476512664,-1.3237041225926798,-0.4803888755106659,-0.22849114057792308,-1.166377347973556,-0.396549067401093,-137.0646,LR
0.6513737111029125,-1.2939477817270653,-0.12814119360220574,-0.49896540246447724,-0.6187051240499377,0.43863701929992055,-1.1702579350331765,-0.7072757923568196,-0.18615763101891009,-1.0705869145414157,-0.6559660129574256,-63.04329,0.3816372994775583,-1.0006496174833257,-0.3391275868123696,-0.7489417405698165,-0.05020517972596082,0.34012223617080495,-1.3211254812785123,-0.47962094801540456,-0.22884526170478178,-1.0396498716648033,-0.42852189642149097,-137.7877,LR
0.587345453075469,-1.437251540641027,-0.11818992886902042,-0.6588848265855022,-0.6187051240499377,0.41846917267280265,-1.1696153597587255,-0.7068877351558794,-0.18601386164579842,-1.0785295242953357,-0.6326939078117858,-63.24674,0.4060200625788663,-1.3645831791521874,-0.3135609308247897,-0.04054601239524964,-0.09664510187741844,-0.6037989985251044,-1.3225790011333423,-0.4796304091344426,-0.22895149804283738,-1.364812222998012,-0.463771095811801,-137.107,LR
0.655642436478353,-1.3916545262521751,-0.17900255918088723,-0.7548365020075557,-0.1967571345032865,0.41846917267280265,-1.1709005103076275,-0.7063515854542282,-0.1866152195612871,-1.1594973808732973,-0.6621321381164494,-63.74026,0.32203585275046753,-1.1499551060239717,-0.3537375319483966,0.7337467820241953,-0.06568516391582012,-0.7170698780805581,-1.315459895046723,-0.4782104528521371,-0.22950923881763807,-1.0908969176684253,-0.39541261991554066,-137.2915,LR
0.6940592164545417,-1.2809196821799174,-0.18895337102804272,-0.24309430292139886,0.014216849640194873,0.13611785358260575,-1.1709908945220553,-0.7055987819089421,-0.1872660465083833,-1.151663884580761,-0.6709501815256841,-63.62266,0.35996434875932903,-1.1499551060239717,-0.26242761884963073,0.3383632191618326,-0.5146039956656002,-0.3583795220195038,-1.312675647780595,-0.47748273511278794,-0.22909314649358237,-1.2166910353381144,-0.4040782252662587,-136.9814,LR
0.7516848235195183,-1.248350767338215,-0.16794579964891695,-0.05119105682448433,0.014216849640194873,0.15628580588976304,-1.170505079369504,-0.7058058371645671,-0.18736343866436228,-1.1435016308461348,-0.717522073635859,-63.28083,0.3626730514731274,-1.2339418322464801,-0.30260421997323766,-0.05702027895646911,-0.8396831566839744,-0.4716501542675362,-1.3118646465256412,-0.47749692679134514,-0.22898691015552425,-1.2412072555908535,-0.42023046833812494,-137.0666,LR
0.6769851891541678,-1.2809196821799174,-0.14140939561777607,-0.5789251145249897,0.11158951821476122,0.5193088021085397,-1.1700785788576709,-0.7048706604471086,-0.18691357965817432,-1.092014247652749,-0.6704491406036712,-63.13391,0.3355815856580207,-1.065968379801464,-0.25147090799807786,0.041825600968444725,-0.4681641444897565,-0.8303401393674585,-1.308703455014254,-0.4762173104414385,-0.22904888135272378,-1.1429839864472051,-0.3776438382774909,-136.946,LR
0.6705816639903132,-1.3916545262521751,-0.22212410250998368,-1.010707811045019,-0.602476434536212,0.5798126061899919,-1.1729313306255613,-0.705147648272514,-0.18804518375621415,-1.213101848629102,-0.6623494403947806,-64.18504,0.3328728829442223,-1.2992644168340493,-0.3172126691083291,0.2065688061144798,-0.17279101554008133,-1.1135166581606841,-1.30722423441543,-0.4751789526270042,-0.2292170888879814,-1.2509566108298016,-0.40479565605985907,-136.8798,LR
0.7367447218061709,-1.381884118604898,-0.1170844340702352,-0.8667799312967653,-0.829679150712796,0.49914095548142196,-1.1735315382994997,-0.7073416112460249,-0.18738894613378518,-1.1241998846448595,-0.7419415901747265,-62.98162,0.19470574148561046,-1.2806002751991106,-0.1966858577393795,0.05829983515763378,-0.9480429446192552,-1.0380031918539874,-1.3060962573178707,-0.4723492896080177,-0.22699497881695285,-1.242248091891385,-0.27245364053995114,-135.5384,LR
0.7516848235195183,-1.394912218152046,-0.05516630895958341,-0.2910700882588294,-0.7972216653869022,0.942835694878803,-1.17196534933386,-0.7101265729955247,-0.18534525676546781,-1.066522792369383,-0.7727929773340168,-62.33868,0.3518371309486532,-1.3739171611043715,-0.4450459490462269,-0.10644334840704772,-1.0409226469709427,-1.0191244852296089,-1.3045913359750516,-0.47332693857529073,-0.2283406390990089,-1.1907068964984835,-0.4511882255568017,-137.5372,LR
0.5489277988978931,-1.310232239147918,-0.134775068166976,0.3166234720078037,-0.01824063568569893,1.3461947410219486,-1.1686564397337766,-0.7074732490244354,-0.18441075584024227,-1.0378911366908903,-0.575654135886191,-63.2542,0.3301641802304239,-1.131290964389033,-0.20764256859093239,-0.5841984275170133,-0.9944827957950989,-0.6793132067540651,-1.3058592393454722,-0.47253062772291526,-0.22756157261992527,-1.2344616181539843,-0.36775829134024146,-136.555,LR
0.5211823952596117,-1.381884118604898,-0.17900255918088723,1.1961799904318637,0.9230283521371857,1.9108970885822336,-1.1648249963940296,-0.7026561290707213,-0.18396012388043517,-1.0957878729470731,-0.553894842143203,-63.86964,0.3789285967637596,-1.3365888778344945,-0.371999215367963,-0.7159931642846703,-1.2886016842525518,-0.6981911714561797,-1.3081266160934775,-0.47384256956286874,-0.22820784367643812,-1.2599451373599355,-0.45387472556516495,-137.3438,LR
0.691924416666128,-1.267892916658937,-0.16573435716531693,1.595978445987234,1.637093454500619,2.1327445903809736,-1.1607803027983656,-0.6989497028723468,-0.1825324785463644,-1.1209859972368514,-0.6734014065889006,-63.35481,0.3680915665700048,-0.9913156355311405,-0.14190080748068112,-0.6830441563724519,-1.6601215075966433,-0.036804445487644666,-1.3094173645696716,-0.47379289868791846,-0.22688874247889726,-1.227744264312238,-0.37308026718414733,-136.6308,LR
0.6513737111029125,-1.2809196821799174,-0.18231949646327247,1.803873341204112,2.2213298911417874,2.0117369822180695,-1.156703127375642,-0.6938185719680487,-0.18172474201463526,-1.1252456734046092,-0.6385555329629569,-63.59788,0.32745436784734494,-0.8793346079909401,-0.27703756398565776,-0.5677239775142882,-1.2731219028501608,-0.05632463046691853,-1.3050882170256224,-0.4732591338888509,-0.2269507136760968,-0.9651876507841066,-0.3654823039950265,-137.3803,LR
0.691924416666128,-1.4274811329937498,-0.18674238143047253,2.1077208545677752,1.9778979539592647,1.4672020849847538,-1.1532939477876767,-0.6900723801907794,-0.18166831640045725,-1.1956479459816385,-0.6951053366940972,-63.8429,0.30036290203223853,-1.2152776906115417,-0.3756509536515016,-0.22176354884656507,-1.3040814656549427,0.09470263601149366,-1.3021983111452935,-0.473143235180634,-0.22650806226752593,-1.1005699072005406,-0.3879112934173681,-137.1846,LR
0.71326804354333,-1.1766988878812334,-0.15910002971451684,2.5714869540749246,1.2638317886114068,1.4066989414035482,-1.1473074058351567,-0.6875685199472602,-0.18060473222087844,-1.0931578134103601,-0.6766609407638727,-63.10677,0.3355815856580207,-0.8793346079909401,-0.3208659033928032,0.041825600968444725,-1.0254426627810833,0.3967576141216765,-1.2948707434684912,-0.47267017922872767,-0.22659659254923809,-0.9271631855005535,-0.381712629513179,-137.6655,LR
0.6769851891541678,-1.1799565797811045,-0.17900255918088723,2.363591011386122,0.9230283521371857,0.6403165423714933,-1.1416725149668958,-0.6849028549344448,-0.18054521479222504,-1.0999625256384287,-0.6423631671520643,-63.3659,0.32203585275046753,-0.9819854758483872,-0.26608085313410484,0.4372091638308073,-0.9170829762395366,1.0197457823515779,-1.2886682972510273,-0.4717485085490967,-0.22503845959106833,-1.0516251458399426,-0.36527975349079883,-137.1072,LR
0.7324759964307306,-1.0985342926768458,-0.14030344793296126,2.155696116169244,0.6958251044683894,0.035278118466829246,-1.1356619647074178,-0.6835467115714438,-0.18005516219785522,-1.054834898479939,-0.6839993909531306,-62.75026,0.25701700059578025,-1.037974078483772,-0.18938088517136598,0.12419720354146227,-0.886123007859818,1.359557555441964,-1.285207263726365,-0.4694565524621105,-0.22171857402678435,-1.1182867511856767,-0.3016317364581237,-136.2373,LR
0.7452821725570518,-1.1799565797811045,-0.20885590049441313,2.1716878700364,0.8256553646672921,0.015110192579681837,-1.1321722866784776,-0.6821987955695931,-0.1809231891118569,-1.1636833700281728,-0.6892713933618223,-63.61309,0.28952587183848344,-1.196613548976603,-0.3464325593803831,0.05829983515763378,-0.2824046383926476,1.718247293234465,-1.2817919204132486,-0.4680129433822097,-0.21933710944866988,-1.1072108953354542,-0.3721316814257985,-137.0025,LR
0.691924416666128,-1.2450944094645104,-0.14472633290016132,1.436058812371824,1.1664592263352829,-0.36808080878627186,-1.1284891299405269,-0.6798320580119185,-0.1813019363851079,-1.0904611521504652,-0.675323908911209,-63.09248,0.3545458336624516,-1.131290964389033,-0.21860077544342,0.025351366779255674,0.2748738798986791,2.001424182988823,-1.2813635746799983,-0.4663383253124614,-0.21638905106758552,-1.2437669209494986,-0.38896038133430316,-136.742,LR
0.6641790130278467,-1.3297730544424722,-0.15357164994853156,0.6524541788642022,1.6208648712853357,-0.4084167662406061,-1.1269963781491104,-0.6766741225569218,-0.1820918949836032,-1.115595508832942,-0.6652504950150534,-63.35867,0.3437099131379774,-1.065968379801464,-0.3464325593803831,0.42073482173485016,0.5535131897412096,1.4917062760458217,-1.2754952381344693,-0.4646747452149241,-0.21526471648981493,-1.0517524220179961,-0.4051072127514765,-137.5132,LR
0.6321648840141249,-1.254864817111789,-0.18342499126205747,0.23666373899785276,1.1502306431199998,-0.6302641359392966,-1.1261673854324021,-0.6733187304343089,-0.18343760723407254,-1.109271179246547,-0.6182952097131724,-63.58759,0.511677223125494,-1.289930434881865,-0.32817087596081673,1.0797076423189904,0.46063338599578807,1.208530622828571,-1.2737704326485817,-0.4659835333485316,-0.21505224381370122,-1.3780432887966174,-0.5440437160616977,-137.8483,LR
0.655642436478353,-1.2711492745326403,-0.17789661149607244,-0.09916694690910724,1.507263725793929,-0.8117756802837022,-1.126218226553018,-0.6698125033572669,-0.18482274011910463,-1.11915374132038,-0.6414981103115727,-63.52974,0.4087287652926647,-1.1592890879761568,-0.25147090799807786,1.211501731646039,1.0179121070745833,0.9631104044007063,-1.269509820421852,-0.4645044450722378,-0.21386593803872858,-1.2761742642415943,-0.43982761616891697,-137.1519,LR
0.5361224969729596,-1.1473876649394006,-0.1568890401169464,0.3486072939836933,1.1177734766894334,-0.9932870925280586,-1.123042068767875,-0.6649076248846124,-0.18587859476249438,-1.0018071733057308,-0.5300511074373664,-63.23337,0.44394855858772775,-1.224607850294295,-0.09076749550552217,0.717272547835006,0.8476324837735993,0.9442320687374598,-1.2726196104452492,-0.46325163522627266,-0.21128085381267467,-1.531261180297704,-0.43615696809993587,-136.2969,LR
0.6748503893657536,-1.254864817111789,-0.134775068166976,-0.4190055856567724,1.0041723311980264,-1.0134550712552257,-1.1228358797787115,-0.6631579394132376,-0.1865425619211124,-1.0752731251491248,-0.6661183200374345,-63.02197,0.20825147439316397,-1.1126306450235264,-0.38660766450305445,0.6019523689768425,0.5535131897412096,0.45339274476512664,-1.2638984913162734,-0.4598156721622595,-0.2103424328265026,-0.9366240480692453,-0.31523199779542654,-136.9489,LR
0.6236274332632441,-1.2516084592380845,-0.1568890401169464,-0.7068606119229328,1.1989174557502742,-0.7109357866478666,-1.1232892131042025,-0.6599821780090809,-0.18743686925815609,-1.075611801996795,-0.6183865597155284,-63.30831,0.3735100816668822,-1.383247320787126,-0.23686245886298637,0.6843239715498599,0.2748738798986791,-0.018567872582828056,-1.2652634863862302,-0.45901068861743216,-0.2091030088825022,-1.4334310531262675,-0.4235161158303679,-136.4853,LR
0.6961931420415685,-1.339544796115917,-0.15246615514974635,-0.6908685438141993,1.2962900180263979,-0.8521116377380366,-1.124705703214695,-0.6583421906863819,-0.1884138826324198,-1.1316876188000273,-0.6927842161796907,-63.32859,0.3762187843806806,-1.3645831791521874,-0.2332092245785123,0.6184266031660315,-0.18952484478659948,-0.07520300322627822,-1.2664942664597694,-0.45871975920700986,-0.20799638036107504,-1.425443765863491,-0.4236235758307025,-136.512,LR
0.7666249252328661,-1.339544796115917,-0.14804327018254632,-0.7068606119229328,1.4261197467330882,-0.7916077015565351,-1.1267577073328863,-0.6574467795478177,-0.18918297148320531,-1.157645286145666,-0.7503942335745376,-63.2062,0.3708013789530838,-1.3272587181517421,-0.21860077544342,0.5690035768781602,-0.03472529692983573,-0.05632463046691853,-1.2675394300489002,-0.45805984615410056,-0.20681892761427412,-1.407970160796414,-0.4139150673112703,-136.4704,LR
0.7025966672054226,-1.277663324306214,-0.25197744382350956,-0.5949169731393382,1.3449757676722474,-0.5495922210306281,-1.1298632524505068,-0.6549333207162897,-0.19139980246215174,-1.2237000249626557,-0.6600020221524231,-64.28787,0.433111528393973,-1.2806002751991106,-0.28068930226919714,0.6349008373552205,0.33679371526438207,0.26460864621039754,-1.267305267714724,-0.45818362912818283,-0.206650720079019,-1.3583069961196883,-0.4724815405871187,-137.214,LR
0.6300309584270982,-1.3069758812742134,-0.16794579964891695,-0.7068606119229328,1.2151460389655573,-0.9327832884466064,-1.1308348827556096,-0.6521223056564796,-0.19270068340272667,-1.1085867402615073,-0.6300724395623601,-63.51087,0.3464186158517758,-1.2992644168340493,-0.21860077544342,1.0467593897541485,-0.05020517972596082,-0.33950118635625737,-1.2659202831772145,-0.45714448288716175,-0.20564147486747572,-1.3657201264014636,-0.3934311812043363,-136.3985,LR
0.66204508744082,-1.388398168378472,-0.14362083810137607,-0.19511851758396834,1.4585769131636543,-0.6907679400207488,-1.131007177664364,-0.6500270710167768,-0.1934805936041761,-1.1228635990074032,-0.6763495203012958,-63.35285,0.5225131436499686,-1.420575604057003,-0.13459583491266763,1.508039241932659,-0.5455638626515846,-0.036804445487644666,-1.269261379896567,-0.4592653504048752,-0.20466764176861932,-1.7019611619444055,-0.5200824552676793,-136.5686,LR
0.6492389113144988,-1.381884118604898,-0.12703569880342053,0.3645992573452343,2.0590419330201057,-0.5697601997577952,-1.1296033978340254,-0.6464989043100001,-0.1939180853524619,-1.097146831511571,-0.6696422155828607,-63.18084,0.3301641802304239,-1.4019114624220645,-0.09807246807353566,1.5904109524124443,-1.13380234932263,-0.5471638678816543,-1.2697554053089153,-0.4586961064094146,-0.20222420599330534,-1.5584784838847037,-0.3608862629735242,-135.4467,LR
0.685521765703661,-1.3362871042160462,-0.1635229146817169,0.7484057495390632,1.9292122043134154,-0.6504319825664144,-1.1283577903789361,-0.6437687916348374,-0.19479461475627122,-1.1380161995602427,-0.6806651158671404,-63.4522,0.3193271500366691,-1.4019114624220645,-0.26242761884963073,1.6398344103273883,-0.9170829762395366,-0.33950118635625737,-1.2658917267949978,-0.4585368442389393,-0.20120610775359035,-1.3743890483067072,-0.3889735239242722,-136.3255,LR
0.6129560569253367,-1.3069758812742134,-0.16794579964891695,0.6204702521411203,1.7993814126223004,-0.2874090259776526,-1.1265755266506796,-0.6398045747870754,-0.1955010943639274,-1.1009445467908765,-0.6164695937569988,-63.52955,0.3735100816668822,-1.1592890879761568,-0.11998738577757617,1.6398344103273883,-0.8396831566839744,-0.5094068255940292,-1.2592152446327367,-0.45853132525283397,-0.20044474733084766,-1.3867320092184454,-0.3832773708130144,-136.228,LR
0.6513737111029125,-1.36885601905775,-0.23981473660672423,0.7324137861775224,1.7020088503461765,-0.16640128571469912,-1.1263961704751728,-0.6348942114069873,-0.19746053178778758,-1.216206622575728,-0.6381956693173122,-64.35846,0.4222744982002179,-1.131290964389033,-0.4377409764782134,1.8375260838518015,-0.7313234701424277,-0.6415557935053081,-1.2486493832125618,-0.46019963590989016,-0.20326001028936128,-1.070108475252916,-0.4888061835156368,-138.2918,LR
0.6428362603520318,-1.3428011539896203,-0.18342499126205747,0.6364622155026612,1.1015448934741503,-0.22690522189620052,-1.1254556097437796,-0.6329402131337043,-0.1983587038929258,-1.1427534242537942,-0.6422358307851439,-63.72096,0.41685709277262106,-1.448569905374696,-0.4304360039101999,1.67278266289223,0.027194538435867246,-0.7737047614165871,-1.2443059574774038,-0.4612435127104301,-0.204959791698276,-1.3133954754236494,-0.5016101585195257,-137.644,LR
0.5894793786624957,-1.2809196821799174,-0.2132783325755836,0.20467982274949004,0.17650459516499128,0.15628580588976304,-1.1251505630200838,-0.6315964108124288,-0.1993411279425217,-1.130610654765597,-0.5804071041905877,-63.99705,0.3870558145744357,-1.4112454443742486,-0.28434253655367125,0.7502210162133842,-0.7622833371284121,-0.6415557935053081,-1.2452426068141111,-0.4620169591917971,-0.20497749775461943,-1.4154907687396572,-0.44587320755464416,-136.7666,LR
0.668447738403287,-1.2125254946228081,-0.2066444580108131,0.09273632013724573,-0.42395989319924743,0.015110192579681837,-1.1251999918873499,-0.6324273742886461,-0.20000277624028237,-1.1371078654206772,-0.6334482373766944,-63.7271,0.38976451728823414,-1.196613548976603,-0.25512414228255276,-0.20528920675060797,-0.17279101554008133,-1.0191244852296089,-1.247247264845723,-0.46174179831310497,-0.20582738845907428,-1.2851712758502658,-0.42829924548554593,-137.0078,LR
0.691924416666128,-1.2190395443963822,-0.20111607824482808,-0.7388444338988223,-0.22921465171871303,0.277293453682682,-1.1270302722295216,-0.6333008457974751,-0.20031041178059691,-1.143831805346164,-0.6550649697523698,-63.65277,0.3762187843806806,-1.3272587181517421,-0.10902917892508857,-0.5677239775142882,-0.824203172494115,-1.585478141084614,-1.2555771615383304,-0.46151709673594926,-0.20524308859976095,-1.5306417695645076,-0.3939507000548746,-135.8739,LR
0.6727164637787274,-1.267892916658937,-0.23870924180793926,0.1823710904236243,-0.4401886890114156,0.45880499802708763,-1.1279623594408126,-0.6342154541120573,-0.20123950203049024,-1.1922059122452833,-0.63779013067049,-64.15995,0.3301641802304239,-1.2526059738814188,-0.25512414228255276,-0.41945522237097826,-0.7003636031564433,-1.396693547915042,-1.2580587111529609,-0.4609959467622659,-0.2057742702900465,-1.2778543097919095,-0.3861308590233363,-136.6047,LR
0.6727164637787274,-1.310232239147918,-0.2132783325755836,-0.6588848265855022,-0.32658722462468115,0.6403165423714933,-1.1302629201486811,-0.6351821690472603,-0.20167699377877604,-1.1781727874650747,-0.6522358878612262,-63.95505,0.3680915665700048,-1.4299057637397574,-0.342779325095909,-0.37003241189664304,-0.23596471624119,-1.1135166581606841,-1.2617253506295827,-0.4611512667998085,-0.2065444837409609,-1.3520619783164975,-0.4450645517247885,-136.9619,LR
0.7047305927924492,-1.2939477817270653,-0.259716813187065,-0.8028120778506014,-1.3652284558283623,0.43863701929992055,-1.1338754642191105,-0.6381481327420753,-0.20298405834830122,-1.2384544322343434,-0.6625016903987072,-64.39616,0.3735100816668822,-1.3739171611043715,-0.25147090799807786,-0.6995186063751772,-0.20500481883708535,-1.1512734531408877,-1.267859261529727,-0.46088556704015443,-0.20674810338890287,-1.41077589343263,-0.4260982482125071,-136.5839,LR
0.6385675349765914,-1.3004618315006393,-0.20443301552721307,-0.7708282558747118,-1.8845494966239729,0.5798126061899919,-1.1357142180813846,-0.6414623880589345,-0.2033241579406086,-1.1498514674754503,-0.6255907530831416,-63.88076,0.3735100816668822,-1.3645831791521874,-0.20399083030739298,-0.9136849457158517,-0.34432447375835057,-0.49052848993078274,-1.2755837629193416,-0.460562312139685,-0.20580968240273337,-1.4543778836744656,-0.41517675594829134,-136.3341,LR
0.6321648840141249,-1.310232239147918,-0.17015678924648714,-0.5469411878019078,-1.7384901217175746,0.9831716523331374,-1.1363398463156298,-0.6445545046247259,-0.20277999859291704,-1.11299804162885,-0.6317250441504356,-63.53748,0.3410001007548984,-1.3272587181517421,-0.25147090799807786,-1.0125305666645221,-0.7777633213182714,-1.0002463968737838,-1.2811465461751517,-0.46035101381450033,-0.20565918092381916,-1.3477430733411955,-0.3983140399245731,-136.5056,LR
0.6983279418299821,-1.3232603386950659,-0.17236823173008717,-0.6428927584767689,-1.105568148027442,0.8218280867158988,-1.1377535119194218,-0.6473449512816598,-0.20238811110814534,-1.1491514408530714,-0.686245770556519,-63.51104,0.2841084664108866,-1.6352036771852179,-0.19303411945584092,-0.847787361518487,-1.0409226469709427,-1.2456656260719632,-1.2911298573981058,-0.4597541748885118,-0.20380004500781854,-1.592147275519294,-0.36224072283385594,-135.3517,LR
0.6833878401166343,-1.310232239147918,-0.15357164994853156,-0.6588848265855022,-0.7647640737625659,1.0638434351417565,-1.1386531173036523,-0.6493743670321572,-0.20143428634244767,-1.1177125933953609,-0.6772270339602906,-63.30527,0.3816372994775583,-1.2992644168340493,-0.20764256859093239,-0.6830441563724519,-0.42172429331391287,-1.226787537716138,-1.2963927986406407,-0.45958229789265254,-0.20393284043038928,-1.4075572203076157,-0.41807740286379624,-136.5137,LR
0.7047305927924492,-1.3297730544424722,-0.1458322805849761,-0.5629330464162563,-0.32658722462468115,0.882331890797351,-1.1393917258059336,-0.6509581340536602,-0.20059099394424978,-1.1249891859174623,-0.6997614186323592,-63.23262,0.30849011984291436,-1.037974078483772,-0.20764256859093239,-0.9301589640915046,-0.11212507592790431,-0.7925834680409655,-1.2973380148920128,-0.4575907323351269,-0.20385316317684632,-1.1438155241438253,-0.34513061688131,-136.6092,LR
0.655642436478353,-1.320002646795195,-0.18231949646327247,-0.5629330464162563,-0.5375612512875394,0.902499869524518,-1.1405116427128328,-0.6519207353082881,-0.20035678899772957,-1.1398994695625544,-0.6487922695905975,-63.65782,0.3653828638562064,-1.224607850294295,-0.11268241320956267,-0.2876608093236255,0.21295404453297617,-0.9058542239427085,-1.3016557398831756,-0.4560004759101351,-0.2028085058526187,-1.4379960253791428,-0.37960749583756087,-136.0262,LR
0.7175358947173828,-1.2939477817270653,-0.1668398519641019,-0.5309493291875592,-0.3752736120611856,0.6201485636443261,-1.14149315879139,-0.6535072447835077,-0.19997649581724092,-1.1420633170369945,-0.6981364958631798,-63.38248,0.3708013789530838,-1.4392397456919417,-0.25147090799807786,-0.05702027895646911,0.12007424078755456,-0.7359479664363834,-1.3054537387179954,-0.4555305736645747,-0.2023658544440478,-1.4579868704121786,-0.42812607253536655,-136.4526,LR
0.6385675349765914,-1.254864817111789,-0.16241741988293168,-0.4190055856567724,-0.42395989319924743,0.5394767808357068,-1.1411979978411473,-0.6537842326089137,-0.19962866668874504,-1.0893416763778345,-0.6293305668159547,-63.35612,0.3653828638562064,-1.2806002751991106,-0.13459583491266763,-0.35355796189391786,0.10459435799142949,-0.5471638678816543,-1.3103111793330535,-0.4542509573146681,-0.20108216535919132,-1.4575484746877714,-0.38818110305849574,-136.0507,LR
0.668447738403287,-1.310232239147918,-0.17900255918088723,-0.3390460830906447,-0.5862476387240438,0.45880499802708763,-1.1418165648086414,-0.6549703438414678,-0.1996943677463498,-1.1388465955131055,-0.6582497630163234,-63.59243,0.3653828638562064,-1.3739171611043715,-0.1966858577393795,-0.43592956446693537,-0.23596471624119,-0.3961363169997075,-1.3153970710058467,-0.4537834203488674,-0.1999578307814207,-1.4623001186684583,-0.40792977722069507,-136.2355,LR
0.6983279418299821,-1.2646352247590662,-0.20222157304361305,-0.08317498354756628,-0.32658722462468115,0.5193088021085397,-1.1423588700952103,-0.6558109059056939,-0.1999517613014366,-1.16284447172767,-0.6678941087195952,-63.73351,0.3410001007548984,-1.355253019469433,-0.17111920175180043,-0.5841984275170133,-0.375284340744335,-0.16959517615735345,-1.320885607667893,-0.452968975685002,-0.19823149028799336,-1.454191211946654,-0.3823813554145414,-136.0025,LR
0.7431473727686375,-1.2711492745326403,-0.15799453491573162,-0.22710244430705026,-0.5537900470997076,0.45880499802708763,-1.1426780393524099,-0.6580638316341176,-0.19943852009850016,-1.1361556024849706,-0.7172604804472943,-63.2221,0.3139086349397917,-1.1406249463412181,-0.28799427483721063,-0.8313133431428341,-0.09664510187741844,-0.018567872582828056,-1.3207799490536922,-0.4516869940553359,-0.19797475247102103,-1.144480188629219,-0.3740218951007478,-136.9042,LR
0.7175358947173828,-1.3428011539896203,-0.14804327018254632,-0.4190055856567724,-0.2779009434866192,0.5798126061899919,-1.1433149656134594,-0.6596215453453101,-0.19892682480280197,-1.1372623247361422,-0.7116092371197312,-63.26413,0.35996434875932903,-1.2526059738814188,-0.2952992474052241,-0.8807363694307054,-0.20500481883708535,0.1702164732793224,-1.323409991855848,-0.45144021653375793,-0.19765604345684923,-1.2608360706063149,-0.4177186874669962,-136.9789,LR
0.6193595820891908,-1.316746288921492,-0.18010805397967247,-0.17912665896961974,-0.22921465171871303,0.47897297675425476,-1.1432005730920736,-0.6592554277741057,-0.1991061500423824,-1.1201371795307673,-0.6198813779358977,-63.6682,0.3247456651335465,-0.6740366945454787,-0.2222525137269594,-0.7489417405698165,0.3677536836441007,0.03806755482952775,-1.3173360493583584,-0.4489117324708188,-0.19828460845702114,-0.8577467579898252,-0.3376950033329823,-137.4281,LR
0.6791191147411939,-1.339544796115917,-0.18010805397967247,-0.2910700882588294,-0.1805283493209626,0.5394767808357068,-1.1439928472216707,-0.6598258581472184,-0.1991880831259833,-1.1543449582033143,-0.6715591815413902,-63.64121,0.2786899513140092,-1.4392397456919417,-0.39026089878752857,-0.41945522237097826,-0.14308497333200895,0.11358109532845083,-1.3177472612622791,-0.44805628962445476,-0.19763833740050576,-1.236447126531629,-0.3886488246426858,-136.7621,LR
0.7111332437549157,-1.303718189374344,-0.17015678924648714,0.23666373899785276,0.43616490296591154,0.1159499144854534,-1.1435578731897351,-0.6596571972436298,-0.19932335000928733,-1.1460580033699654,-0.6937627684776545,-63.44113,0.3491273185655742,-1.224607850294295,-0.22590425201049877,-0.7818902089481946,-0.3288444895684913,0.6421770906272771,-1.3209084527736654,-0.44750675629365694,-0.19614217563953557,-1.3032190378983441,-0.39236585832332194,-136.5873,LR
0.644971060140446,-1.2385803596909364,-0.14804327018254632,0.09273632013724573,0.8418842667779026,0.13611785358260575,-1.1419253083166248,-0.6575701899650779,-0.19901803332982962,-1.071209002977093,-0.6356641669792977,-63.1687,0.3626730514731274,-1.1406249463412181,-0.20764256859093239,-0.5841984275170133,0.4761133701856473,0.15133813761607587,-1.3225561560275698,-0.4460686661998615,-0.1953985212731363,-1.2694399402427747,-0.3933631489739088,-136.7051,LR
0.6577763620653796,-1.2906914238533622,-0.18010805397967247,-0.17912665896961974,1.2638317886114068,0.15628580588976304,-1.1420142802777027,-0.654930578262573,-0.19934267384975943,-1.1289030999478504,-0.6460019422459079,-63.58345,0.5198044409361702,-1.3179247361995559,-0.2003375960229189,-0.18881496177074208,0.507073338565366,0.22685160392277257,-1.328236020450468,-0.44731674548630784,-0.19532769704776506,-1.5468878666032406,-0.5254059772986405,-137.1239,LR
0.5894793786624957,-1.381884118604898,-0.16794579964891695,-0.14714273224653776,0.939256935352469,-0.16640128571469912,-1.141757250167922,-0.6522649132497577,-0.2000839363702647,-1.1148033734444602,-0.6109498390691904,-63.67805,0.3572556460455306,-1.224607850294295,-0.3354758485288302,-0.024071735043353356,0.4451535031996629,0.6988124685781486,-1.326077157954887,-0.4465630096696037,-0.19501784106176495,-1.1953765180533142,-0.42270977928109515,-137.2372,LR
0.6129560569253367,-1.3623419692841758,-0.18231949646327247,0.4285670060442058,0.8743416458053539,-0.22690522189620052,-1.14078844436952,-0.6501257993505845,-0.20099447573330506,-1.134456550014864,-0.6221651279947954,-63.77341,0.3870558145744357,-1.0939665033885877,-0.26608085313410484,-0.04054601239524964,-0.18952484478659948,0.6799341329149021,-1.3239497074797442,-0.4464936281299909,-0.19469027901942143,-1.1923077479824529,-0.4222436038839605,-137.2422,LR
0.6748503893657536,-1.1929833453020862,-0.17015678924648714,0.3166234720078037,0.9067992374296903,-0.02522571203463271,-1.1392137818837778,-0.6483006964019957,-0.20098906505797284,-1.0936098548932331,-0.645423392230987,-63.29523,0.3735100816668822,-1.1592890879761568,-0.38660766450305445,-0.23823778303575407,-0.12760498914214966,0.774326058538556,-1.320885607667893,-0.4467624815959909,-0.19510637134347963,-1.1058391409719817,-0.4422605415002321,-137.7168,LR
0.6257622330516578,-1.2906914238533622,-0.1292466884009907,0.06075237246472529,0.5173087757283098,-0.04539366434178999,-1.137497894062992,-0.6470377964653682,-0.20066597044528128,-1.0594814314653282,-0.6347105283183401,-63.07784,0.2949443869353611,-1.1219608047062797,-0.25512414228255276,-0.2547120172249432,-0.2669246744815352,0.4911497870527517,-1.3188009917660746,-0.44532439150219577,-0.19393777162485046,-1.1480467499742468,-0.35101540481329896,-136.6566,LR
0.600150755000403,-1.2157818524965112,-0.20774995280959832,-0.08317498354756628,0.43616490296591154,0.0756140230811438,-1.1370728058045088,-0.644847947172433,-0.20139100093979043,-1.108201300501817,-0.5788292405135309,-63.81939,0.3166173376535901,-1.2059475309287884,-0.44869768732976634,-0.2547120172249432,-0.14308497333200895,0.7176909278951058,-1.3144290096487001,-0.445090228806002,-0.1943715700052521,-1.0326779654669493,-0.41556021033797436,-137.679,LR
0.5745392769491479,-1.3362871042160462,-0.17347417941490195,0.14071212642411476,0.35502103020351333,0.41846917267280265,-1.1360319750852332,-0.6430667234833143,-0.2015896500198424,-1.0991916461190474,-0.5895490248809024,-63.67853,0.5252229560330476,-1.224607850294295,-0.30260421997323766,-0.35355796189391786,-0.18952484478659948,0.4722714513895052,-1.3172703696792614,-0.44756352300788554,-0.19543393338582318,-1.3666591417595524,-0.5454808969294811,-137.8987,LR
0.5894793786624957,-1.2255522601437885,-0.14472633290016132,-0.14714273224653776,0.4523936987780797,0.05571834218560466,-1.1343768141585167,-0.6411470058814925,-0.20131525148514032,-1.038669101499972,-0.5900445294391359,-63.17359,0.3789285967637596,-1.3179247361995559,-0.29164750912168474,-0.38650675399260015,-0.2669246744815352,0.26460864621039754,-1.319372119410409,-0.44782449220802073,-0.19501784106176495,-1.3301789607697239,-0.43546118392510796,-136.9359,LR
0.6513737111029125,-1.3297730544424722,-0.17126273693130195,0.2846395452847218,0.663367725440938,0.1966216708740628,-1.13371587959051,-0.6401597225434127,-0.20153245145204526,-1.129146833913537,-0.6501403741708192,-63.56067,0.3653828638562064,-1.2059475309287884,-0.15285751833223402,-0.32060938560877167,-0.03472529692983573,0.8687182314696312,-1.3222648809289586,-0.44684211268122853,-0.19280458401890813,-1.3804473943820839,-0.38739718622152297,-136.2901,LR
0.6599102876524062,-1.2711492745326403,-0.18674238143047253,0.04476051385037674,0.8418842667779026,0.05544606694308509,-1.1335619439753124,-0.638597895151645,-0.20194907345262184,-1.1307098488214,-0.6424517489725308,-63.61974,0.3951830323851115,-1.2152776906115417,-0.11633415149310207,-0.04054601239524964,0.5535131897412096,0.5477849176962019,-1.3254803295665574,-0.44552465185516943,-0.19083921176485188,-1.4531107786129487,-0.40299589432763755,-136.2152,LR
0.5852106532870552,-1.2646352247590662,-0.19116481351164274,-0.08317498354756628,0.5497662610542036,-0.22690522189620052,-1.1330422347423494,-0.6363902199095497,-0.20278309040739242,-1.0995685835310975,-0.5803282110067349,-63.73814,0.4195657954864195,-1.420575604057003,-0.17842417431981392,0.239517382399626,0.3522736994542414,0.3212437768538478,-1.3298751567897065,-0.4454371365040667,-0.18936075606022512,-1.5644293522986126,-0.44875684641254193,-136.3153,LR
0.66204508744082,-1.267892916658937,-0.17015678924648714,0.028768655236028173,0.3874786218278497,-0.2874090259776526,-1.1325507705763966,-0.6359473136342725,-0.20316415654150025,-1.1125162419292367,-0.6482178718485108,-63.43464,0.32745436784734494,-1.355253019469433,-0.3318226142443561,0.2559916165888151,-0.019245312739976452,0.26460864621039754,-1.3281589182184828,-0.44489154530620134,-0.1888561334544522,-1.2736626809946598,-0.4073515032620602,-136.8334,LR
0.6236274332632441,-1.2516084592380845,-0.14693777538376132,0.23666373899785276,0.4037074176400178,-0.4084167662406061,-1.1307247269942755,-0.6348791279115444,-0.20330174228566109,-1.0648350763627963,-0.6212059529700583,-63.20244,0.3978928447681905,-1.355253019469433,-0.3318226142443561,-0.024071735043353356,-0.2978845211887727,0.22685160392277257,-1.3287557466068123,-0.4457580261247764,-0.189050900074225,-1.3317091032658852,-0.4608781798315719,-137.1843,LR
0.5958820296249627,-1.1408736151658267,-0.1745796742136872,0.06075237246472529,0.2738771574411151,0.15628580588976304,-1.1288873853853512,-0.6331472683893293,-0.20317575084578382,-1.045638192449085,-0.5714921744152177,-63.34368,0.2841084664108866,-1.2619361335641721,-0.28068930226919714,-0.6336215617116527,-0.6074837994110217,0.4722714513895052,-1.3294296772271248,-0.44486079666932743,-0.18774065190485334,-1.2194854545362805,-0.35748619763919864,-136.4971,LR
0.6705816639903132,-1.2939477817270653,-0.20111607824482808,-0.19511851758396834,0.2251908763030532,0.05571834218560466,-1.1298618401971559,-0.6330649947778229,-0.2038381720971636,-1.1586386437616338,-0.651017887829814,-63.79995,0.4033102501957873,-1.2432719919292337,-0.30990919254125116,-0.6830441563724519,-0.3288444895684913,0.09470263601149366,-1.3313857894089678,-0.4456224167518967,-0.18826298056696716,-1.2741463304712664,-0.453519875636003,-137.295,LR
0.6278961586386844,-1.333030746342343,-0.19005931871285753,-0.4030138317896162,-0.0020118398735307808,0.2974614324098491,-1.130857478809217,-0.6329347282262703,-0.20426638840202263,-1.1400369241827386,-0.6267783031137687,-63.79184,0.3464186158517758,-1.1592890879761568,-0.3245176416763426,-0.2547120172249432,-0.14308497333200895,-0.13183843063863404,-1.3290470217054215,-0.4452313571649874,-0.18891810465165426,-1.1480014962220506,-0.40804264887572256,-137.2392,LR
0.6342996838025386,-1.2353240018172333,-0.2066444580108131,-0.22710244430705026,0.11158951821476122,0.1159499144854534,-1.1312105421468268,-0.6322929940565188,-0.2048623356421791,-1.1290348863362736,-0.6100224981361837,-63.80212,0.3978928447681905,-0.6740366945454787,-0.3135609308247897,-0.2547120172249432,0.07363438961171091,-0.1507168157633648,-1.3202573672591253,-0.4447512053738024,-0.1915120419058799,-0.8240525111196262,-0.41557876458263654,-138.3314,LR
0.5788080023245883,-1.3265166965687691,-0.25861131838827983,-0.4669814757413953,0.07913192659042492,-0.16640128571469912,-1.1332837300652754,-0.6308490921745767,-0.20687201505126593,-1.189096887124837,-0.5674478606745519,-64.57018,0.3951830323851115,-1.196613548976603,-0.21494754115894588,-0.10644334840704772,0.011714655639742156,-0.3583795220195038,-1.3213310872304727,-0.444517042677609,-0.19159171915942286,-1.3324869021317713,-0.4236521802912232,-136.8101,LR
0.617224782300777,-1.2353240018172333,-0.2165957227439984,-0.6748766851998508,-0.1805283493209626,-0.12606546036041416,-1.1345900644144327,-0.6304418377976192,-0.20781424551268055,-1.132007873894476,-0.5935227499833844,-63.92793,0.3626730514731274,-1.131290964389033,-0.3208659033928032,0.107722645631969,0.18199417754699176,-0.4716501542675362,-1.3177900958356037,-0.44400220011661745,-0.19270720070902425,-1.1436797628872342,-0.41792046487769635,-137.3527,LR
0.6727164637787274,-1.274406966432511,-0.2165957227439984,-0.5949169731393382,-0.2779009434866192,-0.02522571203463271,-1.1363695036359895,-0.6312330356949412,-0.2086529001891648,-1.1701564906982727,-0.6450316944936124,-63.93191,0.3545458336624516,-0.6740366945454787,-0.25147090799807786,-0.07349454551768858,-0.003765328550117148,-0.5849209101692793,-1.3090946774506231,-0.4426571443600304,-0.19466371993490877,-0.8525652033632658,-0.36761990759880325,-137.7533,LR
0.6535076366899392,-1.3493152037631941,-0.21991266002638366,0.1823710904236243,-0.5537900470997076,0.09578197538830106,-1.1370572710176539,-0.632484965816701,-0.2096515562647574,-1.1892881899467427,-0.6418815035032787,-64.1106,0.3355815856580207,-1.2526059738814188,-0.15285751833223402,-0.17234042544260242,-0.1740449285305421,-0.5471638678816543,-1.3118161006758737,-0.4415304827679069,-0.19353053232896647,-1.3903127123610364,-0.36744905392920674,-136.0549,LR
0.685521765703661,-1.3558292535367682,-0.16794579964891695,0.1823710904236243,-0.29412973929878733,0.035278118466829246,-1.136930168216114,-0.6340303384861675,-0.20978759610168002,-1.1491868673015715,-0.6828090727406145,-63.53168,0.3301641802304239,-1.355253019469433,-0.3500842976639225,-0.33708361979796075,-0.06568516391582012,-0.6415557935053081,-1.3124329185317531,-0.44123876493089814,-0.19410597916010808,-1.2569895016695676,-0.4133638516261011,-136.9472,LR
0.6577763620653796,-1.339544796115917,-0.1878478762292575,-0.8028120778506014,-0.13184204692321216,-0.04539366434178999,-1.1388395347459106,-0.634633678303883,-0.21032170705232625,-1.1532141459671637,-0.6523756810466498,-63.74673,0.3410001007548984,-1.2059475309287884,-0.17842417431981392,-0.534775401229142,-0.11212507592790431,-0.8114620510116334,-1.3153199687738615,-0.4402090798089151,-0.19371644592056503,-1.332045678047851,-0.37431953610886864,-136.3115,LR
0.6535076366899392,-1.3297730544424722,-0.19337625599524277,0.1823710904236243,-0.26167225397289356,0.13611785358260575,-1.1387773955984914,-0.6353398601359813,-0.21076383652232514,-1.1541338165702488,-0.6457389649663986,-63.79434,0.4006015474819889,-1.2152776906115417,-0.26242761884963073,-0.4688783565656177,-0.39076432493419433,-0.6037989985251044,-1.3172618027645957,-0.44084691691740235,-0.19446010028696425,-1.300795133796291,-0.439412464944603,-137.0693,LR
0.6407023347650056,-1.339544796115917,-0.21770121754278363,-0.6109088317536868,-0.1805283493209626,-0.005057759727475439,-1.1407601993025112,-0.6355770823824924,-0.21176713031963085,-1.1778865417611866,-0.6305250373013054,-64.08462,0.3382913980410997,-1.2432719919292337,-0.28434253655367125,-0.22176354884656507,-0.11212507592790431,-0.4338933592873326,-1.3170876088330734,-0.4403170942512672,-0.19455748359685066,-1.2470902433764677,-0.3982011682695456,-136.8253,LR
0.6065534059628697,-1.2874337319534912,-0.21880671234156862,-0.5789251145249897,0.1927333909771594,0.035278118466829246,-1.1419154225431714,-0.6344142820065315,-0.21265757288858056,-1.1465242154322384,-0.5936680795325868,-64.04847,0.3545458336624516,-1.3365888778344945,-0.3245176416763426,0.025351366779255674,0.19747406034311685,0.01918887293589135,-1.3168477352224541,-0.4399891087912789,-0.19443354120245163,-1.2895835166894758,-0.42513961223829977,-136.962,LR
0.668447738403287,-1.3460575118633247,-0.21548977505918362,-0.16313469560807878,0.2576484679273895,-0.1462334390875813,-1.1431949240786718,-0.6343141824458655,-0.21367864461912067,-1.1902333675927488,-0.6544794992827252,-64.04195,0.3572556460455306,-1.3645831791521874,-0.16746746346826102,-0.32060938560877167,-0.22048480302694465,-0.22623067776193564,-1.321790844984161,-0.4395239371052376,-0.19295508549782234,-1.4794343205940585,-0.39466271919378176,-136.0461,LR
0.6022846805874292,-1.2255522601437885,-0.2055385103259983,-0.2910700882588294,-0.2129859196856104,-0.12606546036041416,-1.1431045398642432,-0.6336889029984147,-0.21430164523593717,-1.1100052152594866,-0.5829192292553749,-63.8093,0.3843471118606373,-1.065968379801464,-0.17477243603627451,-0.2876608093236255,-0.746803454332287,0.09470263601149366,-1.3221763561440871,-0.43973760071018203,-0.19244160986388023,-1.2650022441679538,-0.39800171013942814,-136.7663,LR
0.6833878401166343,-1.267892916658937,-0.21106689009198357,-0.27507822964448075,-0.11561326174088828,-0.16640128571469912,-1.144115713263159,-0.634300470177281,-0.21500967075083102,-1.1668434092344604,-0.653997835633939,-63.85017,0.39247432967131307,-1.355253019469433,-0.2332092245785123,0.12419720354146227,-0.31336450537863203,-0.3583795220195038,-1.323938284926856,-0.44029186460049896,-0.19229996141313777,-1.4321611197052373,-0.43552921615553575,-136.6098,LR
0.6471049857274722,-1.3232603386950659,-0.2276524822759687,-0.09916694690910724,-0.24544344753088118,-0.20673724316903339,-1.1454065128254625,-0.6347557174942843,-0.2163206000884513,-1.1863421264894003,-0.6300447577434645,-64.15825,0.3328728829442223,-1.2526059738814188,-0.20399083030739298,0.700798205739049,0.2748738798986791,-0.30174439137605363,-1.321825112642822,-0.4388900421296831,-0.1914500707086804,-1.3338303729001209,-0.37682126676413885,-136.3313,LR
0.6577763620653796,-1.3981685760257492,-0.1292466884009907,-0.03519919821013576,-0.6836202010001677,-0.5294243744035103,-1.1447356924840026,-0.6369099148888998,-0.2163298755318775,-1.1085527308709466,-0.6785751385405128,-63.22196,0.3816372994775583,-1.2152776906115417,-0.3135609308247897,0.7337467820241953,0.12007424078755456,-0.037446254245254926,-1.3177672507298313,-0.43892236761972986,-0.19197239937079422,-1.2311241539294533,-0.435977610401536,-137.2568,LR
0.6236274332632441,-1.3428011539896203,-0.18674238143047253,0.17269603848258977,-1.1867120207898403,-0.4084167662406061,-1.1442442283180496,-0.6388035791804116,-0.2170657273770511,-1.1376973615237334,-0.6260073644575228,-63.77705,0.3301641802304239,-1.5792150745498341,-0.32817087596081673,0.3383632191618326,-0.40624430912405357,0.1702164732793224,-1.319489200577496,-0.43925823734558356,-0.19080379965216754,-1.4477029552254055,-0.4224809435969294,-136.429,LR
0.655642436478353,-1.385140476478601,-0.14804327018254632,0.5245186814662592,-1.0893394585137164,-0.36808080878627186,-1.142791019620445,-0.6414665017395101,-0.2171986753994983,-1.1237946060740085,-0.6694913496698789,-63.40113,0.3139086349397917,-1.2339418322464801,-0.24416593543006435,-0.08996907699002368,-1.0254426627810833,0.2834871055273548,-1.3190751330353545,-0.4392267002821232,-0.18965290598988177,-1.2612263842190137,-0.37012318444112857,-136.4942,LR
0.644971060140446,-1.313488597021621,-0.16794579964891695,0.46055082802009534,-0.5537900470997076,-0.3277449834319869,-1.1413646437365002,-0.6425374299159549,-0.2174545230473474,-1.1173852530112116,-0.6431230330807519,-63.50536,0.19199703877181204,-1.1686192476589101,-0.25147090799807786,-0.37003241189664304,-0.7777633213182714,0.37787927845843,-1.3164222451274243,-0.4369402631812426,-0.1876167095104543,-1.0995347276190337,-0.27568130601762514,-136.0234,LR
0.6492389113144988,-1.1311032075185494,-0.18342499126205747,0.3486072939836933,-0.3752736120611856,-0.22690522189620052,-1.1393889012992329,-0.6425675969068405,-0.21738186540717272,-1.0761205257972684,-0.6101110799566501,-63.36229,0.4087287652926647,-1.1219608047062797,-0.28799427483721063,0.239517382399626,-0.4372042775037721,0.056945927588887446,-1.3137293782843904,-0.4378209356783749,-0.18841348204588135,-1.2086896062777768,-0.44552299618664726,-137.4236,LR
0.644971060140446,-1.3525715616368987,-0.17568516901247241,0.38059122070677526,0.16027579935282316,-0.48908841694917604,-1.1386107497031397,-0.6423550567437819,-0.21800100125589522,-1.1384880798542754,-0.6477735786552344,-63.65225,0.433111528393973,-1.3085945765168037,-0.23686245886298637,0.5360550005930139,0.027194538435867246,0.4722714513895052,-1.3145032562424626,-0.43856126824310826,-0.18790000641193924,-1.4269173411694063,-0.4648024025776014,-136.9179,LR
0.66204508744082,-1.303718189374344,-0.16131147219811687,0.3326153306221523,0.2738771574411151,-0.3075770047048198,-1.137486596036188,-0.6421658274373165,-0.2180396489368394,-1.1145851465216934,-0.656903042527046,-63.39994,0.3437099131379774,-1.355253019469433,-0.15285751833223402,-0.09070203856799595,0.4451535031996629,0.34012223617080495,-1.3185325617732377,-0.4370735072743629,-0.1857221614817693,-1.4760798862124542,-0.38041151310625093,-135.912,LR
0.685521765703661,-1.4014249338994538,-0.2165957227439984,0.5565025034421487,0.0629031307782568,-0.5495922210306281,-1.1379625254152872,-0.6427362578104291,-0.21942941954358514,-1.21700017502215,-0.677484474876021,-64.12597,0.22450701968379613,-1.1126306450235264,-0.28799427483721063,0.8655414108850841,0.15103420916727317,0.13245943099169732,-1.3103625808210435,-0.43443227820955255,-0.18483685866462507,-1.0479878755071066,-0.30477822711540115,-136.4913,LR
0.6663138128162603,-1.1311032075185494,-0.1557830924321316,0.7643977129006043,0.4523936987780797,-0.5294243744035103,-1.1348343842440594,-0.641725663615756,-0.21907154201804394,-1.0535326222330432,-0.6317956327886195,-63.04623,0.3843471118606373,-1.2619361335641721,-0.3062559582567762,0.7831698083120666,0.21295404453297617,0.35900081914147275,-1.307047184845687,-0.43449377548330026,-0.18488112380548366,-1.2766352868421031,-0.43932510537598574,-137.1454,LR
0.6364336093895653,-1.2809196821799174,-0.1878478762292575,0.3486072939836933,0.16027579935282316,-0.5697601997577952,-1.1339319543531279,-0.6410811869922873,-0.21975792483160891,-1.1245215567972489,-0.6250578780693988,-63.67329,0.38976451728823414,-1.355253019469433,-0.2989509856887627,0.30541475078345454,-0.31336450537863203,0.6610554262905235,-1.307438407282055,-0.4353137391332713,-0.18433223605885468,-1.3598031983017032,-0.44762812986226547,-136.9626,LR
0.6833878401166343,-1.381884118604898,-0.25197744382350956,0.4445589694057468,0.17650459516499128,-0.48908841694917604,-1.1353611547437745,-0.6412087110901222,-0.22157281992873828,-1.2483724207566786,-0.6628726267719103,-64.47704,0.3464186158517758,-1.2339418322464801,-0.14555254576422053,-0.17234042544260242,-0.6384436663970061,0.15133813761607587,-1.3102312214628467,-0.4349408133578516,-0.1827652500725132,-1.3932428928157936,-0.3729326063203784,-136.1016,LR
0.7388786473931971,-1.515417469871581,-0.19779914096244283,0.23666373899785276,-0.06692695934313786,-0.22690522189620052,-1.1373114766207337,-0.6433821056607562,-0.2224887699671109,-1.256669294995608,-0.7445395288780907,-64.0554,0.3518371309486532,-1.4019114624220645,-0.21129580287540647,-0.40298098818178923,-0.3288444895684913,0.3023654411906012,-1.315160053033448,-0.4348611822726143,-0.18123367619885614,-1.4562841979857657,-0.40253435749166827,-136.2003,LR
0.6385675349765914,-1.2581211749854921,-0.18121400166448726,-0.13115087363218922,-0.1805283493209626,-0.2672410472504855,-1.1370360872173977,-0.6433409688550029,-0.2226750517892607,-1.1108242747488295,-0.6246149689670673,-63.56229,0.30307160474603695,-1.448569905374696,-0.28068930226919714,-0.33708361979796075,-0.4526841602998973,0.35900081914147275,-1.3181242055075395,-0.4345387157987314,-0.1797906326069137,-1.376648907557046,-0.38364227095803516,-136.264,LR
0.6342996838025386,-1.3362871042160462,-0.1425148904165613,0.30063150864626276,-0.40773109738707936,-0.1462334390875813,-1.1355475721860326,-0.6441486214746267,-0.22232413084628944,-1.0925173032214626,-0.6456586876916006,-63.28482,0.3301641802304239,-1.4579038873268801,-0.2222525137269594,0.041825600968444725,-0.23596471624119,-0.13183843063863404,-1.3214081894624579,-0.43414529093206267,-0.17851579655022892,-1.4683245244296887,-0.3919831770271668,-136.0547,LR
0.6876565654920748,-1.3362871042160462,-0.2055385103259983,0.23666373899785276,-0.2129859196856104,-0.24707306852331834,-1.1360559833921915,-0.6450700859235013,-0.22301669728880577,-1.1849208173755408,-0.6708823610693891,-63.89877,0.30036290203223853,-1.3925813027393101,-0.371999215367963,-0.23823778303575407,-0.5455638626515846,0.20797326825952603,-1.3210655128758584,-0.4342367484160978,-0.17832988295862784,-1.2379857541063282,-0.3980040294200108,-136.8522,LR
0.5958820296249627,-1.3558292535367682,-0.19005931871285753,0.12472023638560846,-0.5051037659616456,-0.4689205703220582,-1.1357410508950423,-0.6452277770122222,-0.2238321633567234,-1.1329615538881221,-0.6053041321054068,-63.86367,0.3410001007548984,-1.2992644168340493,-0.2332092245785123,-0.33708361979796075,-0.746803454332287,0.5100281227159982,-1.3232243753714394,-0.43439995271950543,-0.17715243021182944,-1.3456585723806194,-0.39251351918709115,-136.4534,LR
0.6812530403282206,-1.394912218152046,-0.17236823173008717,0.18868793271098375,-0.09938452970778563,0.09578197538830106,-1.1359401786174546,-0.6461972344011421,-0.22381361246987044,-1.1647461634832024,-0.6849018182491317,-63.64781,0.39247432967131307,-1.224607850294295,-0.21860077544342,-0.518301382853489,-0.34432447375835057,0.43451440910188016,-1.3261514045486495,-0.43478864702665526,-0.17660354246520046,-1.3478250957670526,-0.42412531353010613,-136.7658,LR
0.6321648840141249,-1.254864817111789,-0.19005931871285753,0.04476051385037674,0.3874786218278497,0.09578197538830106,-1.135457187971604,-0.6448602882141591,-0.22381052065539506,-1.1164684165240062,-0.6164308392105449,-63.65862,0.3843471118606373,-1.3179247361995559,-0.3354758485288302,-0.2876608093236255,0.2439140129126947,0.6232987549640306,-1.326925282506722,-0.43500546433794557,-0.17663895457788736,-1.2884776281201618,-0.4490490757659696,-137.2048,LR
0.6748503893657536,-1.404682625799323,-0.21880671234156862,-0.05119105682448433,0.46862238829180536,-0.4285846128677239,-1.1371490674854328,-0.6444365791148997,-0.22504260872388926,-1.2156114582409108,-0.668922488291572,-64.16613,0.3653828638562064,-1.2432719919292337,-0.4961777650204512,0.2230430403036689,-0.03472529692983573,0.3967576141216765,-1.3209798437292075,-0.43586406089065555,-0.17854235563474155,-1.0509774515116221,-0.4645828440157666,-138.1125,LR
0.6193595820891908,-1.4665627635828598,-0.1745796742136872,0.252655629036359,-0.1967571345032865,-0.18656926444186625,-1.137158953258886,-0.6448534320798671,-0.22554580152977982,-1.1625851501246431,-0.647492608193443,-63.85401,0.19199703877181204,-1.3925813027393101,-0.18572914688782743,0.12419720354146227,-0.8551630394800994,0.34012223617080495,-1.3212082947869426,-0.4337747304364027,-0.17541723669023035,-1.3357677991660561,-0.27542077349882843,-135.2722,LR
0.6641790130278467,-1.2385803596909364,-0.15910002971451684,0.8443574249611168,-0.09938452970778563,0.09578197538830106,-1.134574529627578,-0.6450906543263777,-0.22489961230439617,-1.0917832672085228,-0.6479230604772716,-63.26529,0.3708013789530838,-1.2619361335641721,-0.25147090799807786,-0.40298098818178923,-1.0873624981467864,0.4911497870527517,-1.3232300866478826,-0.43488010451069037,-0.17485064288725793,-1.3231618008196715,-0.4169950719251751,-136.7729,LR
0.685521765703661,-1.3428011539896203,-0.19337625599524277,0.3326153306221523,0.24141967211522133,0.09578197538830106,-1.1346705628554083,-0.6451866402064691,-0.22506425142521763,-1.1727638773079447,-0.6736173247762874,-63.78149,0.3382913980410997,-1.2806002751991106,-0.3500842976639225,-0.2547120172249432,-1.1647623177023485,0.6799341329149021,-1.3222506027378498,-0.4359342308568551,-0.17476211260554328,-1.2072386578479593,-0.41492704673888103,-137.1211,LR
0.6278961586386844,-1.4144530334466017,-0.17347417941490195,0.12472023638560846,-0.06692695934313786,-0.08572950290607988,-1.1346846853889132,-0.6453182779848796,-0.22532241793392355,-1.1484641677521517,-0.645539655870349,-63.74846,0.3382913980410997,-1.065968379801464,-0.14555254576422053,-0.2876608093236255,-1.0409226469709427,0.3212437768538478,-1.322450497413367,-0.43569139546820984,-0.1736554840841161,-1.2561975610061193,-0.35566247000762174,-136.3618,LR
0.668447738403287,-1.3590856114104728,-0.20001013056001302,0.38059122070677526,-0.3752736120611856,0.2571254749555149,-1.1347793063633926,-0.6463288721795526,-0.2255195211067378,-1.1775776231302577,-0.660972269904718,-63.89738,0.3355815856580207,-1.1499551060239717,-0.13824906919714255,-0.27118657513443645,-0.9944827957950989,0.4911497870527517,-1.3239582743944078,-0.43537444798043257,-0.17207079204143122,-1.3266887651315276,-0.3574135268476055,-136.1553,LR
0.6769851891541678,-1.2320663099173623,-0.1458322805849761,0.49253475474317726,-0.2129859196856104,0.13611785358260575,-1.132761196325612,-0.6469994021133317,-0.22458656608874997,-1.0808039022890985,-0.6607881858090615,-63.09875,0.30578141712911594,-1.1779494073416634,-0.3062559582567762,-0.5018268249439958,-0.7158434859525684,0.35900081914147275,-1.3227617619795302,-0.4351521116830366,-0.17192914359068875,-1.1474725929932477,-0.3742832007130721,-136.8974,LR
0.6321648840141249,-1.310232239147918,-0.17679111669728723,0.3166234720078037,0.35502103020351333,0.09578197538830106,-1.131877125728236,-0.6459750956500743,-0.2244899468863901,-1.1201825253848487,-0.6298758986482006,-63.60817,0.3491273185655742,-1.4672340470096346,-0.3829559262195151,-0.08996907699002368,-0.5920038152211625,0.24573031054715108,-1.3235213617464938,-0.4361644514201162,-0.17212391021045903,-1.322556531884037,-0.44154929545485244,-137.0211,LR
0.6748503893657536,-1.2646352247590662,-0.1635229146817169,0.38059122070677526,0.7931978793413983,-0.36808080878627186,-1.130679534887061,-0.6447313928894652,-0.22438637110146029,-1.1099116894354446,-0.6597625744189748,-63.34438,0.39247432967131307,-1.7658488463603579,-0.22590425201049877,-0.15586615888138294,-0.2978845211887727,0.45339274476512664,-1.3331334400006298,-0.43719255968892595,-0.16999033042114514,-1.7490986015766348,-0.45981131076350246,-135.8248,LR
0.7047305927924492,-1.267892916658937,-0.12261281383622047,0.38059122070677526,0.6471388233303275,-0.08572950290607988,-1.1288944466521036,-0.644502398004105,-0.2233266516899766,-1.0792663944241552,-0.6956562048901225,-62.88207,0.3708013789530838,-1.0286439188010177,-0.19303411945584092,0.041825600968444725,0.10459435799142949,0.8687182314696312,-1.3308346512321874,-0.43632134831083175,-0.16936176542097572,-1.2050297090688422,-0.38921936766604476,-136.8676,LR
0.71326804354333,-1.2581211749854921,-0.2165957227439984,0.4445589694057468,0.37124971971723897,0.015110192579681837,-1.1291274684549262,-0.6444530338372014,-0.22371390145303519,-1.1833053713238968,-0.6748533179899817,-63.86153,0.3762187843806806,-1.224607850294295,-0.12729086234465412,0.2889401928739612,-0.12760498914214966,0.5666636243205804,-1.3321653786434833,-0.43575446959513053,-0.1677593673219474,-1.431801918047174,-0.3912935776005596,-136.165,LR
0.6513737111029125,-1.2809196821799174,-0.15357164994853156,0.3166234720078037,0.1927333909771594,-0.16640128571469912,-1.12779288903876,-0.644118454483741,-0.22336993709263384,-1.0939697876100025,-0.6465860286246078,-63.29128,0.32745436784734494,-1.3645831791521874,-0.24051419714652578,-0.007597468482133887,0.027194538435867246,0.6988124685781486,-1.3335189511605559,-0.4349691967149661,-0.16636058887086105,-1.3760690938570224,-0.38795767902902345,-136.3098,LR
0.691924416666128,-1.316746288921492,-0.18563643374565747,0.38059122070677526,-0.0020118398735307808,-0.3277449834319869,-1.1276756720106733,-0.6447684160146433,-0.22370308010237072,-1.1587236672380359,-0.67635644075602,-63.64884,0.3464186158517758,-1.3365888778344945,-0.25877588056609135,-0.08996907699002368,-0.5610438468414439,0.9442320687374598,-1.3346526395345568,-0.4351970519984677,-0.1651123118986914,-1.3517423736916072,-0.40463794498023137,-136.5568,LR
0.7089993181678895,-1.313488597021621,-0.19227076119645756,0.30063150864626276,0.014216849640194873,-0.24707306852331834,-1.127969420707565,-0.6455801823148423,-0.22405477399896112,-1.17259524741308,-0.6876810728662629,-63.6962,0.27327143621713185,-1.2712662932469265,-0.3208659033928032,-0.27118657513443645,-0.6539236505868654,0.9442320687374598,-1.3329278340486694,-0.4345931172332005,-0.16405880154629207,-1.1763416585354385,-0.35888549692413035,-136.6482,LR
0.66204508744082,-1.44050789851473,-0.17236823173008717,0.5884864301652307,0.11158951821476122,0.15628580588976304,-1.1276516637037153,-0.6459874366918003,-0.22412511277827898,-1.170869270842112,-0.6774332635110638,-63.74298,0.3680915665700048,-0.6833706764976638,-0.26242761884963073,-0.23823778303575407,-0.4991240114757409,0.6044202956470733,-1.3247150185231509,-0.4342809003049424,-0.16553725725091883,-0.8598058037147905,-0.38125573123837536,-137.8707,LR
0.6577763620653796,-1.3493152037631941,-0.17015678924648714,0.5245186814662592,0.3387923406897877,0.2571254749555149,-1.1267958381733483,-0.6455897809028515,-0.22384607652186328,-1.1371489601009381,-0.658939040306827,-63.57425,0.3382913980410997,-1.1779494073416634,-0.22955748629497288,-0.37003241189664304,-0.40624430912405357,1.038624241668535,-1.3250776845773022,-0.4338638226406784,-0.16443062872949168,-1.2543534706040909,-0.3819028105209653,-136.6364,LR
0.6278961586386844,-1.3265166965687691,-0.20001013056001302,0.6524541788642022,0.3874786218278497,0.17645374498691538,-1.1259965027769987,-0.6444612611983518,-0.2241336152680866,-1.1486823946749174,-0.6228765507404154,-63.88755,0.3843471118606373,-1.2619361335641721,-0.28799427483721063,-0.22176354884656507,-0.6539236505868654,0.9442320687374598,-1.3257658933887257,-0.4348462021674706,-0.1640853606308047,-1.295890758401937,-0.43536145486004946,-137.0444,LR
0.644971060140446,-1.3558292535367682,-0.18010805397967247,0.7324137861775224,0.7282828023911682,0.0756140230811438,-1.1249048309371072,-0.6431202013307935,-0.22421245653721264,-1.144339112088698,-0.6471202877292953,-63.70469,0.32745436784734494,-0.7486932610852339,-0.26608085313410484,-0.08996907699002368,-0.8396831566839744,-0.036804445487644666,-1.317410295952123,-0.4343778767750831,-0.16567890570166133,-0.8742049819919818,-0.354762589141511,-137.5536,LR
0.6513737111029125,-1.2906914238533622,-0.16241741988293168,0.1823710904236243,0.663367725440938,0.09578197538830106,-1.12417610820828,-0.6419039231073533,-0.22380356407282512,-1.106789910793538,-0.6458095536045825,-63.40169,0.3626730514731274,-1.0193099368488325,-0.3464325593803831,-0.04054601239524964,-0.6694035333829905,1.3784357674515002,-1.3122016118357975,-0.43498811895304246,-0.16600646774400488,-1.0312213603181075,-0.4167384048740165,-137.6954,LR
0.5894793786624957,-1.2809196821799174,-0.15910002971451684,1.100228419757003,0.7769689772307876,0.17645374498691538,-1.1209575828226244,-0.6395042761050763,-0.22335988869558798,-1.0723752416617451,-0.5957040773123674,-63.41831,0.3978928447681905,-1.1406249463412181,-0.2952992474052241,-0.024071735043353356,-0.7003636031564433,1.2462870468476426,-1.310588176240556,-0.4360532832714182,-0.16598876168766144,-1.2064495455440243,-0.4399049255216757,-137.3746,LR
0.6044194803758435,-1.2711492745326403,-0.21770121754278363,0.8923332102985473,0.6309101338166018,-0.005057759727475439,-1.119638538193312,-0.6374021853310816,-0.22399525657030717,-1.1390407324508909,-0.5893594044214664,-64.01237,0.3680915665700048,-1.3365888778344945,-0.28068930226919714,0.00887680886976239,-0.17279101554008133,1.30292168287625,-1.3116990195087848,-0.43625038991804566,-0.1647847498563479,-1.3468889087684748,-0.425958318284014,-136.7872,LR
0.6407023347650056,-1.261378866885363,-0.20111607824482808,1.0202687076964903,0.3225635448776195,-0.06556160343894232,-1.1179071155856715,-0.636461523706189,-0.22431294050766704,-1.1344735547101448,-0.6213263688822547,-63.77864,0.18928722638873308,-1.1872833892938486,-0.16016249090024753,-0.08996907699002368,-1.3195622609946758,1.0763809129950281,-1.310274056036172,-0.43423990212244395,-0.16149142337657654,-1.2033864321921874,-0.2536210822079421,-135.462,LR
0.5830767277000286,-1.2450944094645104,-0.20001013056001302,1.0042767443349494,-0.22921465171871303,-0.1462334390875813,-1.1155896078375973,-0.6356209616419625,-0.22473110841548075,-1.1016885022093965,-0.5726229767171083,-63.80321,0.3328728829442223,-1.2992644168340493,-0.24416593543006435,-0.07349454551768858,-1.6756012889990344,0.9253536094205027,-1.3113135083488587,-0.4354312146946614,-0.16021658731989175,-1.3272035265627693,-0.38873154565013746,-136.4739,LR
0.691924416666128,-1.1962410372019556,-0.18121400166448726,0.9083251736600882,-0.3590448162490174,-0.24707306852331834,-1.1137621520021264,-0.6367083445407089,-0.22460511697560348,-1.1144632795388505,-0.6566345288837573,-63.40053,0.30578141712911594,-1.859165732265619,-0.2478191697145393,0.09124841144277994,-1.3040814656549427,0.3967576141216765,-1.3196034261063647,-0.43650268642572904,-0.1575783849248075,-1.7190472817582971,-0.4048057062757176,-135.3728,LR
0.685521765703661,-1.2320663099173623,-0.17679111669728723,0.7164219275631737,-0.4401886890114156,-0.06556160343894232,-1.1124318093460108,-0.6379726157041943,-0.22435545295670517,-1.1185203164211828,-0.6589667221257227,-63.42014,0.286817169124685,-1.0939665033885877,-0.3500842976639225,-0.07349454551768858,-0.5920038152211625,0.3212437768538478,-1.3143204953962766,-0.43588534840849136,-0.15830433323486331,-1.0231011401582533,-0.36454067607842605,-137.1892,LR
0.6791191147411939,-1.3525715616368987,-0.15799453491573162,0.23666373899785276,-0.14807083529448933,0.1159499144854534,-1.1124035642790011,-0.6390737108715251,-0.22397052205450285,-1.1344296259140036,-0.6798651113010535,-63.42737,0.2949443869353611,-1.1779494073416634,-0.21494754115894588,-0.30413515141958264,-0.7777633213182714,0.5477849176962019,-1.3143204953962766,-0.43518286031991044,-0.15719770471343614,-1.2324959082929259,-0.34550634033571687,-136.3324,LR
0.5531965242733335,-1.2939477817270653,-0.17126273693130195,0.6364622155026612,-0.08315574452546175,0.2571254749555149,-1.110299306786844,-0.6377587043142767,-0.22373709006160125,-1.0733629310459527,-0.5657398924486856,-63.60927,0.3301641802304239,-1.0286439188010177,-0.2478191697145393,-0.5677239775142882,-0.6074837994110217,0.1702164732793224,-1.3127584612890233,-0.4347255728997343,-0.15768462126286562,-1.1133738907127868,-0.37030254213952873,-136.9643,LR
0.6342996838025386,-1.2581211749854921,-0.16131147219811687,0.2686476552462155,-0.06692695934313786,0.05544606694308509,-1.1093163784549371,-0.6376695745684778,-0.22329959831331544,-1.0873067811759387,-0.6268004485688854,-63.35447,0.3491273185655742,-1.1219608047062797,-0.18572914688782743,-0.32060938560877167,-0.375284340744335,-0.018567872582828056,-1.3135437617999839,-0.43419338495383963,-0.15760494400932265,-1.266569155337776,-0.37679652777125594,-136.5454,LR
0.6577763620653796,-1.2353240018172333,-0.11045055950546495,0.04476051385037674,-0.01824063568569893,0.2571254749555149,-1.1077572507560498,-0.6380398058202579,-0.22175214516831873,-1.0348203721348253,-0.6559853902306524,-62.75014,0.3111999322259933,-1.131290964389033,-0.2222525137269594,-0.17234042544260242,-0.06568516391582012,-0.09408168511991463,-1.3123758057673198,-0.43289800007220286,-0.15759609098115093,-1.2030074320175377,-0.35654688900318077,-136.5397,LR
0.6727164637787274,-1.2092678027229373,-0.14804327018254632,-0.0032152714870538066,-0.0020118398735307808,0.05571834218560466,-1.1070567730942313,-0.6383442181828327,-0.22094363568297046,-1.0738206407605848,-0.6527922924210304,-63.0886,0.3301641802304239,-1.1686192476589101,-0.28068930226919714,-0.20528920675060797,-0.6229636822071468,-0.1507168157633648,-1.3110565009089101,-0.43286803986191547,-0.15827777415035066,-1.1870498276490609,-0.3865189519741847,-136.8971,LR
0.6833878401166343,-1.3004618315006393,-0.1425148904165613,0.06075237246472529,0.17650459516499128,0.1966216708740628,-1.1068406983316135,-0.6387967230461191,-0.22015754185256967,-1.1024324576279176,-0.678612508996022,-63.17144,0.30307160474603695,-1.1126306450235264,-0.25512414228255276,-0.45240379865612446,-0.4372042775037721,0.43451440910188016,-1.30992852381135,-0.4320165391484841,-0.15801218330520664,-1.1477526005849663,-0.356601005550112,-136.7151,LR
0.7175358947173828,-1.2516084592380845,-0.16462840948050186,0.18868793271098375,0.533537571540478,0.05571834218560466,-1.1068406983316135,-0.6388186626758544,-0.21968835900590963,-1.1257969089432842,-0.6914790184187568,-63.28782,0.3193271500366691,-0.6740366945454787,-0.18572914688782743,-0.6995186063751772,-0.1740449285305421,0.34012223617080495,-1.3044342758728598,-0.4302339066363837,-0.15872042555892152,-0.8904935044233999,-0.32486010458799003,-137.193,LR
0.6791191147411939,-1.3004618315006393,-0.17236823173008717,0.0767444405734587,0.712054006579,0.43863701929992055,-1.1071951739225745,-0.6381234506586232,-0.21923927295334078,-1.1331868661005884,-0.6669307814220239,-63.49385,0.3437099131379774,-0.9726514938962021,-0.2222525137269594,-0.1229176149682672,-0.019245312739976452,0.3212437768538478,-1.3013558978699007,-0.4292578345222836,-0.15905684062943679,-1.107875559820848,-0.3713446722147155,-136.9923,LR
0.6385675349765914,-1.316746288921492,-0.1358810158517908,0.252655629036359,0.4523936987780797,0.35796523649130124,-1.1061642289767522,-0.6374419509099765,-0.21835810582781784,-1.0808322434478992,-0.6475327468308418,-63.17741,0.28952587183848344,-1.0939665033885877,-0.16016249090024753,-0.37003241189664304,-0.3288444895684913,0.45339274476512664,-1.301561503821861,-0.4276762507897434,-0.1577377394318934,-1.2200171861245956,-0.3233479336480305,-136.1424,LR
0.7068645183794754,-1.248350767338215,-0.14693777538376132,0.46055082802009534,0.7445114919048939,0.15628580588976304,-1.1051361085376308,-0.6370059007689912,-0.21755577997142092,-1.1005307658723846,-0.6872547728552686,-63.10514,0.27327143621713185,-1.3925813027393101,-0.24051419714652578,-0.04054601239524964,-0.39076432493419433,0.6421770906272771,-1.3030178793149119,-0.4268476144473208,-0.15559530661440782,-1.3506647687174151,-0.3487309134392806,-135.9894,LR
0.6812530403282206,-1.3590856114104728,-0.1878478762292575,0.6684460374785508,-0.15156811464259473,0.2571254749555149,-1.1045867419843094,-0.6380260935516735,-0.21759365469874595,-1.1700743013377506,-0.6745252884360674,-63.75375,0.3301641802304239,-1.037974078483772,-0.22590425201049877,-0.05702027895646911,-0.09664510187741844,0.9631104044007063,-1.3004249598096376,-0.4259172710752386,-0.15501985978326618,-1.143323389588682,-0.3659191018381129,-136.8248,LR
0.5724053513621217,-1.2092678027229373,-0.22212410250998368,0.5405106448278002,0.5497662610542036,0.3781332152184684,-1.1035953401323,-0.635254844070758,-0.2179909528588499,-1.1087511189825525,-0.5513342738953476,-63.9942,0.32745436784734494,-1.0939665033885877,-0.25147090799807786,-0.6500955800873057,-1.1492824349062232,-0.036804445487644666,-1.300336435024765,-0.4262823125847929,-0.15555989450172344,-1.1577367096634354,-0.3731931388391751,-136.8538,LR
0.7154019691303561,-1.1734425300075304,-0.21106689009198357,0.7004299642016328,0.4037074176400178,0.0756140230811438,-1.103205558207578,-0.6351053803431874,-0.2181223549740594,-1.1504636365055474,-0.6632740131458984,-63.65855,0.4818759449273087,-1.2152776906115417,-0.21129580287540647,-0.20528920675060797,-0.48364412867961587,0.9064752737572561,-1.3040401977982692,-0.42836927775928624,-0.15570154295246594,-1.4238655412556211,-0.49159859733727956,-137.1917,LR
0.6407023347650056,-1.3069758812742134,-0.24092023140550944,0.46055082802009534,0.6958251044683894,-0.34791283005910467,-1.1040698572580485,-0.6334448246176116,-0.21957705368479133,-1.1925190820500315,-0.6183782551698594,-64.28165,0.3464186158517758,-1.1779494073416634,-0.26242761884963073,0.6513751794511777,0.22843402872283544,0.7176909278951058,-1.300356424492317,-0.4276391947401774,-0.1554448051354936,-1.2268250474707356,-0.39545514005955795,-136.8618,LR
0.6727164637787274,-1.3362871042160462,-0.16131147219811687,0.49253475474317726,0.17650459516499128,-0.5294243744035103,-1.1036052259057534,-0.6338452228602772,-0.21986227357015783,-1.1299276328384988,-0.6710456838008743,-63.44249,0.3247456651335465,-1.037974078483772,-0.22955748629497288,-0.09070203856799595,0.321313832468257,0.812083100826181,-1.2977777831781503,-0.42618454768806563,-0.155072977952294,-1.1349429603536956,-0.36259248038890773,-136.8171,LR
0.6044194803758435,-1.411196675572897,-0.19669319327762802,0.5724944668036898,-0.6187051240499377,-0.670600093393631,-1.1036786630799755,-0.6346748151096362,-0.2211067288965542,-1.161841194706122,-0.6199851847567567,-64.01498,0.3382913980410997,-1.3739171611043715,-0.25512414228255276,0.6513751794511777,-0.09664510187741844,1.0575025773317814,-1.2972552013835845,-0.4259629998172561,-0.15370961161389454,-1.377016594293647,-0.4000032492823498,-136.429,LR
0.6385675349765914,-1.2874337319534912,-0.1380924583353908,1.0362606710580313,-0.6349339198621059,-0.5697601997577952,-1.1010222145277964,-0.6360117612966193,-0.22094595454382673,-1.07362933793868,-0.6418455171387142,-63.15189,0.27598013893093026,-1.8218374489957418,-0.2332092245785123,0.3877860296361679,-0.9635228274153803,1.0008674466883314,-1.303903127163629,-0.4262665440530627,-0.15028348971155242,-1.6809209955322997,-0.37700294374312165,-135.2147,LR
0.644971060140446,-1.2906914238533622,-0.14804327018254632,0.1823710904236243,-0.0020118398735307808,-0.731103897475083,-1.1004036475603023,-0.6361776797464911,-0.22108895096331982,-1.088325645834827,-0.6447188899400907,-63.25585,0.3491273185655742,-1.4019114624220645,-0.2697325914176442,-0.05702027895646911,-1.5982013680497378,1.0197457823515779,-1.3063218527373832,-0.42791987460497516,-0.14927424450001167,-1.3920068997089117,-0.41320150198530775,-136.5144,LR
0.7068645183794754,-1.277663324306214,-0.10934461182065015,0.6364622155026612,0.5497662610542036,-0.16640128571469912,-1.0985691304580798,-0.6365314562759694,-0.21995734686527998,-1.0688212603481262,-0.7027178368904228,-62.75593,0.3328728829442223,-1.1219608047062797,-0.25512414228255276,-0.17234042544260242,-1.25764212144777,1.0197457823515779,-1.3048540546914453,-0.4285813645110577,-0.14881388703509738,-1.1800552945751073,-0.3799306489320919,-136.852,LR
0.6492389113144988,-1.2939477817270653,-0.22433509210755387,0.3486072939836933,0.2576484679273895,-0.02522571203463271,-1.0993825883879333,-0.6358540702078979,-0.22077513179405447,-1.1742149446385444,-0.6274855735865543,-64.07252,0.30578141712911594,-1.0846325214364025,-0.18572914688782743,-0.05702027895646911,-0.375284340744335,0.6988124685781486,-1.3033776897308427,-0.4274271079884063,-0.14788431907709704,-1.2003346322784003,-0.3410602794585667,-136.3884,LR
0.6663138128162603,-1.248350767338215,-0.15910002971451684,0.12472023638560846,-0.05069816353096971,-0.4084167662406061,-1.0990634191307336,-0.6362462410894132,-0.2206800584989323,-1.0959437493204776,-0.6513320764742804,-63.27931,0.3247456651335465,-1.131290964389033,-0.2952992474052241,0.7831698083120666,0.1665141933571325,0.3023654411906012,-1.2974179727622195,-0.42653933965199536,-0.14849517802092554,-1.1388347830426395,-0.3833144793023385,-137.017,LR
0.61082213133831,-1.248350767338215,-0.1635229146817169,0.20467982274949004,0.2089621867893276,-0.5899283105850117,-1.0981934710668617,-0.6352342756678812,-0.2209103986773585,-1.0759929905826646,-0.6057124389341185,-63.38776,0.2813986540278076,-1.2152776906115417,-0.2478191697145393,0.7831698083120666,0.2439140129126947,0.03806755482952775,-1.2931259485150517,-0.4248008590287396,-0.14824729323212496,-1.215472012388307,-0.3450695424926305,-136.3819,LR
0.6385675349765914,-1.277663324306214,-0.16020597739933165,-0.0032152714870538066,0.43616490296591154,-0.48908841694917604,-1.0981214461459894,-0.6343717739739199,-0.22102324990571506,-1.094420412034935,-0.6339340532983148,-63.37051,0.3166173376535901,-1.2619361335641721,-0.25512414228255276,0.42073482173485016,0.507073338565366,-0.037446254245254926,-1.2916324497251188,-0.4234865519090264,-0.14833582351383962,-1.2734816659858725,-0.3764115271945178,-136.5195,LR
0.6086882057512839,-1.2092678027229373,-0.1425148904165613,-0.3070621563675628,0.6146814443028762,-0.1462334390875813,-1.0974915811516923,-0.632674195123166,-0.22041029768594336,-1.0394343127875925,-0.6031255729583127,-63.10126,0.30307160474603695,-1.0099797771660792,-0.24416593543006435,0.12419720354146227,0.2903538640885384,-0.09408168511991463,-1.2872833127135177,-0.42180641485317244,-0.1490352127393828,-1.079888942446499,-0.34755735746440414,-136.8358,LR
0.6236274332632441,-1.1180751079714015,-0.15799453491573162,-0.22710244430705026,-0.15156811464259473,0.035278118466829246,-1.0966428168880777,-0.632195636949569,-0.21965744086115452,-1.0325431600251822,-0.5945096068270171,-63.09615,0.3301641802304239,-1.0193099368488325,-0.3646942427999495,-0.27118657513443645,0.2903538640885384,-0.16959517615735345,-1.2826657457090798,-0.42114886708002264,-0.15120420464138104,-0.9863466082957293,-0.3960249099893894,-137.6263,LR
0.6150908567137504,-1.1408736151658267,-0.17015678924648714,-1.1706263971885045,0.5659951631648142,-0.06556160343894232,-1.0980197639047575,-0.6302402674494277,-0.21928178540237894,-1.0495209312047926,-0.5881870793912324,-63.27453,0.3572556460455306,-1.0566382201187106,-0.3208659033928032,-0.32060938560877167,0.38323356644022577,-0.8492188459918371,-1.2802670096028774,-0.4206663500090782,-0.15374502372658141,-1.081902734419266,-0.4091961044188817,-137.4596,LR
0.5531965242733335,-1.2027550869755295,-0.20111607824482808,-1.9862152716607855,-0.3590448162490174,-0.005057759727475439,-1.1014995561602454,-0.6291405435089558,-0.21964198178877695,-1.075241949874444,-0.5408124145330809,-63.77888,0.3978928447681905,-1.131290964389033,-0.4304360039101999,-0.17234042544260242,-0.17279101554008133,-1.7365050736980072,-1.2768688001190927,-0.4220421544025391,-0.15835745140389362,-1.0586253356329196,-0.468634627193848,-138.1287,LR
0.6385675349765914,-1.2841773740797882,-0.13366957336819077,-2.7378371306644422,-1.787176934347849,0.0756140230811438,-1.1062489641777786,-0.6327852644987001,-0.21887521179884825,-1.0677627180669174,-0.6425264898835489,-63.09958,0.3193271500366691,-1.1872833892938486,-0.2697325914176442,-0.5018268249439958,0.42967351900980366,-1.8686537943018646,-1.2777454810531441,-0.4208319195922453,-0.16057070844675045,-1.203598559155611,-0.3769967589949009,-136.7475,LR
0.6385675349765914,-1.254864817111789,-0.16905129444770192,-2.9617237797484766,-2.12798037082207,0.5798126061899919,-1.1119205736331506,-0.6367056020869921,-0.2181957855678532,-1.0965459989449942,-0.6274620440404929,-63.42691,0.25701700059578025,-1.3925813027393101,-0.2697325914176442,-0.7489417405698165,0.30583394967213196,-2.3783717012448657,-1.2816434272257224,-0.4190950158221628,-0.1620757232358924,-1.306514076730189,-0.3430208446445262,-136.0713,LR
0.7111332437549157,-1.2939477817270653,-0.17015678924648714,-3.1376351672310423,-1.657346142656734,0.9630036736059702,-1.1187516430892344,-0.6409358369452919,-0.21719712949226058,-1.1428767082945774,-0.6920852502525734,-63.42481,0.30307160474603695,-1.4112454443742486,-0.06520083951794227,-1.0454790350429002,0.321313832468257,-2.340614040688687,-1.2918209218477488,-0.4172146184133352,-0.16164192485549073,-1.576365029440579,-0.3333270249021182,-135.1048,LR
0.730342070843704,-1.2874337319534912,-0.16462840948050186,-3.5054496960633306,-0.6187051240499377,1.0033396310603044,-1.1256928683066536,-0.643365650938455,-0.21609798944621358,-1.1431629539984647,-0.707916482479041,-63.33416,0.23534294020827035,-1.448569905374696,-0.21860077544342,-0.09070203856799595,-0.003765328550117148,-2.2839794046600796,-1.2944138413530242,-0.4154138520897449,-0.16215540048943533,-1.382517753545098,-0.31899541708771806,-135.5796,LR
0.7260733454682635,-1.248350767338215,-0.16131147219811687,-2.8657722090736155,0.12781820772848687,1.0840114138689239,-1.1313503552285207,-0.6442089554563983,-0.21474841242764972,-1.1248432289496382,-0.6987081254233767,-63.23759,0.3518371309486532,-1.1499551060239717,-0.18207591260335249,-0.847787361518487,0.321313832468257,-2.019680726915258,-1.2981204597647509,-0.4145189879140554,-0.1639879773209183,-1.2943945562199242,-0.37986725526283,-136.4882,LR
0.6641790130278467,-1.1701861721338274,-0.18895337102804272,-2.7378371306644422,-0.15156811464259473,1.0638434351417565,-1.1361830861937312,-0.6441527351552019,-0.21380309015176024,-1.1018698856257219,-0.6275063349507263,-63.47069,0.3735100816668822,-1.224607850294295,-0.3354758485288302,-0.08996907699002368,-0.17279101554008133,-2.0763165994809722,-1.2970724405373975,-0.4153326441513343,-0.16718392049080327,-1.2086698077611904,-0.4351001492477252,-137.3194,LR
0.6663138128162603,-1.3916545262521751,-0.23870924180793926,-2.545932941842796,0.2576484679273895,0.9630036736059702,-1.1427161701928719,-0.6439086567743988,-0.21440212920639157,-1.2291911244803078,-0.6544628901913874,-64.36765,0.3816372994775583,-1.3085945765168037,-0.21860077544342,0.12419720354146227,0.4761133701856473,-2.1518306840562222,-1.299137066971664,-0.4151032120146598,-0.16917585182937467,-1.402972449538154,-0.42106772862850106,-136.5584,LR
0.6236274332632441,-1.3428011539896203,-0.20111607824482808,-2.370022601832154,-0.6349339198621059,0.7411563039072796,-1.147616689318903,-0.6446669452271184,-0.21445237119161875,-1.1532226483148034,-0.6220322552640956,-63.93055,0.41414728038954207,-1.859165732265619,-0.25512414228255276,0.107722645631969,0.22843402872283544,-1.9630460908866505,-1.309394519463898,-0.4165602243465313,-0.16968047443514503,-1.8049473885067917,-0.4881938934417884,-135.9217,LR
0.655642436478353,-1.3916545262521751,-0.17679111669728723,-1.842288439384456,-0.9108230234751942,0.7613241505343974,-1.1511826290287672,-0.646644254356995,-0.2141942046829134,-1.1570983017808105,-0.6627369858593208,-63.71675,0.3166173376535901,-1.3272587181517421,-0.27703756398565776,0.107722645631969,-0.22048480302694465,-1.8686537943018646,-1.3092031917030464,-0.4163749440987013,-0.17127401950600166,-1.3003256261172467,-0.385404151107405,-136.5258,LR
0.668447738403287,-1.36885601905775,-0.19669319327762802,-2.0981596436747267,-1.1704833312761147,0.41846917267280265,-1.1558501263519758,-0.6491878801794091,-0.21444464165543026,-1.1771199134156256,-0.6635729767899722,-63.8779,0.3464186158517758,-1.383247320787126,-0.1966858577393795,0.14067143773065133,0.3522736994542414,-2.1140730235000436,-1.3119703051398441,-0.41571266576603255,-0.17238064802743133,-1.452980674075383,-0.39398626235714357,-136.1244,LR
0.542525147935426,-1.2972041396007699,-0.23096941955835396,-2.3220462927587615,-1.3814570390436454,0.31762941113701626,-1.159992265428819,-0.6496499836307043,-0.21537373190532358,-1.1331542737679683,-0.5409231418086641,-64.26463,0.2949443869353611,-1.3459228597866806,-0.1966858577393795,-0.22176354884656507,-0.375284340744335,-2.1140730235000436,-1.3146146261331086,-0.4150464453004309,-0.1731243023938306,-1.3798110134918142,-0.3523134288461168,-135.9331,LR
0.7004618674170088,-1.3362871042160462,-0.21217283777679838,-2.545932941842796,-1.770947288148141,0.277293453682682,-1.1657881531790302,-0.6535840334875807,-0.2158436877056022,-1.197976172177123,-0.6793557658333723,-63.9564,0.27056273350333343,-1.420575604057003,-0.17477243603627451,-0.27118657513443645,-0.6074837994110217,-2.529398633858259,-1.3185268504967946,-0.41424855759488244,-0.1734518644361741,-1.4379790552220675,-0.33383030878857695,-135.5559,LR
0.7068645183794754,-1.3428011539896203,-0.19116481351164274,-2.3220462927587615,-1.413915268458637,0.05571834218560466,-1.1703327844607496,-0.6568393260495271,-0.21615209619953532,-1.1799129346154424,-0.6913226161419959,-63.73512,0.2841084664108866,-1.2059475309287884,-0.3062559582567762,-0.5018268249439958,-0.4991240114757409,-1.8686537943018646,-1.3175045320134375,-0.4139024383234043,-0.17534641246485913,-1.1507252064324085,-0.35966245591935486,-136.7372,LR
0.685521765703661,-1.3786277607311948,-0.20111607824482808,-2.2420864759510564,-0.6998489968123359,0.39830119394563557,-1.1752149442932251,-0.6585657006643082,-0.2164504562964231,-1.1927812377689395,-0.6777128498819105,-63.92308,0.3247456651335465,-1.2806002751991106,-0.10902917892508857,-0.7159931642846703,-0.2824046383926476,-1.925288430330472,-1.3231958189892237,-0.4131321455483835,-0.17529329429582882,-1.4489304632537496,-0.35108343704372647,-135.6989,LR
0.6791191147411939,-1.3623419692841758,-0.20774995280959832,-2.4179978634336226,-0.29412973929878733,0.6201485636443261,-1.1799869483643666,-0.659277367403841,-0.2166637914952335,-1.1918884912667143,-0.6679688496306139,-63.97423,0.3382913980410997,-1.3459228597866806,-0.18572914688782743,-0.6336215617116527,0.21295404453297617,-1.5477204805284352,-1.3282131753446953,-0.41246907878912803,-0.17566512147902844,-1.4291545735436475,-0.38293566347382085,-136.0885,LR
0.644971060140446,-1.2255522601437885,-0.24202617909032426,-2.338038046625918,0.014216849640194873,0.45880499802708763,-1.1843960033244436,-0.6581995830931038,-0.21726051168900853,-1.169204227762566,-0.6069622730572606,-64.1565,0.3870558145744357,-0.9913156355311405,-0.26242761884963073,0.2559916165888151,1.4358712746258473,-1.8497755822923287,-1.3233614460060803,-0.4110767174373504,-0.17868400408548654,-1.1166491310280464,-0.4150638842932639,-137.4093,LR
0.6342996838025386,-1.333030746342343,-0.22322959730876865,-2.6258927586505005,-0.05069816353096971,0.035278118466829246,-1.1894801153860324,-0.6575784173262287,-0.21818496421718875,-1.1788373876389526,-0.6227353734640475,-64.14024,0.3735100816668822,-1.355253019469433,-0.26608085313410484,1.7222061208071737,3.4173056007534055,-2.8314537356221523,-1.3187096113429806,-0.40798687364481545,-0.18121597014251267,-1.3810781185533292,-0.42809669498131825,-136.6992,LR
0.5916133042495223,-1.4242234410938788,-0.16462840948050186,-3.0256918426890254,-0.39150230157491117,-0.44875259159489106,-1.1937761900780743,-0.6575509927890594,-0.21881260255571888,-1.1258975200570267,-0.6209457438724385,-63.70962,0.41414728038954207,-1.5698810925976499,-0.342779325095909,1.4091934051704522,1.807390084032597,-2.529398633858259,-1.3171989787237193,-0.4077590183613142,-0.18399582098833941,-1.494939387440565,-0.48856033977386426,-136.933,LR
0.7346107962191443,-1.5186738277452856,-0.2740909628874504,-3.185610428832511,-0.5537900470997076,-0.8521116377380366,-1.2029840819229507,-0.6598628812723965,-0.22161610533139556,-1.3395119192282416,-0.7219276351131142,-64.88215,0.3437099131379774,-1.224607850294295,-0.30260421997323766,0.6513751794511777,-0.2978845211887727,-1.3778140993683992,-1.3130840040462932,-0.4082407470056721,-0.18560707211553948,-1.2183654241694044,-0.40518916066540056,-136.9874,LR
0.7751615017823593,-1.453535998061878,-0.20001013056001302,-2.2101029682167446,-0.5375612512875394,-0.5092563956763432,-1.208402898028594,-0.662902891217567,-0.22261321549975047,-1.2556263403517394,-0.762570081615824,-63.94079,0.35996434875932903,-1.3925813027393101,-0.0432874178148373,0.2065688061144798,0.2748738798986791,-0.7359479664363834,-1.3192493269668768,-0.4073624397882992,-0.18350890443891246,-1.6378705353953653,-0.37105244286128786,-135.2937,LR
0.71326804354333,-1.2939477817270653,-0.259716813187065,-1.938240010059317,-0.15156811464259473,0.13611785358260575,-1.212910810723202,-0.6633032894602325,-0.2237254957573182,-1.2424080238870532,-0.6694027678494124,-64.38719,0.32745436784734494,-1.2992644168340493,-0.22955748629497288,-0.27118657513443645,-0.17279101554008133,-0.6037989985251044,-1.321048379046529,-0.4072244651356598,-0.1831724893683972,-1.3379145240359027,-0.3813647374257651,-136.3646,LR
0.6812530403282206,-1.372113710957621,-0.24644861117149472,-1.6024089889613415,-0.7485352779503978,-0.02522571203463271,-1.2163439986181248,-0.664585386572878,-0.2249753617590468,-1.2382277029639377,-0.6609293630854298,-64.40387,0.27598013893093026,-1.196613548976603,-0.24051419714652578,0.107722645631969,0.08911447519530444,-0.7359479664363834,-1.318681054960765,-0.4059070043096007,-0.18298657577679867,-1.2041048355083153,-0.3381117007443513,-136.346,LR
0.644971060140446,-1.2125254946228081,-0.23870924180793926,-1.0746748265136434,-1.0406531773756544,0.41846917267280265,-1.2173650577904938,-0.6653738420164833,-0.22535256312506008,-1.1613310538477082,-0.6055518843845235,-64.09924,0.32203585275046753,-1.0099797771660792,-0.2697325914176442,-0.1229176149682672,-0.9790028116052396,-0.7737047614165871,-1.314540379539346,-0.406443134388428,-0.1841374694390844,-1.0695314899124035,-0.36787502846290704,-137.0775,LR
0.6897904910791014,-1.3460575118633247,-0.20222157304361305,-1.3945140937444631,-0.40773109738707936,0.05571834218560466,-1.219480613309455,-0.6663254734562435,-0.22569034385651063,-1.1854125364807344,-0.6751924202714543,-63.877,0.30036290203223853,-1.2992644168340493,-0.3135609308247897,0.30541475078345454,0.07363438961171091,-0.6604345001296866,-1.3121159426891487,-0.40602053773805835,-0.18442076634056936,-1.2276509284483321,-0.37941113008155386,-136.6958,LR
0.6513737111029125,-1.2157818524965112,-0.21548977505918362,-1.2505862139962094,-0.42395989319924743,0.33779738986418345,-1.2201754419578716,-0.6661170469737601,-0.2257475424243072,-1.1400482606462585,-0.6177941687911596,-63.84654,0.4006015474819889,-1.1032966630713412,-0.25512414228255276,0.32188898497264357,-0.11212507592790431,-0.5849209101692793,-1.309460199142997,-0.406849174080481,-0.18562477817188291,-1.2223307842056685,-0.4308682352777161,-137.2336,LR
0.668447738403287,-1.447021948288304,-0.16794579964891695,-1.3145542769367582,-0.2129859196856104,0.13611785358260575,-1.2217882352840757,-0.6668767066533381,-0.22573440221278646,-1.1710010572305363,-0.6848270773381131,-63.7,0.3978928447681905,-1.3085945765168037,-0.27338582570211833,0.42073482173485016,0.38323356644022577,-0.8492188459918371,-1.3092203255323767,-0.4073923999985866,-0.18657205218622414,-1.3582447722104176,-0.4454789298555748,-136.9462,LR
0.542525147935426,-1.339544796115917,-0.24092023140550944,-1.3465377846710707,-0.9919668962375924,0.31762941113701626,-1.2231637700474056,-0.6663419281785452,-0.22670909672619388,-1.1574950780040216,-0.545810366934705,-64.43936,0.3518371309486532,-1.3925813027393101,-0.2697325914176442,-0.07349454551768858,-0.2514447004310493,-0.9058542239427085,-1.3114934135568241,-0.408023141267795,-0.18685534908771162,-1.3872354572116383,-0.41467811062299825,-136.5446,LR
0.5937481040379361,-1.333030746342343,-0.24755455885630953,-1.2186027062618972,-0.7972216653869022,0.599980584917159,-1.2248316412542772,-0.6661993205852671,-0.2274302624526085,-1.1863293729679398,-0.583614042909658,-64.44534,0.530641471129925,-1.3739171611043715,-0.3500842976639225,-0.30413515141958264,-1.4434015261511448,-0.5094068255940292,-1.3155484198315943,-0.41313451082814295,-0.1891040182432528,-1.4333066053077244,-0.5682168044822747,-137.9018,LR
0.61082213133831,-1.4177093913203047,-0.22544103979236868,-1.10665938171988,-0.9270517129889199,1.0436754564145894,-1.226472679647489,-0.6669932609363058,-0.22757016705762564,-1.1977324382114365,-0.6183630301694669,-64.32552,0.3735100816668822,-1.4952283483273254,-0.28799427483721063,-1.1607997534349044,-1.861360693702409,-0.6226777051494831,-1.3234642489820605,-0.41603749751967467,-0.18907745915873764,-1.4636153058416839,-0.4415183717137488,-136.5685,LR
0.617224782300777,-1.4079389836730276,-0.25087149613869475,-0.8987634390310777,-0.15156811464259473,1.3461947410219486,-1.228211163521883,-0.666230858803011,-0.22783451719528236,-1.2249002730378682,-0.6148294459874271,-64.57598,0.32745436784734494,-1.2712662932469265,-0.18207591260335249,-1.3420169769565924,-2.5889185311135168,-1.0380031918539874,-1.3296467057319716,-0.4180503505950361,-0.18867021986285365,-1.3665573208171091,-0.3689805522073557,-136.1466,LR
0.6727164637787274,-1.274406966432511,-0.2033275207284281,-1.026699564912175,-0.6836202010001677,0.05571834218560466,-1.228626366006912,-0.6670974741775476,-0.22798678905820166,-1.1556571538557914,-0.6486967673154069,-63.78916,0.265144218406456,-1.1686192476589101,-0.47426434331734624,-2.0504119605744595,-2.759198154414501,-1.1323953647850626,-1.3301350198678776,-0.42063717822537733,-0.1910428314127964,-0.9383012652600474,-0.3805228385742233,-137.6185,LR
0.6791191147411939,-1.248350767338215,-0.1955876984788428,-1.4105058476116192,-0.2779009434866192,0.05571834218560466,-1.22967425799294,-0.6672976732988807,-0.22793036344402365,-1.1415801002794408,-0.6514248105675811,-63.65594,0.3193271500366691,-1.3272587181517421,-0.12729086234465412,-2.0339389133597194,-2.4341186892149236,-0.8680969343476622,-1.3410921037244206,-0.42226212542017566,-0.18967946507439443,-1.4603994610761828,-0.35413792957122103,-135.6934,LR
0.6812530403282206,-1.333030746342343,-0.1955876984788428,-1.7463368687095953,0.24141967211522133,0.05571834218560466,-1.2319352756069966,-0.666835569847585,-0.22808804598227517,-1.1700998083806713,-0.6679010291743194,-63.79362,0.27598013893093026,-0.7113649778153557,-0.12729086234465412,-1.8362461607676255,-1.5208014471004412,-1.6043551165570429,-1.3406095008649594,-0.42129472599852713,-0.19065329817325333,-0.9426597672685234,-0.2798018945196616,-136.5581,LR
0.6599102876524062,-1.339544796115917,-0.22433509210755387,-1.6184007428284974,-0.22921465171871303,1.931064803109302,-1.2343714126365073,-0.6668040316298409,-0.22715740982514415,-1.1938652870930693,-0.6440849762873785,-64.13543,0.2949443869353611,-1.3179247361995559,-0.21860077544342,-1.6056062346783704,-1.3350420423970666,-1.8308973702827929,-1.3467776794237636,-0.42158802068870915,-0.19091888901839485,-1.3356094110333665,-0.3553957527406046,-136.1061,LR
0.7004618674170088,-1.4014249338994538,-0.2552943811058948,-1.7623286225767512,0.37124971971723897,1.6083774076747266,-1.2382282765365622,-0.666394034799166,-0.22721692725379755,-1.2661125691080293,-0.6791163180999239,-64.52662,0.2813986540278076,-1.448569905374696,-0.4304360039101999,-0.9631074324698827,-1.0254426627810833,-1.8686537943018646,-1.3498874694471599,-0.42303793718130206,-0.1939112125403378,-1.2048345522624928,-0.3999197551813706,-136.9769,LR
0.7965042544581741,-1.4567923559355827,-0.23981473660672423,-1.730345114842439,-0.15156811464259473,1.4873697995118225,-1.2451045380998607,-0.6687168930973701,-0.22636281350493573,-1.3104296391248162,-0.7699417499877569,-64.35136,0.3328728829442223,-1.4952283483273254,-0.2952992474052241,-0.45240379865612446,-0.9944827957950989,-1.5099640565093637,-1.3535169856269003,-0.4241551376543875,-0.19444239423062334,-1.4216679059145527,-0.4122513700399038,-136.4097,LR
0.7282072710552902,-1.5023893703244329,-0.22322959730876865,-1.6663770519018901,0.939256935352469,1.3663625876490664,-1.2490037696004281,-0.6680792726081939,-0.2262321843433448,-1.2756833784350545,-0.727185796612358,-64.31641,0.286817169124685,-1.3925813027393101,-0.14920578004869464,-0.07349454551768858,0.5225533227552251,-0.49052848993078274,-1.3563326449134665,-0.4220121941922518,-0.19234422655399383,-1.4580490943214492,-0.33856627973857234,-135.5404,LR
0.6876565654920748,-1.508903420098007,-0.20885590049441313,-1.9062554548530808,1.880525391683141,0.922667716151636,-1.252662918031422,-0.6651242787282466,-0.22632957649932378,-1.2437712336253708,-0.699748961813856,-64.215,0.3166173376535901,-1.3739171611043715,-0.13824906919714255,0.2230430403036689,0.8940718279807719,-0.018567872582828056,-1.3585029299619338,-0.41995834293439166,-0.19000702711673798,-1.4819600456385549,-0.3576098926036125,-135.6598,LR
0.7410134471816113,-1.4698204554827305,-0.2165957227439984,-1.650385298034734,2.302473870202628,0.8016601079887318,-1.2559012149639839,-0.6624092495485272,-0.22651740422871186,-1.2638537787516066,-0.7336204354146706,-64.17966,0.3139086349397917,-1.3365888778344945,-0.2332092245785123,0.5195807664038249,1.327510776934427,-0.05632463046691853,-1.3567495680938306,-0.4177073850299041,-0.1887941622572527,-1.350868410602302,-0.37425305006549625,-136.2507,LR
0.6535076366899392,-1.447021948288304,-0.24423762157392429,-1.2186027062618972,2.026584766589539,0.6806523677257782,-1.2581241017375786,-0.658354531728108,-0.2273027251054935,-1.2469808698595595,-0.6524490378667231,-64.52926,0.3410001007548984,-1.3645831791521874,-0.21860077544342,0.7666955741228775,1.1107918094262705,0.22685160392277257,-1.355278914409671,-0.41614156982909406,-0.18732455958079763,-1.4108268039038516,-0.39346365113249504,-136.2544,LR
0.655642436478353,-1.375370068831324,-0.26635114063786514,-1.0586830726464873,2.4160750156940347,0.41846917267280265,-1.2600264070006226,-0.6533070456621752,-0.22848534414237912,-1.2490611109155378,-0.6355977306139481,-64.65076,0.3193271500366691,-1.2526059738814188,-0.3062559582567762,0.8655414108850841,1.033391888476974,0.7932047651629345,-1.3495133808401223,-0.4146088685449176,-0.18630646134108264,-1.2156134303639223,-0.3892155021984067,-136.834,LR
0.6599102876524062,-1.381884118604898,-0.24866005365509475,-1.1546346433213486,2.2051013079265043,-0.005057759727475439,-1.2617804256618703,-0.6489465442523228,-0.22972361583982467,-1.2339240980000379,-0.6449375763093671,-64.46577,0.3518371309486532,-1.289930434881865,-0.371999215367963,-0.09070203856799595,1.5287509769775347,0.9631104044007063,-1.3473202506858806,-0.4135121671630815,-0.18601431141142596,-1.202701969190208,-0.43050797369386096,-137.2923,LR
0.6471049857274722,-1.447021948288304,-0.2917815969841909,-1.186619198527585,1.8480682252525749,-0.3277449834319869,-1.264607756869454,-0.645400551596386,-0.2320927186816904,-1.2954031567286413,-0.6346925351360575,-65.04839,0.3680915665700048,-1.196613548976603,-0.15651075261670813,1.0797076423189904,1.7454699444856911,0.9819887400639529,-1.3440305554545169,-0.4112280953419603,-0.18395155584748332,-1.3716964500509834,-0.38970641658842425,-136.3416,LR
0.600150755000403,-1.3623419692841758,-0.2342863568407392,-1.2505862139962094,1.6857802671308932,-0.5697601997577952,-1.2654748804266243,-0.6412457342153002,-0.23355360102137313,-1.18451837292057,-0.597627963725621,-64.3428,0.3762187843806806,-1.2432719919292337,-0.28434253655367125,1.936371920614008,2.395628874884845,0.6421770906272771,-1.3355950001477084,-0.40901103978069286,-0.18349119838256903,-1.2787367579597524,-0.4271805791511282,-137.017,LR
0.6022846805874292,-1.3623419692841758,-0.2873591649030207,-1.0906676278527239,1.5559505384242032,-0.7916077015565351,-1.2671625231804025,-0.6371649630845705,-0.23605797074654344,-1.2424987155952154,-0.5848182020316218,-64.91331,0.3870558145744357,-1.8498355725828646,-0.2697325914176442,1.5245144472827608,1.8228698654349875,0.8498398958063846,-1.3390474667577061,-0.40851827316412365,-0.18088840810016915,-1.75891866580339,-0.4700231031693934,-135.8937,LR
0.6022846805874292,-1.3460575118633247,-0.26082276087187983,-1.1546346433213486,1.2476032053961237,-1.1949666155996312,-1.2680960226450433,-0.6340138837638658,-0.23830417396300727,-1.2087670683905216,-0.589128261233687,-64.60027,0.4385300434908504,-1.3179247361995559,-0.07981078465396926,0.997335931839205,0.7392726958383186,0.6610554262905235,-1.3410749698950912,-0.4084197198408099,-0.17871941619817092,-1.6108936423669125,-0.4355539551484184,-136.0332,LR
0.6663138128162603,-1.2939477817270653,-0.2696680779202504,-0.8347962140680681,1.052858080843876,-1.0336230499823928,-1.2690041015493772,-0.6319035656287203,-0.2403517280994197,-1.2314669195320103,-0.6287880031655988,-64.54471,0.4249843105832969,-1.3179247361995559,-0.25512414228255276,0.9314385634553765,0.7392726958383186,0.774326058538556,-1.33921023813634,-0.4088825262470914,-0.17812626331068585,-1.4075402501505423,-0.46300805250007276,-136.9624,LR
0.6812530403282206,-1.3493152037631941,-0.31278962124934656,-1.3145542769367582,1.0366294976285928,-0.6100962893121789,-1.2722777048157006,-0.6300716065458392,-0.2428344551232611,-1.303296169454659,-0.6391326988869326,-65.08754,0.4006015474819889,-1.3085945765168037,-0.3135609308247897,-0.09070203856799595,1.4203904792861144,-0.05632463046691853,-1.339550059084719,-0.4085403491085459,-0.17880794647988557,-1.3178388282174966,-0.45620792183142134,-137.1822,LR
0.61082213133831,-1.44050789851473,-0.31278962124934656,-1.202610952394741,0.12781820772848687,-0.20673724316903339,-1.2749906435018972,-0.6292392718427634,-0.24523756792435789,-1.2987389111194931,-0.5989262410318308,-65.30302,0.4195657954864195,-1.2619361335641721,-0.3208659033928032,-0.09070203856799595,1.1107918094262705,0.24573031054715108,-1.339321608026986,-0.40870828397147274,-0.1795427478181131,-1.29008979304218,-0.46950435741238294,-137.4027,LR
0.5489277988978931,-1.4665627635828598,-0.28072483745222065,-0.9627315019716263,-0.09938452970778563,-0.5697601997577952,-1.276254610250543,-0.6281052672308302,-0.24754638038395163,-1.2434708173420828,-0.562949565103996,-65.06081,0.3382913980410997,-1.4579038873268801,-0.21494754115894588,-0.09070203856799595,0.6154330251069126,0.13245943099169732,-1.3429939587800528,-0.40795218287500923,-0.1779934678881151,-1.4831111879600665,-0.39657612567455863,-136.0537,LR
0.600150755000403,-1.437251540641027,-0.2652451929530503,-0.19511851758396834,-0.24544344753088118,-0.5697601997577952,-1.275936853246693,-0.6280559030639261,-0.24939683134754978,-1.2417377554814144,-0.6025594797618948,-64.79498,0.3789285967637596,-1.3739171611043715,-0.3245176416763426,0.552529234782203,-0.40624430912405357,0.5666636243205804,-1.3411606390417399,-0.40938633083587167,-0.17772787704297108,-1.337956949428587,-0.44598066755497845,-137.0161,LR
0.587345453075469,-1.4665627635828598,-0.2619282556706651,0.10872821017575202,-0.14807083529448933,-0.24707306852331834,-1.275020300822257,-0.6277418921133425,-0.2509705649155885,-1.2415407844277488,-0.5984999410208364,-64.81882,0.3951830323851115,-1.3085945765168037,-0.25512414228255276,0.05829983515763378,-0.7622833371284121,0.8687182314696312,-1.3420430312522358,-0.4110656794651391,-0.17681601514131418,-1.375438369685775,-0.43944493487276154,-136.8309,LR
0.5724053513621217,-1.320002646795195,-0.31168367356453175,0.3486072939836933,-0.06692695934313786,0.05571834218560466,-1.2736292312720723,-0.6262499972913553,-0.252752223007106,-1.2406763790843254,-0.546505180588988,-65.14251,0.3464186158517758,-1.2339418322464801,-0.3537375319483966,-0.30413515141958264,-1.25764212144777,0.9819887400639529,-1.3402097115139249,-0.4127789304376267,-0.17665666063422827,-1.1747096950968337,-0.4190298540897831,-137.2656,LR
0.6214935076762175,-1.381884118604898,-0.2563998759046798,-0.19511851758396834,-0.3752736120611856,0.17645374498691538,-1.2729711212107664,-0.6266449106265873,-0.25354681932731493,-1.2244879091773169,-0.6121041709171424,-64.58946,0.3518371309486532,-0.7393592791330487,-0.21860077544342,0.025351366779255674,-1.5053216656980504,0.18909480894256886,-1.3323624176807802,-0.41365960293475895,-0.17755081647954424,-0.9356765476326196,-0.3619755517538937,-137.4364,LR
0.5681366259866814,-1.394912218152046,-0.24313167388910947,-0.03519919821013576,-0.7323065884366722,0.21678964960122993,-1.2713653891513148,-0.6270123994246501,-0.25418218720203356,-1.1896396203158721,-0.5755378722468288,-64.52388,0.32745436784734494,-1.3085945765168037,-0.17842417431981392,-0.024071735043353356,-1.3969621819439721,-0.037446254245254926,-1.334215726886643,-0.4145741777751113,-0.17623171528200085,-1.3989703208282311,-0.3705909060253186,-136.0593,LR
0.6193595820891908,-1.4177093913203047,-0.2785133949686206,-0.17912665896961974,-0.9108230234751942,0.41846917267280265,-1.2714529488590418,-0.6284096795934049,-0.2551924375819092,-1.2587467019357053,-0.6108197345203805,-64.88725,0.3166173376535901,-1.3925813027393101,-0.24416593543006435,0.05829983515763378,-1.2421623400453792,0.1702164732793224,-1.3354522182366244,-0.41545169656589737,-0.17503655647885902,-1.3841610304217538,-0.382314869371169,-136.2265,LR
0.644971060140446,-1.394912218152046,-0.22322959730876865,-0.08317498354756628,-0.47264617433730943,0.5394767808357068,-1.270215814924056,-0.6295299719367538,-0.25508963475059854,-1.2036656598063802,-0.6421583216922359,-64.22912,0.3410001007548984,-1.2619361335641721,-0.18938088517136598,-0.08996907699002368,-0.9944827957950989,0.000310500176531647,-1.3367829456479223,-0.41607061143630825,-0.1741069885208587,-1.3634348119155137,-0.38039295886158875,-136.2732,LR
0.6278961586386844,-1.372113710957621,-0.2674566354366503,-0.16313469560807878,-0.3752736120611856,0.8621639120701838,-1.2698472167995902,-0.6298947182810997,-0.2553910866619617,-1.2362636606590431,-0.6124834118360138,-64.68652,0.3382913980410997,-1.2619361335641721,-0.27703756398565776,-0.5841984275170133,-0.17279101554008133,-0.09408168511991463,-1.338102250506334,-0.4160926873807306,-0.17414240063354305,-1.2689336638900706,-0.3977597318652936,-136.7513,LR
0.587345453075469,-1.3069758812742134,-0.25861131838827983,-0.5149572610788258,-0.6349339198621059,0.7613241505343974,-1.269196168005037,-0.629916657910835,-0.2555302183133592,-1.1867714950452326,-0.5707364607593645,-64.52981,0.32745436784734494,-1.3645831791521874,-0.3391275868123696,-0.7818902089481946,-1.1957219819008644,-0.6226777051494831,-1.3402496904490286,-0.41752210478207413,-0.17492146711262918,-1.273133777765858,-0.40951616513930256,-136.857,LR
0.5788080023245883,-1.4177093913203047,-0.27298501520263535,-0.8507879679352243,-0.9595093046132562,0.7613241505343974,-1.2701607370433885,-0.6307380227990431,-0.25619263956473953,-1.2337668045686938,-0.5799711155429798,-64.86981,0.30578141712911594,-1.1872833892938486,-0.24416593543006435,-0.8148387852333407,-1.3040814656549427,-0.5849209101692793,-1.3411920510621782,-0.4179715079363852,-0.17504540950703074,-1.2186256332445364,-0.3609558413910071,-136.5355,LR
0.6492389113144988,-1.267892916658937,-0.26635114063786514,-0.7068606119229328,-1.1380257396517783,1.0033396310603044,-1.2702595947779196,-0.6323752676680253,-0.2560921555942851,-1.2114382226074956,-0.6112640277136568,-64.4847,0.2949443869353611,-1.3179247361995559,-0.26608085313410484,-0.8642618115212122,-1.5053216656980504,-0.036804445487644666,-1.3438620727994397,-0.4188301044890952,-0.17432831422514414,-1.286248880824458,-0.36598094932031994,-136.3721,LR
0.6321648840141249,-1.310232239147918,-0.2696680779202504,-0.7068606119229328,-1.1542545354639464,0.9630036736059702,-1.270657850222744,-0.6339974290415646,-0.25616404028084067,-1.2207397909259134,-0.6042176207137492,-64.60701,0.3139086349397917,-1.224607850294295,-0.08346252293750867,-0.9960565482888692,-1.6446407122569104,-0.8680969343476622,-1.3495248033930085,-0.41904928708014494,-0.17307118422480278,-1.4233677499814525,-0.33317163310307313,-135.5959,LR
0.6364336093895653,-1.2874337319534912,-0.25197744382350956,-0.6748766851998508,-1.008195585751318,1.0638434351417565,-1.2703824608194079,-0.6352836398347853,-0.2558448104362442,-1.1961963474044337,-0.608418336731176,-64.37408,0.3355815856580207,-1.1406249463412181,-0.22955748629497288,-0.09070203856799595,-1.4434015261511448,-0.7737047614165871,-1.3477514520573513,-0.4200490119918406,-0.17373516133765907,-1.2233518219896145,-0.37744824561501145,-136.6894,LR
0.6236274332632441,-1.381884118604898,-0.2552943811058948,-0.8507879679352243,-0.15156811464259473,0.05571834218560466,-1.2711351918551932,-0.6351424034683655,-0.2566525469679728,-1.2242881040077713,-0.6141097186961383,-64.5753,0.29223568422156243,-1.1686192476589101,-0.23686245886298637,-0.09070203856799595,-2.016160535601002,-0.5471638678816543,-1.3455440437120028,-0.4210794855404098,-0.17373516133765907,-1.2003431173569379,-0.3478093859543974,-136.4581,LR
0.6086882057512839,-1.4209670832201757,-0.2563998759046798,-0.7708282558747118,-0.15156811464259473,1.18485117540471,-1.2718469675438158,-0.6348983250875625,-0.2566108074725532,-1.2310403850920588,-0.6088446367421703,-64.66511,0.27598013893093026,-1.2526059738814188,-0.11633415149310207,-0.09070203856799595,-2.186440158901986,-0.7359479664363834,-1.346931883887732,-0.4214303353714069,-0.1722655586612015,-1.376063437137998,-0.31348944498424647,-135.5429,LR
0.6065534059628697,-1.3460575118633247,-0.2541884334210798,-0.8987634390310777,-0.15156811464259473,1.1445152179503757,-1.2721110589203477,-0.6343717739739199,-0.25645003311982684,-1.2036288162999396,-0.5943615090959247,-64.52412,0.29223568422156243,-1.3365888778344945,-0.0542441286663902,-1.0949021692375396,-1.3350420423970666,-0.6793132067540651,-1.3551247099457007,-0.4210353336515652,-0.1700700076746881,-1.5210423173797127,-0.3174283565073001,-135.1184,LR
0.7154019691303561,-1.4502783061620086,-0.25750582358949486,-1.0746748265136434,-0.15156811464259473,1.26552282611328,-1.2746008615771762,-0.6359308589119708,-0.256263751297676,-1.2909365901016374,-0.6990209299768984,-64.61362,0.30307160474603695,-1.2059475309287884,-0.10902917892508857,-0.9960565482888692,-1.3350420423970666,-0.036804445487644666,-1.3597622664176896,-0.4208918400128204,-0.16829940204040464,-1.372100905461244,-0.32942908733602644,-135.7213,LR
0.6833878401166343,-1.4274811329937498,-0.2873591649030207,-1.282570769202446,-0.5213325617738138,1.205019022031828,-1.2776612145875823,-0.6374158975996661,-0.25662626654493137,-1.3014554111905487,-0.6614871517361788,-64.93258,0.26785292112025444,-1.3272587181517421,-0.10537744064154916,-0.7818902089481946,-1.6756012889990344,-0.6793132067540651,-1.3646168513945272,-0.42062692867975277,-0.16646682520891917,-1.43745580871229,-0.30982420856995857,-135.308,LR
0.7004618674170088,-1.4177093913203047,-0.33932602528048744,-1.570425481227029,-0.15156811464259473,1.1041792604960416,-1.282229854176259,-0.6381385341540661,-0.2579534279085472,-1.3630974315822548,-0.65989129487684,-65.46599,0.3247456651335465,-1.1686192476589101,-0.25147090799807786,0.5031064243078678,-0.09664510187741844,-0.7359479664363834,-1.3600164182194197,-0.42002378234107207,-0.1672547447161745,-1.2128274962442926,-0.3758579922287659,-136.7066,LR
0.5724053513621217,-1.3590856114104728,-0.29067610218540596,-2.2580782298182127,0.939256935352469,0.5193088021085397,-1.2856644543245324,-0.6347858844851699,-0.2589389437726185,-1.2308292434589925,-0.5594215172857351,-64.97553,0.3491273185655742,-1.2526059738814188,-0.2952992474052241,1.6068850786948656,1.033391888476974,-1.0191244852296089,-1.3520006417311958,-0.4188261623561625,-0.16870664133628863,-1.251819260481057,-0.4094512252829852,-136.9241,LR
0.49343699162133037,-1.5219301856189886,-0.33158620303090214,-6.863756764627315,1.2476032053961237,-0.5899283105850117,-1.2992941114096408,-0.6300469244623871,-0.26205858457841735,-1.2878303990970712,-0.5154586366064824,-65.75153,0.4087287652926647,-1.4952283483273254,-0.39756437535460737,3.402586424832367,2.039588832943144,-1.5288422685188994,-1.3396785628046943,-0.4181725567159454,-0.17140681492857493,-1.3764622358292344,-0.49136357690489335,-137.3416,LR
0.4742281645325422,-1.7173450086953745,-0.2862532172182059,-3.3135465547136085,1.6857802671308932,-2.304204124593331,-1.3057113906340456,-0.6252133497863713,-0.2663237426473948,-1.2926115525867639,-0.5479432510806208,-65.5794,0.3762187843806806,-1.859165732265619,-0.2989509856887627,4.63815992389379,2.643307405197783,-2.057438387471436,-1.3310573910134773,-0.41658939613023216,-0.17207079204143122,-1.7249359262629356,-0.46841274935143057,-135.9887,LR
0.4230052084300327,-1.7303717742163562,-0.2785133949686206,-3.3775146176541573,1.0366294976285928,-2.566387055446208,-1.3110949004059274,-0.6211572607390936,-0.27056107438609356,-1.2644546113181838,-0.5125326683492039,-65.56837,0.5225131436499686,-1.6911961020900335,-0.13459583491266763,7.998919452876495,0.10459435799142949,-1.6232345651036852,-1.3120074284367254,-0.41912261075269047,-0.17253114950634552,-1.9080354360116214,-0.5369760950325012,-136.0564,LR
0.5980168294133764,-1.4893612707772848,-0.31500106373294656,-3.121642365891962,-1.4463724348892029,-2.163027480902865,-1.317250912760501,-0.6234129289212346,-0.27428207310738056,-1.3104225538351169,-0.5969234614347243,-65.41581,0.30578141712911594,-1.448569905374696,-0.08711575722198277,2.282331809747891,-1.3505218237994576,-1.7931397097266146,-1.3090261421333025,-0.4193102562802801,-0.1716015815483452,-1.5837611895652812,-0.3428600411907882,-135.1795,LR
0.6961931420415685,-1.5121597779717115,-0.23870924180793926,-2.7378371306644422,-3.2315367852744235,-2.263867374538701,-1.321939593883966,-0.6310355790273254,-0.2766457652739146,-1.2811673926630063,-0.6992645299831809,-64.53027,0.23805275259134934,-1.5698810925976499,-0.21494754115894588,2.4964986886224056,-2.759198154414501,-3.020238328791724,-1.3038431587609742,-0.42060721801508993,-0.17210620415411557,-1.479646447557481,-0.32819986862716394,-135.3636,LR
0.8413245595982171,-1.3525715616368987,-0.2674566354366503,-1.9062554548530808,-2.0630660379609376,-2.828569986299085,-1.3255563747144459,-0.6376764307027704,-0.2791362218339445,-1.3286955159719223,-0.781439393466098,-64.43525,0.17032408805358307,-1.551220773232141,-0.03233070696328441,3.666174603486464,-1.1802422004984736,-3.8131318889519763,-1.2958473717403023,-0.4183680865093999,-0.171247460421489,-1.5938046941935098,-0.23492536143031598,-134.0127,LR
0.8477272105606836,-1.4828485550298787,-0.2774079001698354,-1.6024089889613415,0.07913192659042492,-3.81679988712988,-1.3298764577134452,-0.6408535633337854,-0.28307751233661177,-1.3839026762579116,-0.8061384963758127,-64.74883,0.2515984854989025,-1.737854545042665,-0.17477243603627451,4.48989062921664,0.5380332055513504,-3.7187395923671906,-1.2861182123190773,-0.4163662714062497,-0.17190258450617357,-1.6588569629767365,-0.34062193542842495,-134.9129,LR
0.6769851891541678,-1.3460575118633247,-0.27298501520263535,-1.1386428894541922,2.075270516235389,-3.635287814385277,-1.3306574338162391,-0.6370045295421328,-0.286635417844315,-1.2568393419484132,-0.6457638786034048,-64.6534,0.23805275259134934,-1.3645831791521874,-0.2332092245785123,3.9956614454056063,1.9776697073335805,-2.340614040688687,-1.271394541648153,-0.4123129703249989,-0.17269935704160316,-1.3065310468872644,-0.3187990513317111,-135.8201,LR
0.8050417052090549,-1.3916545262521751,-0.26635114063786514,-0.6588848265855022,3.2275137433180174,-3.0100820590436874,-1.3317971222700447,-0.6332898759826074,-0.28938404091305137,-1.323279520525093,-0.7589105451578089,-64.52369,0.3139086349397917,-1.2432719919292337,-0.17111920175180043,3.60027809835678,2.1479493306345643,-0.8869756409720407,-1.2602318518396507,-0.4090480958302588,-0.1723186768302318,-1.344849661560098,-0.354321152737259,-136.0655,LR
