xa_S1,ya_S1,za_S1,xgb_S1,ybg_S1,zbg_S1,tilt_x_S1,tilt_y_S1,tilt_z_S1,tilt_accx_S1,tilt_accy_S1,tilt_accz_S1,xa_S2,ya_S2,za_S2,xgb_S2,ybg_S2,zbg_S2,tilt_x_S2,tilt_y_S2,tilt_z_S2,tilt_accx_S2,tilt_accy_S2,tilt_accz_S2,Posture
2.1426319486753966,1.5236801125039834,-1.5840286671792798,0.2364999450789615,0.3415739645065685,1.8470538831255943,1.0698898384654563,-2.528377662710484,-1.851068907154717,0.9614857275519454,-2.383493348482471,-1.8326447187603878,-1.0236901936242286,-1.9111667969223791,0.7803839484844076,0.8839373095124622,1.6732599000802664,0.7514451884423486,-2.1085001038689124,-0.19384585393811737,1.001940788971666,-2.1149612602371826,-0.1616697077423738,1.0307864187615843,LB
2.1761323225817804,1.5236801125039834,-1.5936407738104736,0.2136490724148978,0.8685283242031342,2.1724109018392532,1.0685308207136586,-2.52585627705865,-1.850387749641342,0.9882658770821963,-2.443692452622703,-1.8374854876246491,-0.951080615860588,-1.938505174431852,0.7917929716327915,0.9050905390444046,1.6732599000802664,0.5927846379462164,-2.108612176610796,-0.19294832159449637,1.0028373583963708,-2.1471364240026896,-0.2093824684547106,1.036524373061038,LB
2.1560321092153445,1.5257134550096985,-1.6077761566226108,-0.4718808493559337,0.3635302942918661,2.852702092730521,1.0673263545359215,-2.522988818866368,-1.8498573401022382,1.0236023042015376,-2.4013023324188048,-1.8515284549862,-0.9337926548748019,-1.9402138886383002,0.7849475110122827,0.5666394207470511,2.378892751811288,0.40768080670435053,-2.109231277239154,-0.19171801915813852,1.0035930458920164,-2.1604721116355328,-0.21762962475757874,1.0324821009143104,LB
2.1533520880847496,1.5267299180562786,-1.5953369734289893,-0.7003907733882252,0.5391817954622786,3.0597468166210784,1.0654432428989005,-2.520039690349674,-1.8491622244430976,0.9961002295182804,-2.400497445103238,-1.8427498586002338,-0.9908427845045571,-1.9487571097393082,0.7820952552251866,0.12242229334341666,1.652506232567152,0.16969006756232513,-2.10983282430553,-0.1906121673255685,1.0042067941833386,-2.143937802437075,-0.1919966804061116,1.0289510115558504,LB
2.125211811326529,1.5287632605619936,-1.5732856836041733,-0.3347748650017674,0.7367897702326608,3.1189018984894625,1.0628227734727842,-2.5160108539398767,-1.8481432798021888,0.9440759597511078,-2.3540549226384426,-1.8286985306706969,-0.9787417783078625,-1.9453400312576443,0.7992087899477626,0.016656353513851592,1.5072278412136406,0.16969006756232513,-2.110274363903072,-0.18969502048461118,1.005031204571208,-2.133145491319169,-0.1991809236809502,1.0399073011368745,LB
2.1774723331470778,1.5450295841951596,-1.6083417108919194,0.12224496809542003,1.2417878001439286,2.852702092730521,1.0631094277889197,-2.513402032999555,-1.8478864499200969,1.0671917658862713,-2.443616158743605,-1.8627817794962096,-1.049622135102908,-1.9666980840101644,0.769545283030486,0.33395417300254676,1.3827044767540992,0.011029638309235191,-2.1105869523337484,-0.18825707492128163,1.0053774622204894,-2.1384974465168245,-0.16784415002537212,1.01868016563109,LB
2.169432269755293,1.5338464086200039,-1.5992949269353285,0.2136490724148978,0.7367897702326608,3.1189018984894625,1.062562021655095,-2.5110308858054617,-1.8473029994270829,1.021967204033989,-2.4303401498530004,-1.8491707748139692,-1.0738255637296867,-1.9350880959501875,0.785517868706745,0.8416309890020088,1.6317512056731827,0.3283506180584575,-2.1097956917705694,-0.18623745805763967,1.0060313869718809,-2.1018151955283773,-0.14654958503498797,1.0308109365539044,LB
2.185512396538863,1.5368962141722993,-1.6377433534601054,-0.014860926454372165,-0.6025529621454029,2.852702092730521,1.063753536583609,-2.510232700324742,-1.847381165043372,1.1178393812447283,-2.446837193682787,-1.8787811197666329,-1.0513513560715038,-1.9632806555972682,0.7775316926973116,0.9685500890868006,2.150599690405319,1.1216528509260806,-2.109493230394883,-0.1842868301156629,1.0067093647355505,-2.1299988304836286,-0.16685787968247578,1.0237999024790287,LB
2.178812343712375,1.5389295566780143,-1.599860481204637,-0.8831982037226052,-0.029907099200566903,2.3794556257298103,1.0625223044908114,-2.5089716581070625,-1.8470238365117657,1.0349179210090986,-2.4484607763699326,-1.8521164816012596,-1.0288764402966257,-1.9436313170511963,0.769545283030486,0.672405429853332,1.6940135675933807,1.8620678294848514,-2.1095377894368363,-0.1827643393051948,1.0074856690988634,-2.1364102447230597,-0.16957533348342085,1.021093454565489,LB
2.1841723859735653,1.5480793897474545,-1.6004258038792405,-0.8146457354043709,-0.029907099200566903,2.1724109018392532,1.0617944442844798,-2.5079577232131913,-1.846836797358503,1.0559398990325555,-2.4595600937981232,-1.8580859271437167,-1.0340633950857172,-1.9521745381522042,0.7763907436509947,0.48202664117271277,1.2581816560468992,2.285162746277435,-2.109645136219725,-0.18162196392586094,1.0084081417675599,-2.1327844654673536,-0.1711189440541705,1.0244083655400507,LB
2.123871745874258,1.5297801400211286,-1.6072108339480073,-0.6546888783861411,-0.5586400149454638,1.728742169507856,1.0606892710174523,-2.5050482506615057,-1.8467362987089886,1.027573754028934,-2.341677923065454,-1.8562187336267015,-1.0461644012824118,-1.941068070775908,0.7860884600585996,0.016656353513851592,-0.07454092474708618,2.2587196387360478,-2.1097329040296335,-0.18130272107266646,1.0094062096177028,-2.11515628167863,-0.16246033754690398,1.0311085772800281,LB
2.204272599340001,1.5490958527940348,-1.577243637110513,-0.08341405333801648,-0.22929348620460824,0.7230941536380511,1.0596108636654855,-2.505242861873045,-1.8464683023102835,1.005638600990935,-2.5071873999043017,-1.8385444929029564,-1.0841980570744805,-1.9299619533308434,0.7701156407249482,-0.0679565369032322,0.7808417297837612,2.126502368985649,-2.1097207515636462,-0.17985801188956563,1.010200223341704,-2.107359472908776,-0.13729195543602402,1.0216934813968954,LB
2.1774723331470778,1.554179000852045,-1.5953369734289893,0.35075490709510726,-0.14146777876380356,0.07238075553663315,1.05993291806283,-2.5042037707722957,-1.8467530484839074,1.0560475847654025,-2.4495916386786667,-1.858807722846563,-1.0841980570744805,-1.9214187322298353,0.7849475110122827,-0.004496959150149989,0.46953304675873586,2.390936908486447,-2.1093521267620288,-0.1786486766744983,1.011234767188489,-2.0917712538864763,-0.13624047158033914,1.031530388760806,LB
2.1211917247436634,1.5612954914157704,-1.606645279678699,0.7620725608096925,0.165922319521484,-1.1698901644838213,1.061310930980155,-2.5007194614238695,-1.847657536329536,1.0916881163943035,-2.339952440420659,-1.8769250736735994,-1.0824695442225796,-1.9299619533308434,0.7706862320768029,-0.681399181889514,0.17897843906108152,2.126502368985649,-2.1097929912225712,-0.17771529714609052,1.011999705842703,-2.1076152276710896,-0.13822511374273153,1.02207284809742,LB
2.1654121831724273,1.539946436137149,-1.6168229405792016,0.7620725608096925,1.1539621933733943,-2.737517076421793,1.0623245820860072,-2.4979717572580777,-1.8486736893412923,1.074857267093251,-2.4174457851434035,-1.8669592766335312,-1.1274186676556406,-1.9000606794773145,0.7678339762897068,-1.1256161707397168,0.7600877903944758,2.708257663070019,-2.109942871636416,-0.17569297483454024,1.0128822663701464,-2.077614991607265,-0.10424282284155245,1.0221970188520737,LB
2.194892525382919,1.5267299180562786,-1.5930754511358702,0.8534766501617747,1.6150479951580834,-3.7135875513574055,1.0618048052838582,-2.4961117702120665,-1.8492850561258374,0.9954902975274349,-2.479696783885395,-1.8373154894089216,-1.0599953365643966,-1.9479029276017004,0.7427340319003053,-1.5486800686114084,0.6770721687754194,2.8933611479031924,-2.111769792356521,-0.1747345699129795,1.0134196265235735,-2.1464238197045273,-0.15212634883479967,1.0037912748883406,LB
2.2002525676441085,1.5460460472417394,-1.5930754511358702,0.30505271274510937,1.8346112930110592,-4.364301201314481,1.0616502537097974,-2.494350049599171,-1.850264917958602,1.0364022611506611,-2.492564056839527,-1.8494717552614877,-1.0669100960886946,-1.9350880959501875,0.7712565897712651,-1.8448255591654676,1.1544120950385572,3.4486733344461746,-2.1131592243010804,-0.1733608787374751,1.0144406901107297,-2.1158169252467176,-0.14789284893758278,1.0222378818392743,LB
2.1774723331470778,1.5460460472417394,-1.5857248667977952,-0.35762588733978784,1.6150479951580834,-3.950209816182156,1.0605312657769321,-2.492011046447199,-1.8510661155255637,1.0161952487533907,-2.452113706326871,-1.8458683504592481,-1.016775434099931,-1.9316706675372914,0.7706862320768029,-2.0563564689505758,1.2789354594980993,3.5808906041965733,-2.1150550089951143,-0.1723950338341662,1.0154879212606944,-2.1349445472461577,-0.17131122307125854,1.0230807139043032,LB
2.2123127176187594,1.5429962416894445,-1.6009911265538443,-0.9517512707366667,1.9224374750402815,-3.979789294467559,1.0596108636654855,-2.4906340935124134,-1.8519901447752645,1.0500938559677588,-2.5116357787587744,-1.8524174620487788,-1.0720970508777858,-1.9632806555972682,0.7718271811231197,-1.8025182687809922,1.1544120950385572,3.4486733344461746,-2.116556513681557,-0.17122966214761062,1.0164225525949384,-2.126153736458128,-0.15589663109994067,1.0199785540953588,LB
2.1761323225817804,1.5429962416894445,-1.6038182031162715,-0.4718808493559337,1.8346112930110592,-3.6248549285548286,1.0591895163574314,-2.4880920063986696,-1.8528806744751276,1.0523233813806228,-2.442488617359734,-1.8580942877117037,-1.09629977138787,-1.977804201455229,0.7718271811231197,-2.0352035165254962,-0.07454092474708618,2.57604039331962,-2.118035063710024,-0.17085631033624746,1.017069605057107,-2.123028669692229,-0.14944385485514347,1.0182783901956491,LB
2.174792312016483,1.5196134274925532,-1.6089070335665228,0.007990006079274253,1.5052656271582356,-3.684010010423213,1.058421075570201,-2.485637791313116,-1.8535925399091873,1.015712816670236,-2.4351898362593825,-1.8468465369136844,-1.0928420375673737,-1.9658435519413249,0.75243174830791,-1.6967521211212793,-0.07454092474708618,1.8091816144020767,-2.1195527716844498,-0.17038150422831824,1.0173569196103658,-2.1337750934121473,-0.14401903181708672,1.0076247503520834,LB
2.1667521937377248,1.5287632605619936,-1.5806362679422488,0.030840923645524994,1.1320055759587528,-3.0628739014003306,1.0566994228401598,-2.483487110320964,-1.8538465781621258,0.966488375957085,-2.4312412565968455,-1.8313181753065089,-1.0720970508777858,-1.9709696945606692,0.7410227251595262,-1.6121403114209631,1.1544120950385572,2.047173046361487,-2.121366189664569,-0.1692289834193279,1.01755092962149,-2.1531146072199423,-0.15454193802500144,1.000595525657099,LB
2.196232535948216,1.5053808627776573,-1.5970334046422094,-0.24337092532364213,0.7807027174325998,-3.0037188195319455,1.0546729840450713,-2.482621404882201,-1.8539861596197853,0.9611075352581867,-2.4776839538471593,-1.8264467510262963,-1.0565376027439004,-1.9752413051111732,0.7621294647155149,-1.442913920951696,0.8015956691730467,1.8620678294848514,-2.1228663440770124,-0.16859929041864125,1.0179545444538969,-2.1453090258592966,-0.16657013346109928,1.0133141963312473,LB
2.2029325887747038,1.5348632880791389,-1.5992949269353285,-0.7003907733882252,0.5391817954622786,-2.145960445684313,1.0536403377736923,-2.482305292685361,-1.854346279780545,1.0280337874796568,-2.493521968877088,-1.8467239152498802,-1.1014860180602666,-1.9692609803542211,0.7547136464005437,-1.3794547865695954,0.3242557429099087,2.0736161539028743,-2.123985721221852,-0.16782485595485364,1.0183023880160758,-2.130089255650251,-0.14138225452680805,1.0085719807586044,LB
2.1922125042523235,1.5257134550096985,-1.5896828203041344,-0.7917944137184368,0.4952688482623395,-1.4360907451832479,1.051688152807482,-2.4816807549104487,-1.854298822084941,0.9849698321712156,-2.4758147101128842,-1.8342220792538664,-1.0046737197865419,-1.9735325909047252,0.7706862320768029,-0.6179396318471182,-0.3191152906532564,1.4654174058684248,-2.1251104994626853,-0.1685661486817628,1.018726884034966,-2.158687226816746,-0.19254931450417598,1.0195330157187872,LB
2.1895324831217287,1.5196134274925532,-1.5908136972480462,-1.1802611947689583,-0.6025529621454029,-0.9332667372483452,1.0493085766169132,-2.4818879442254267,-1.8540754917526867,0.9747086740596922,-2.4694690344483177,-1.831382272994406,-1.0790118104020834,-1.9538832523586525,0.7512907992615933,-0.1525692472008547,0.17897843906108152,1.756295399319302,-2.125396757550388,-0.16800747368867236,1.018953933898121,-2.1348608702262983,-0.1461730946518785,1.0081894504719742,LB
2.214992738749354,1.5348632880791389,-1.6117341101289502,-1.1574098730830242,-0.9758124380861977,-0.016352642206428274,1.048604892075798,-2.483288830495922,-1.8541536573689759,1.058406333057683,-2.511018611090747,-1.855117925508461,-1.1568076348381213,-1.9615719413908201,0.7421636742058431,0.0801159312669338,0.09596281744202519,1.967841991693863,-2.1250848442567114,-0.16677649489033744,1.0190998378846883,-2.1133255094618555,-0.1098041236434863,1.0006659154479536,LB
2.182832375408268,1.5246969919631184,-1.638308676134709,-1.0888575544387467,-1.6784187303971916,-0.0755087121239305,1.0486212969914808,-2.483972415478644,-1.8545724017419518,1.093973638388248,-2.440247779611801,-1.8715882444421312,-1.1101299985531599,-1.9470483955328601,0.7250499058258748,0.33395417300254676,-0.0700684842494642,2.3116058538188224,-2.125082818845714,-0.16599191499689336,1.0191846842247034,-2.138431989493225,-0.1247729778933727,0.9921985772356932,LB
2.193552514817621,1.5460460472417394,-1.6021220034977561,-1.2031125164548926,-2.1834167603084595,-0.22339761795264304,1.0478597635371696,-2.4857161424157868,-1.8547231497162235,1.0567522802011533,-2.47631660673105,-1.8571634778091917,-1.1637231024791137,-1.944485499188804,0.7758203859565324,0.5666394207470511,0.3242557429099087,2.443823123569221,-2.1237149912851327,-0.1645316494883192,1.019869269958779,-2.0776541308584897,-0.10469393899702836,1.0224419331431003,LB
2.1868524071041606,1.5836614261535267,-1.584594221448588,-1.0660062327528124,-1.6345049203092206,-0.46002104518811926,1.048048851775825,-2.4868261600442603,-1.855158643864119,1.0945275737980127,-2.4756540822208093,-1.8692918751018022,-1.1395196738523352,-1.9231274464362833,0.7484385434744972,0.4185670911303169,0.5525488043158777,2.6553714479872443,-2.1229122533929647,-0.16295775516759098,1.0202588758939248,-2.098109113326193,-0.10438131751819638,1.0080476163615626,LB
2.2417930049422776,1.5572292228168951,-1.5975987273168133,-1.134559299766874,-1.4808101803681215,-0.7853776764315358,1.0477414754609329,-2.4897751138650728,-1.8553931407129856,1.0759565230541532,-2.5708444607548886,-1.8558982451872144,-1.1464351414933276,-1.9479029276017004,0.7632704137618317,0.735864979895728,0.8431035479516176,2.3116058538188224,-2.1218279833720897,-0.16133719187044224,1.0207396718206754,-2.0956770812328434,-0.11260359856360883,1.0148345630872753,LB
2.2096326416011913,1.5572292228168951,-1.6145611866913776,-0.677539451702291,-1.0416817150714344,-0.016352642206428274,1.048522004080771,-2.49091762492743,-1.855789552052736,1.110583085822567,-2.5030436722096625,-1.8723908589688478,-1.1550791219862209,-1.9624264734596604,0.746727236733718,0.3762606320664318,0.9883807158623593,2.4702662311106085,-2.121330407403605,-0.15962329062045288,1.0210169422589166,-2.1110925476980116,-0.11159783139730171,1.0033952993607607,LB
2.213652728184057,1.537913093631434,-1.6179538175231134,-0.3347748650017674,-0.8660302139010218,-0.5487544429311807,1.0489390343057508,-2.491947981234124,-1.8560798814846666,1.0787382609050564,-2.5064155470518488,-1.8619652306895147,-1.1810110634649,-1.9735325909047252,0.745015929992939,0.735864979895728,0.8638573514028175,2.2322765311946604,-2.120500664031466,-0.15786136767008907,1.0211871635765786,-2.106815572279686,-0.10300914453261269,1.0009917648168545,LB
2.2002525676441085,1.5419793622303093,-1.615126740960686,0.14509590062906644,-0.3610321839897537,-0.3121315969010677,1.0497610069231027,-2.4920430157934392,-1.856353461141678,1.0790690714763624,-2.48321661466952,-1.8638017687905788,-1.2052144920916785,-1.9547374344962603,0.7353182135853342,0.9685500890868006,-0.07454092474708618,1.8091816144020767,-2.1192881179807235,-0.1564132766771028,1.0211641678395655,-2.095218882067642,-0.08271295136172485,0.9962521855659666,LB
2.229732854967627,1.5440127047360244,-1.6043837573855801,0.1907977507289636,-0.9977687678714952,-0.46002104518811926,1.050270422725873,-2.493900207705353,-1.8564539597911918,1.0623588301960987,-2.543025772316585,-1.8538638403104664,-1.1343334271799381,-1.944485499188804,0.7438749809466222,1.3070012073841542,-0.07454092474708618,2.047173046361487,-2.1182234269328277,-0.15563275495552123,1.0213407328088175,-2.1134773427640208,-0.11448537817490145,1.003523951862398,LB
2.214992738749354,1.5338464086200039,-1.6026875577670643,0.12224496809542003,-0.800160936915785,-0.34170933157038114,1.050171129815164,-2.4949759849411315,-1.8563981272081287,1.0353857078325857,-2.5146157844670842,-1.8474903006486552,-1.1775533296444038,-1.9248361606427313,0.7455862876874012,1.49737971895791,-0.07454092474708618,2.3380489613602093,-2.116480223200636,-0.15429491096480336,1.0216182675658751,-2.0853571403883397,-0.08599446843307874,1.0054882752019445,LB
2.214992738749354,1.5572292228168951,-1.5862904210671036,-0.42617865500593577,-1.1953768864565493,-0.46002104518811926,1.0498447583347448,-2.496522742272341,-1.8564148769830475,1.0458251935177039,-2.525072153363176,-1.8500151921806187,-1.1429774076728314,-1.9504658239457562,0.746727236733718,1.8781370192122855,1.2374275807195283,3.4751164419875624,-2.115095517215072,-0.15263038413914287,1.0220758034367958,-2.1105715907679166,-0.11293840608287417,1.004609852793225,LB
2.2310728655329246,1.5663786394737806,-1.584594221448588,-0.7460926683903094,-1.2173332162418469,0.04280296274678338,1.049579689433981,-2.4987850539325125,-1.856389752320669,1.0634089814628225,-2.557968710703078,-1.852977620103883,-1.1810110634649,-1.9675522661477731,0.7575659021876396,1.8358311143621273,0.4902871220861068,2.9198042554445793,-2.1133644659488677,-0.15127089656515766,1.0225412688722042,-2.0949462569384214,-0.10247331804093698,1.0090826362825207,LB
2.219012770445247,1.554179000852045,-1.6060799570040953,-0.9517512707366667,-1.6125487343385951,-0.5783327588058573,1.049598684599508,-2.5006704592292226,-1.856696831527518,1.086043661021396,-2.5237212360858643,-1.8629601382799248,-1.1775533296444038,-1.9598632271843721,0.760988515669198,1.5819929141925437,-0.04931455437584473,2.81403182527903,-2.111756964753535,-0.15031790253941357,1.0230294657258097,-2.0902913853013723,-0.10170084045130676,1.011870019273935,LB
2.1895324831217287,1.5287632605619936,-1.613995864016774,-0.5632844896861453,-2.205372946279085,0.014230713355838028,1.049183381207758,-2.5018125335518766,-1.8567191645607435,1.047965124400839,-2.4619427699948258,-1.8553687425480605,-1.1775533296444038,-1.9436313170511963,0.7775316926973116,2.2377413670415813,-0.8587168991461652,2.3116058538188224,-2.1093143190900685,-0.1498992344755843,1.0236249760188105,-2.0704066212351355,-0.09789223684359924,1.0233034830925887,LB
2.204272599340001,1.55214565834633,-1.6134303097474658,-0.49473172201999743,-2.6664586042491023,-1.0220005224616489,1.0498136753366096,-2.5039598079743475,-1.8572272410666217,1.0967743289281322,-2.4927809656687607,-1.8687540118946624,-1.16718083629961,-1.9419226028447483,0.7735384878638987,2.8300309626153815,-1.3360566894712178,2.734700770611406,-2.106623223010859,-0.1499141144390808,1.0242614557283298,-2.076795091775572,-0.10169747893002887,1.0212226343314774,LB
2.185512396538863,1.553162537805465,-1.5806362679422488,-0.2662217979877058,-2.8640657161314524,-1.6431358565440473,1.0490849517136633,-2.505793590638195,-1.8574003220741186,1.0199900939789184,-2.4704170711040474,-1.8458181870513282,-1.1447066286414267,-1.9222732642986755,0.7592772089284189,2.9569500627001735,-1.7718883291415282,2.6553714479872443,-2.1041096879624663,-0.15027596809683308,1.0247359080034903,-2.0874848310626826,-0.10305956735177917,1.0146674202880173,LB
2.1667521937377248,1.5297801400211286,-1.5919445741919582,-0.2890726706517695,-3.149500448189745,-1.4065133979841766,1.0477129827126426,-2.508470280928322,-1.8575817779690749,0.9958056013532112,-2.427362503749199,-1.8409718444750758,-1.0219616807723282,-1.9103126147847707,0.8060542505682715,3.020410305509728,-2.0209350580606116,2.443823123569221,-2.100569944675138,-0.1528380272661146,1.0260886917050343,-2.0942835889263045,-0.1660228777970791,1.0466328215656988,LB
2.1319118641530164,1.5429962416894445,-1.5857248667977952,-0.38047676000385167,-2.57863242221988,-0.0755087121239305,1.046650980276358,-2.5076939324327387,-1.8574477797697226,1.0048779089741036,-2.3646925441178666,-1.8476630857203793,-1.008131453607038,-1.9205645500922275,0.7849475110122827,2.131975219381869,-1.4813342651962158,1.8620678294848514,-2.0995592645871857,-0.1542780019153756,1.0266879024614628,-2.1218517928967797,-0.1735419285911833,1.032994865495631,LB
2.103771587394796,1.554179000852045,-1.5710241613110545,-0.1748177086356237,-2.1175467642498633,0.013225156008004885,1.045466372680763,-2.505697682599474,-1.857257948987307,0.9902059432451675,-2.3158988942425713,-1.8455172066038097,-1.0202324598037327,-1.9188558358857795,0.8003497389940794,2.131975219381869,-0.9832403995437925,1.3596435900681059,-2.0981009686686987,-0.1553053957586013,1.027378303209496,-2.10365001663321,-0.1691746401471112,1.0423593440010703,LB
2.102431521942525,1.5633288339214855,-1.573851237873482,0.30505271274510937,-1.3490719140269922,1.0484509786165885,1.0452401575276682,-2.5030056190718106,-1.8570262437675926,1.0165165829802059,-2.313415104623056,-1.8541090836380745,-1.0029444988179466,-1.9051864721654264,0.7986384322533003,1.920444309596761,-0.6096700342889964,0.3547940720085373,-2.0968620922749825,-0.15610485561554188,1.027841125456742,-2.1055658154991965,-0.1724648971737874,1.0429403893158415,LB
2.1091316296559857,1.553162537805465,-1.5755474374919973,0.8991785451638589,-0.6684222391306396,1.5808527212208043,1.0451823086144723,-2.49999001877236,-1.8565656249573192,0.9995832168614833,-2.3249351307957786,-1.8480839009757062,-1.0617238494162975,-1.9128755111288274,0.8128997111887803,1.5396870093423856,-0.13233018958870962,0.09035986159599749,-2.0952923987516114,-0.15605480482923595,1.0283734635526602,-2.074172087128834,-0.14834598200582552,1.0498061620620245,LB
2.115831682482473,1.5643452969680656,-1.6111687874543466,1.104837147510216,-0.2512499598045778,1.2554958962422669,1.0474746797269396,-2.4967399766004816,-1.8568754957933218,1.1080641011598102,-2.328823846418015,-1.8827774712642436,-1.0669100960886946,-1.9120213289912187,0.8020610457348587,0.9897033186187432,0.033701080837020135,-0.7293858079012705,-2.094275642430665,-0.15579237638211846,1.0285780463164342,-2.0805639317426525,-0.14380860058509873,1.0431805582277092,LB
2.1426319486753966,1.5582456858634752,-1.5902483745734428,0.05267518085996921,0.31961734709192696,2.3203005438614257,1.0476421825502231,-2.494177624764531,-1.8565097923742555,1.0488679615850283,-2.385474017985188,-1.860594097539707,-1.108401485701259,-1.9205645500922275,0.7997793812996172,0.7781714389596129,0.2827478641313378,-1.4962449332275063,-2.0932190530267616,-0.15499968014494894,1.0285471210149335,-2.069954495402021,-0.12624330730026698,1.0401978237942602,LB
2.133251874718314,1.5460460472417394,-1.5885519433602224,0.05267518085996921,0.4074432414918052,2.527345267751983,1.0471914790772634,-2.491213210358241,-1.8559347167687015,1.0181938959550303,-2.366715336930692,-1.8518294354337184,-1.0703678299091905,-1.9291077711932354,0.7883701244938409,0.672405429853332,1.0298885946409302,-1.4962449332275063,-2.0928234227451723,-0.1540825333039916,1.0283753137843739,-2.0981624236856193,-0.1464393271370774,1.03316253555924,LB
2.1721122908858876,1.5419793622303093,-1.6004258038792405,1.2876451765404235,0.4733125184770419,2.26114352464183,1.0482016765166562,-2.4896644440243993,-1.8555243472831844,1.0418365139730514,-2.4360149113024083,-1.8551653020603853,-1.0599953365643966,-1.9188558358857795,0.7786726417436285,-0.0256500916946903,1.3619508092409844,-1.4962449332275063,-2.0930786245309068,-0.1530084704843456,1.0281331977486932,-2.105272271115011,-0.14629948785192243,1.0283699662410792,LB
2.174792312016483,1.5267299180562786,-1.5710241613110545,0.7620725608096925,0.8026590472178974,2.0836763416854653,1.0467684049359796,-2.488099430973616,-1.8544551533175184,0.9397065034551086,-2.4498601092360417,-1.8215028684901997,-1.1256894466870453,-1.936796460225404,0.7992087899477626,-0.4487140726984413,1.6732599000802664,-1.2846976480355605,-2.092948323090042,-0.1512059658153552,1.0281144311127397,-2.0711678121899904,-0.12380620437388763,1.0380104676342525,LB
2.1064516085253904,1.5429962416894445,-1.5981640499914167,0.9677313128300068,0.8026590472178974,2.527345267751983,1.047392655148527,-2.4838220023250215,-1.8540643252360736,1.0322412844334539,-2.312604274599838,-1.8592090301099213,-1.113587732373656,-1.9214187322298353,0.785517868706745,-0.38525438410261376,2.0260763259457772,-1.5491316679233196,-2.0929429219940476,-0.14914170906122443,1.0279029760597431,-2.0795415875080727,-0.1218679512051283,1.0313363554796482,LB
2.178812343712375,1.55112919529975,-1.5795053909983368,0.9220294178279225,-0.029907099200566903,2.142833360905061,1.0475636116382707,-2.4832742433898507,-1.8534669165972941,1.0121617719438736,-2.457716805713438,-1.8441934500059256,-1.1568076348381213,-1.942776784982356,0.760988515669198,-0.3006416045282753,1.8807992939731208,-1.4962449332275063,-2.093102929462882,-0.14689145276338927,1.0273542501972177,-2.090808293343411,-0.10526136378871506,1.0137096445944762,LB
2.2002525676441085,1.55214565834633,-1.5919445741919582,0.9220294178279225,0.8026590472178974,1.5216970581470566,1.048420120920217,-2.4827173129209217,-1.853179378794517,1.0465376423262198,-2.4938945242111012,-1.852615328824462,-1.1187746871627475,-1.9265448748491796,0.7820952552251866,-0.681399181889514,2.150599690405319,-1.3375845559357202,-2.093366232892609,-0.14480014153017404,1.0271523106216063,-2.082528992080009,-0.12075797687921037,1.0286863248516624,LB
2.208292631035894,1.5562123433577602,-1.5959025276982974,0.9220294178279225,0.4952688482623395,1.669586506434108,1.049587460183515,-2.482761074239136,-1.8529895480121013,1.0653774766592654,-2.508100479456207,-1.8575675719285456,-1.1153169533422513,-1.9419226028447483,0.7444453386410844,-0.5544800818047223,1.9430602965124641,-1.1260370975394283,-2.0942526877726895,-0.14304430583760394,1.026531690041062,-2.1196930607473274,-0.12290531667144663,1.0044139740868387,LB
2.213652728184057,1.5185969644459731,-1.5992949269353285,1.219092109526362,0.4074432414918052,1.1371847638298922,1.0496384017637916,-2.482914369874796,-1.8524423886980788,0.9957944020369945,-2.5112599898926575,-1.8350915783244766,-1.1377911610004343,-1.9538832523586525,0.7718271811231197,-0.4910203932088947,1.0921504128087867,-1.390471117427187,-2.0946152363413137,-0.14179506526588734,1.0261531854961985,-2.0954604657217537,-0.12030954994075657,1.0196556046803882,LB
2.2056126099052986,1.55214565834633,-1.5947716507543857,0.05267518085996921,0.5611382690622482,0.9005615303295371,1.0498628900836566,-2.482760288107671,-1.852339098419412,1.0538507958153238,-2.5029024455102102,-1.8542790818538029,-1.1239609338351444,-1.9470483955328601,0.7706862320768029,-0.3429479250387287,0.24124012129085237,-1.6549053105192923,-2.094930525319987,-0.1412742665435149,1.0257263106079622,-2.0987488376393153,-0.12431312178257446,1.0198124658248027,LB
2.178812343712375,1.5297801400211286,-1.6009911265538443,0.05267518085996921,0.4513560448770724,0.3681595939901999,1.0493759231128728,-2.4816155933468003,-1.8522106834783656,1.018584149050868,-2.446855546162295,-1.8469914534254528,-1.1654516153310146,-1.9436313170511963,0.7621294647155149,-0.3006416045282753,-0.02856062858036783,-1.390471117427187,-2.094958881073957,-0.14050456661356686,1.0252745897509983,-2.086844431934883,-0.10153814282146288,1.0141762735450868,LB
2.206952620470596,1.5328299455734238,-1.6122996643982586,1.4933039285607377,-0.11951130516383401,-0.13466429770363003,1.0508402776916845,-2.481948039608523,-1.852347473306871,1.0545106939862103,-2.4955415281578097,-1.855042680396582,-1.1239609338351444,-1.9333793817437395,0.7763907436509947,-0.2160288249539369,0.2204861819015669,-0.8351594504972433,-2.094961581621954,-0.1399370989147741,1.0251426946616922,-2.088044252429327,-0.11996734707468018,1.0244998459049441,LB
2.229732854967627,1.537913093631434,-1.6072108339480073,0.8534766501617747,-0.8221174105157546,-0.13466429770363003,1.0517667237194346,-2.4838069784792474,-1.8524228472940067,1.056222466395546,-2.54085519834734,-1.8520830393293135,-1.0876557908949767,-1.9504658239457562,0.7877997667993787,-0.8929310615486441,0.09596281744202519,-0.43850833406343187,-2.0957211107461666,-0.13999256059689696,1.0252235762194633,-2.10158913261182,-0.1458187903092021,1.030539922677505,LB
2.1922125042523235,1.5206303069516882,-1.6009911265538443,0.5107117641133372,-0.756247989715846,-0.016352642206428274,1.05128321041511,-2.484168773648994,-1.8522274332532844,1.0012751750959747,-2.4707623598970776,-1.839801364956947,-1.1153169533422513,-1.9453400312576443,0.7626998224099771,-0.7871651909957949,0.19973224251228147,-0.49139524196359147,-2.096508995624349,-0.13958674341063268,1.0249848963283934,-2.107538298797993,-0.12675560314299827,1.0152579563611057,LB
2.1667521937377248,1.55112919529975,-1.5840286671792798,0.8991785451638589,-0.4927707379602271,-0.8445337269755259,1.0515456890660293,-2.483531483074762,-1.8523921393733216,1.0216062414574858,-2.4329122935524334,-1.8488865155024237,-1.1205032000146484,-1.9487571097393082,0.7518611569560555,-0.9352375206125292,-0.5474083520592254,-0.7029425271555371,-2.0975392546852802,-0.1396800813634733,1.0245633078164817,-2.115165054269422,-0.12398772652288674,1.0082690673889712,LB
2.185512396538863,1.5307966030677087,-1.5959025276982974,0.05267518085996921,0.165922319521484,-1.3769350821095,1.0508428679415287,-2.482889999799384,-1.8525484706058999,1.009481689424778,-2.4614870167537086,-1.8430759207517122,-1.1360626481485339,-1.9291077711932354,0.7912226139383293,-0.7871651909957949,-0.5889160948997108,-1.390471117427187,-2.0975331784522866,-0.13961379788971692,1.0245054219957241,-2.06970548878647,-0.11462656206856772,1.0336840000023513,LB
2.1841723859735653,1.5338464086200039,-1.5812015906168522,0.05267518085996921,-0.05364199941566291,-1.2882012968961964,1.049573645517677,-2.4825252347996587,-1.8524758882479173,0.980555578610352,-2.4649508287789543,-1.8335699549509086,-1.1447066286414267,-1.9308164853996834,0.7923633293272538,-0.5544800818047223,-0.8587168991461652,-1.2846976480355605,-2.0972644739265656,-0.1396388232828699,1.0244990783441343,-2.0661748584001205,-0.11122335792695857,1.034058094059366,LB
2.196232535948216,1.516563621940258,-1.6038182031162715,0.05267518085996921,-0.27320643340454737,-1.4656690610579246,1.0487205899021899,-2.4825987817655992,-1.852568012009972,1.0000484192273817,-2.4766341920192985,-1.838993176718239,-1.1153169533422513,-1.9333793817437395,0.7952155851143499,-0.8506247410381907,-1.211533325011676,-1.3640278366814536,-2.0974521620123707,-0.14027730898925908,1.0244969637936046,-2.07683018213874,-0.12699158193669727,1.0361004525228563,LB
2.162732162041832,1.5185969644459731,-1.5823324675607642,1.0362843798440684,-1.0416817150714344,-1.2882012968961964,1.0476957143803454,-2.4822584741892277,-1.852367014710943,0.9489898751123814,-2.4216795273803915,-1.8263129819385104,-1.0824695442225796,-1.9496116418081484,0.7729681301694364,-0.7025524114214565,-1.0870098246140487,-0.7293858079012705,-2.098291357302501,-0.141193103106262,1.0243484166188743,-2.114873534329265,-0.14590820677519062,1.0217058721091432,LB
2.097071479681335,1.5267299180562786,-1.606645279678699,0.8306253284758404,-1.5027663663387474,-1.1698901644838213,1.047893436785149,-2.4797287904830414,-1.8527299265008559,1.0177080179284248,-2.2912255586136694,-1.8555498881877708,-1.108401485701259,-1.9598632271843721,0.7758203859565324,-0.4487140726984413,-0.9002247779247361,-0.7558292618513502,-2.098772729983001,-0.1417828907502994,1.0242043628640207,-2.106950535214944,-0.13745330845735682,1.0220659936608572,LB
2.162732162041832,1.5206303069516882,-1.5896828203041344,0.5564135094414646,-1.7882010983970393,0.014230713355838028,1.0469186394269665,-2.4800666523170776,-1.852394931002475,0.9709637950142055,-2.4193920218988527,-1.8335114309750025,-1.0755540765815874,-1.9538832523586525,0.7803839484844076,-0.0256500916946903,-0.7757012775271089,-0.4649517880135116,-2.0990792421806836,-0.1425613833859495,1.024205948776918,-2.113810026399432,-0.15194079286026715,1.0259492956057665,LB
2.185512396538863,1.5318130661142888,-1.6026875577670643,0.4878607417753167,-1.6125487343385951,-0.0755087121239305,1.047038654336433,-2.481034118106578,-1.852394931002475,1.0275453249954627,-2.4590726169852855,-1.8490286451581963,-1.113587732373656,-1.9521745381522042,0.7912226139383293,0.33395417300254676,-0.7757012775271089,-0.25340450282156607,-2.0986329766241467,-0.14296990602012233,1.0243761700945804,-2.0893857840057914,-0.13428541080519138,1.0319854178956946,LB
2.1613921514765346,1.5338464086200039,-1.5925098968665616,0.7392216881456287,-1.458853994397496,0.10195854832648292,1.0469186394269665,-2.4810144648199546,-1.8522665160614293,1.0050209156273244,-2.417523826877692,-1.8445557412853466,-1.113587732373656,-1.9564461487027083,0.7803839484844076,0.630098970789447,-0.9002247779247361,-0.7293858079012705,-2.0981921121636034,-0.143460944815502,1.0242971387685227,-2.0997860277967733,-0.13430221841158005,1.0250413463933925,LB
2.162732162041832,1.5328299455734238,-1.5981640499914167,0.7163703664596945,-0.9099431611009609,0.604782633755434,1.047011025004757,-2.480514135816501,-1.852110184828851,1.0164562789698113,-2.4179794053332895,-1.8481953752155285,-1.0911135247154728,-1.9675522661477731,0.7900816648920124,0.630098970789447,-1.0455020817735634,-0.3327346914674591,-2.0978896507879177,-0.14438012074239057,1.0244139676853035,-2.1062534516543363,-0.15077837880241618,1.030302390087392,LB
2.133251874718314,1.5216467699982683,-1.586855743741707,0.8534766501617747,4.249820512714272,0.3681595939901999,1.0461035741425333,-2.474603650071437,-1.8517305232640193,0.9631613175550444,-2.364539956359671,-1.8342610952378045,-1.0928420375673737,-1.9521745381522042,0.7866588177530619,0.947396859554858,-0.8794708385354507,-0.8351594504972433,-2.0973110583795176,-0.14497870109213026,1.0244142320041194,-2.101207862319716,-0.1437507824191212,1.0295992830753709,LB
2.154692098650047,1.5338464086200039,-1.5676315304793187,0.8991785451638589,-1.5905925483679693,0.604782633755434,1.0449129226306342,-2.4747460272145285,-1.85112473973778,0.9439122774371804,-2.413314292435103,-1.825206600108279,-1.008131453607038,-1.9359422780877953,0.7718271811231197,-0.03400563952835668,-0.17383797321062067,-0.49139524196359147,-2.0981657818206307,-0.14576395734755168,1.0243576677774429,-2.1394671552066535,-0.17732632924569064,1.023543915636632,LB
2.1412919381100988,1.5277467975154135,-1.587986620685619,0.3279035854091731,-0.8440738841157243,1.6400087717647946,1.0439726619370462,-2.473556173568395,-1.8505775804237576,0.9793718970348981,-2.380154158532361,-1.8385862957428893,-1.008131453607038,-1.936796460225404,0.7781020503917739,1.0743160981930815,0.15822449967179605,-0.3062912375173793,-2.098117171956681,-0.14631519235889398,1.0244192540616281,-2.1348217309750734,-0.17852504773334152,1.0273054195164666,LB
2.169432269755293,1.501314177766227,-1.5721550382549665,0.05267518085996921,-0.4488579345749599,1.906209352464221,1.0410059624483692,-2.473148695425743,-1.8493353054505945,0.8890252901480034,-2.4357510725612905,-1.8061667999467168,-1.0634530703848928,-1.9598632271843721,0.7940748697254251,0.947396859554858,0.19973224251228147,0.03747305761844571,-2.0976736069481414,-0.14649307555887314,1.0246891235730147,-2.110519630037842,-0.16203745817016119,1.0339136236271997,LB
2.1560321092153445,1.5277467975154135,-1.5964678503729013,-0.5632844896861453,0.165922319521484,0.014230713355838028,1.0398248085192334,-2.47159171838549,-1.8492794728675317,1.0011778271934815,-2.4053005511687733,-1.8440875494780953,-1.1395196738523352,-1.9513200060833642,0.7872294091049165,1.095469327725024,0.3242557429099087,0.3547940720085373,-2.096558280625298,-0.14574501921219266,1.0249299180146145,-2.08178669593609,-0.12074184157707724,1.0291758898015402,LB
2.180152354277673,1.5297801400211286,-1.5744165605480853,-0.6089863846882294,0.03418377993247776,0.014230713355838028,1.0377422476441782,-2.4712665220028325,-1.8488579368654017,0.9550693808459906,-2.459286641853453,-1.825791839867343,-1.2034852711230832,-1.9453400312576443,0.7792429994380907,0.9897033186187432,0.46953304675873586,-0.43850833406343187,-2.0951438686117654,-0.14423808472719818,1.0248847194970365,-2.0595164619891673,-0.08621632883741141,1.0237134311254696,LB
2.1680922591899954,1.537913093631434,-1.6106032331850382,-0.42617865500593577,-0.8660302139010218,1.7878976388464831,1.0378536283874962,-2.4710494623705728,-1.8487686047325003,1.0566299492086393,-2.4243544449650694,-1.8606721295075825,-1.0997575052083661,-1.9171471216793312,0.7883701244938409,0.7993245299381239,0.15822449967179605,-0.35917814541753884,-2.094272266745669,-0.14379236218428443,1.0250525619453523,-2.080837906501226,-0.1274769856092065,1.03372670841478,LB
2.180152354277673,1.553162537805465,-1.5936407738104736,-0.06056276158687363,-1.1514639392566102,0.014230713355838028,1.0381454632033207,-2.4717078911464174,-1.8489723936606817,1.050234278163391,-2.455185212254442,-1.8565615169141538,-1.1550791219862209,-1.9214187322298353,0.7895110735401578,1.2858481164056434,0.07520887805273975,-0.3327346914674591,-2.0926492373993524,-0.14290700435625137,1.0252082457281206,-2.0598235026668794,-0.10213582130464952,1.0329943382312796,LB
2.162732162041832,1.5470625102883198,-1.584594221448588,0.09939405052916929,-1.107550992056671,1.1963404269036402,1.037836360055199,-2.471636353183109,-1.8487490633284283,1.0139372943070546,-2.42449811866179,-1.846971945433484,-1.15335060913432,-1.9273990569867874,0.7940748697254251,1.5396870093423856,0.6770721687754194,0.11680328090520799,-2.0909512678461133,-0.1417118727427032,1.0255050757587647,-2.0597938108211227,-0.10596056021449017,1.0352486569638608,LB
2.157372119780642,1.5684119819794957,-1.587986620685619,0.5564135094414646,-1.4368976646121987,1.1076064479552155,1.0390080164015705,-2.471832012569935,-1.8488635201237082,1.0665964791550935,-2.4156851706092644,-1.8644232376775853,-1.1118592195217551,-1.9060410042342666,0.7832362042715035,1.77237225708689,1.1751658984897575,0.06391645960722159,-2.0892593745258683,-0.14029151259077827,1.0257099228413549,-2.074796965519078,-0.11652044315646032,1.0313880273860434,LB
2.146652035258262,1.5307966030677087,-1.6089070335665228,0.2822018400810457,-0.029907099200566903,1.0780287132859019,1.0392765389687941,-2.4700498525389514,-1.8488411870904828,1.0357759609284234,-2.38396859030897,-1.8564806980902826,-1.049622135102908,-1.909458082715931,0.785517868706745,0.947396859554858,1.2581816560468992,0.4341242606544303,-2.088774626160371,-0.1395522489498001,1.0260371495358667,-2.09961192561029,-0.1489174406230456,1.0336228373376386,LB
2.15871213034594,1.5460460472417394,-1.5755474374919973,0.07654313296291855,-1.1953768864565493,0.9301392649988505,1.038437298019145,-2.4699917661584876,-1.8485201497378674,0.9895098626680446,-2.4198525817417447,-1.8394334999655355,-0.9994867649974504,-1.9128755111288274,0.7769611013454572,0.16472861385387,-0.07454092474708618,0.011029638309235191,-2.089443011789678,-0.1403036871063662,1.0261693089439892,-2.128269280468298,-0.17384917163597083,1.0289597114176416,LB
2.1533520880847496,1.5612954914157704,-1.5959025276982974,0.41930767476125513,-0.03168562217152356,1.728742169507856,1.0395148419544966,-2.4686565655392836,-1.8485592325460123,1.0697314262097346,-2.4044054745253374,-1.8661399409708408,-1.09629977138787,-1.9461942133952523,0.7729681301694364,-0.9140844296340184,1.2581816560468992,-0.6236123385096439,-2.0904509913296327,-0.13934054765096565,1.0260123035671396,-2.1077434424595847,-0.13785332948941073,1.0217662438773294,LB
2.1814923648429705,1.5419793622303093,-1.5710241613110545,0.8306253284758404,0.07809661208067932,1.8766318115300287,1.0389726163203614,-2.4684584604101225,-1.8478613252577183,0.9725928647807145,-2.4648622125207584,-1.8310227685709808,-1.0997575052083661,-1.9461942133952523,0.7769611013454572,-0.8717779705701334,1.1751658984897575,-1.311140928781294,-2.0913192175107316,-0.13843557532559628,1.0257516852143214,-2.10326064856499,-0.13673327059965942,1.0241318153879657,LB
2.1721122908858876,1.5419793622303093,-1.5981640499914167,1.744664425909179,0.3635302942918661,0.014230713355838028,1.040498273478828,-2.4674491549571,-1.848020448119449,1.0365314840300777,-2.436829586607047,-1.8534123696391882,-1.1205032000146484,-1.942776784982356,0.7860884600585996,-0.7025524114214565,1.1751658984897575,-2.1308864423946505,-2.0917087715593277,-0.13734527981849984,1.0254220796504636,-2.08628838464162,-0.12663324376848772,1.0296061375119334,LB
2.180152354277673,1.5257134550096985,-1.6021220034977561,2.1102804839695937,0.3415739645065685,0.014230713355838028,1.0418313887321804,-2.4667114142512387,-1.84801207323199,1.012990521343864,-2.4484273049430203,-1.8450908176364915,-1.1498928753138238,-1.9564461487027083,0.769545283030486,-0.1525692472008547,0.5317948649265922,-1.8928967424787027,-2.091841098411191,-0.1365147073106123,1.024916437754986,-2.093498104643103,-0.11505952600914367,1.0178336427156043,LB
2.1278918324571237,1.5338464086200039,-1.5942063280797822,2.3844921533300125,-0.3829886575897232,0.9005615303295371,1.0432223528987281,-2.464737350794873,-1.8478836582909437,1.0056566921940528,-2.3534771691049774,-1.8485353716469843,-1.1792825506129991,-1.9402138886383002,0.7592772089284189,-0.5544800818047223,0.407271364528965,-2.0515571197704885,-2.092023385401001,-0.13534865926207962,1.0242783721325692,-2.0817556544609808,-0.09307652146107358,1.0124927184724328,LB
2.1922125042523235,1.5246969919631184,-1.6015566808231525,2.1788341496794827,-0.1853806828193411,0.33858185932088647,1.0443991897447895,-2.4649683860976204,-1.8477664098665103,1.0109858437411847,-2.4711023177317744,-1.8428864145440151,-1.1360626481485339,-1.944485499188804,0.7689749253360237,-0.9140844296340184,0.34500968229919415,-1.8400087953524658,-2.0926627401393385,-0.13475819525606514,1.0238538761136793,-2.0939866704687367,-0.11718535206520209,1.018783773076056,LB
2.193552514817621,1.5135138163879627,-1.6089070335665228,1.5161551005727152,-0.1853806828193411,-0.16424210986699192,1.0449975374588913,-2.4651678887938298,-1.8477217438000597,1.0053836011755533,-2.4692913649681274,-1.8412198746586796,-1.1429774076728314,-1.9624264734596604,0.7769611013454572,-0.9140844296340184,-0.23609966903420007,-1.4962449332275063,-2.093319648439657,-0.13467500273288097,1.0235507024314456,-2.0934083542911566,-0.12174290261359565,1.0219151960564792,LB
2.2123127176187594,1.5226636494574033,-1.5992949269353285,1.0134335071800047,-0.6903787127306091,-0.3121315969010677,1.0451305036175804,-2.466615069472815,-1.8476435781837706,1.0039940244788959,-2.509352730307973,-1.837856139472057,-1.130875693359442,-1.979512915661677,0.7786726417436285,-0.5544800818047223,-0.5474083520592254,-0.6764990732054572,-2.0939333479720204,-0.1350733799373971,1.0234320232829512,-2.1047546882582964,-0.13424574485411359,1.0216518275131685,LB
2.210972707053462,1.5307966030677087,-1.573851237873482,0.3279035854091731,-1.3051591106417253,0.014230713355838028,1.0437939346977687,-2.4687681088593623,-1.847199709148416,0.9598411510399064,-2.5186556895633636,-1.8230328524317538,-1.09629977138787,-1.968406448285381,0.7336066731871628,-0.19487573397542615,-0.8794708385354507,-0.3856215993676186,-2.0951323912827773,-0.13583699260955093,1.0228642664656562,-2.1475318654029953,-0.14075768387339938,0.9958957548647095,LB
2.1667521937377248,1.5307966030677087,-1.5953369734289893,-0.19766903032155791,-1.3051591106417253,-0.9628450531230217,1.042962464497654,-2.469031899639815,-1.8473979148182909,1.0059857797936336,-2.426297448188415,-1.8443077111017427,-1.1153169533422513,-1.9538832523586525,0.7723975388175819,-0.0256500916946903,-1.253041203790247,-0.09474400428673761,-2.095316703683586,-0.13666959420336972,1.0228647951032888,-2.104064352844451,-0.13135214733821388,1.0203998383117854,LB
2.1520120775194522,1.5429962416894445,-1.5913790199226499,-0.24337092532364213,-0.029907099200566903,-0.6079104934751708,1.0423995168647617,-2.467650404612121,-1.8476407865546172,1.0204346206841104,-2.401212055698177,-1.8505196131158124,-1.0928420375673737,-1.9273990569867874,0.7860884600585996,-0.2371819159324477,-1.0039942029949924,-0.4649517880135116,-2.09537071464353,-0.13736489431583593,1.0230048840758987,-2.0901942119879866,-0.13440575326693532,1.0315174707842072,LB
2.2417930049422776,1.5419793622303093,-1.6043837573855801,0.14509590062906644,-0.029907099200566903,-1.4065133979841766,1.0430073621616265,-2.469576164657364,-1.8482242370476312,1.05978643340985,-2.56527745457802,-1.8512163271146989,-1.1170454661941522,-1.9590090450467643,0.7815248975307244,-0.2371819159324477,-0.7757012775271089,-0.4649517880135116,-2.0956718257452174,-0.13813932877962354,1.0229668221663597,-2.098700925797299,-0.1337381551411712,1.0254407491392539,LB
2.162732162041832,1.5419793622303093,-1.5947716507543857,0.4878607417753167,-0.029907099200566903,-0.9628450531230217,1.043205084566431,-2.46856502489759,-1.8485480660293991,1.0274988047588727,-2.4202829910825883,-1.851592552674097,-1.1913842649263886,-1.9573003308403163,0.7723975388175819,-0.2794883749963328,-0.962486460154507,-0.8087159965471635,-2.095447005124451,-0.13799526367849965,1.0227717548799702,-2.075064866945565,-0.09565951441090789,1.0187442282497332,LB
2.1868524071041606,1.5440127047360244,-1.599860481204637,0.9448802904919862,-1.3929847174122594,-1.1403118486091448,1.044115989095114,-2.4695896162402082,-1.848947268998303,1.0464420173954514,-2.464289265589069,-1.854716618245103,-1.0513513560715038,-1.9521745381522042,0.7661226695489276,-0.1525692472008547,-0.6719317165187672,-0.5707254306094844,-2.0963071296615587,-0.13893067229283865,1.0226245292993217,-2.133906007459348,-0.161176236418798,1.0178542060252924,LB
2.154692098650047,1.5328299455734238,-1.6043837573855801,0.8991785451638589,-0.029907099200566903,-0.6079104934751708,1.0446953416436884,-2.468187681794426,-1.849223640284468,1.0302279919721467,-2.400744679220039,-1.8536910552387424,-1.094571258535969,-1.9564461487027083,0.8003497389940794,0.0801159312669338,-0.6511779130675671,-0.4649517880135116,-2.0961444216447274,-0.1395657761893422,1.022888848115567,-2.091677454646472,-0.1464937837817773,1.0374542037439771,LB
2.1841723859735653,1.5135138163879627,-1.6083417108919194,0.7392216881456287,-1.4149413348269009,-0.5191767082618672,1.044580507233911,-2.4690762723936124,-1.8492348068010802,1.0029619644152903,-2.452068699055696,-1.8416323293460204,-1.1118592195217551,-1.9299619533308434,0.8060542505682715,0.1012690638114741,-0.7757012775271089,-0.7822727158014301,-2.0954956149884008,-0.13992830620907182,1.0231888499720057,-2.0680009069141616,-0.12904076530762268,1.0430577056339327,LB
2.118511703613068,1.539946436137149,-1.5947716507543857,1.0134335071800047,-1.1953768864565493,-0.10508650491378028,1.0450191228742625,-2.467433694371623,-1.8493967212919649,1.0188649934421328,-2.336141591747192,-1.853710563230711,-1.1101299985531599,-1.9162929395417234,0.779813357132553,0.058962618602932226,-0.3606231694318273,-0.5442819766594047,-2.0951904530647174,-0.1398133246729634,1.0232422423728873,-2.0829865164305335,-0.12077075066006587,1.0283868387003103,LB
2.16407217260713,1.5368962141722993,-1.5992949269353285,0.9905824848419841,-0.8660302139010218,0.33858185932088647,1.045607973005601,-2.4672185563940556,-1.8494218459543437,1.027716760682155,-2.4206150835689244,-1.8516399292260215,-1.0755540765815874,-1.9273990569867874,0.7723975388175819,0.16472861385387,-0.4643927304401691,-0.5442819766594047,-2.0953133279985896,-0.14018194195048675,1.023195722261228,-2.107891901688369,-0.14091500306919877,1.0234729985814262,LB
2.1520120775194522,1.5409628991837294,-1.5964678503729013,0.8991785451638589,-1.063638188671404,0.3681595939901999,1.0461173888083712,-2.4667574466159072,-1.8494720952791,1.0282448515160365,-2.399272023828657,-1.8531448314636156,-1.1775533296444038,-1.9504658239457562,0.7895110735401578,0.2704946229601509,-0.29836135126397095,-0.20051759492140656,-2.0944903359964426,-0.13964491054066386,1.0233569567391378,-2.064501992817598,-0.1022783498068266,1.0299327777773604,LB
2.162732162041832,1.5501127322531696,-1.6015566808231525,1.2419434312122961,-0.03168562217152356,0.545626970681686,1.047485040726318,-2.465776791287384,-1.8496703009489757,1.0604385782079713,-2.4189144204678454,-1.8622439162890698,-1.089385011863572,-1.942776784982356,0.7723975388175819,0.16472861385387,-0.1945919125999061,-0.5971688845595642,-2.09466722189026,-0.13979235745167315,1.023272374717939,-2.109398762860524,-0.1398823437326696,1.0218466516908529,LB
2.149332056388857,1.5206303069516882,-1.6009911265538443,1.0362843798440684,-0.11951130516383401,0.10195854832648292,1.0474366893958857,-2.464323583600501,-1.849578177186921,0.9964922055858435,-2.3903678377351487,-1.8434855885830574,-1.0599953365643966,-1.9598632271843721,0.7832362042715035,0.2281883024496976,-0.1945919125999061,-0.5178386959136712,-2.0950074909379066,-0.14039229052536725,1.0233101723086622,-2.1204987894708185,-0.16217460823829405,1.0274142996049425,LB
2.0930514479854425,1.5084306683299527,-1.5862904210671036,1.0134335071800047,-0.2951629070045169,0.7230941536380511,1.0461078912256079,-2.461006283514401,-1.8490282262437454,0.9308400909554189,-2.287022229057009,-1.8277565733442023,-1.1291471805075415,-1.9308164853996834,0.7883701244938409,0.33395417300254676,-0.1945919125999061,-0.0683005849775271,-2.094347206952591,-0.14010145487521117,1.0235382794470822,-2.0754886505622756,-0.11822944057407593,1.03192320070228,LB
2.1841723859735653,1.5368962141722993,-1.5885519433602224,0.3964568020971915,-0.3610321839897537,0.841405867255789,1.0456874073341687,-2.4612876312309035,-1.8487630214741937,1.0045677740635044,-2.462564045122553,-1.8414261020023497,-1.0669100960886946,-1.936796460225404,0.7912226139383293,-0.3006416045282753,0.033701080837020135,-0.5178386959136712,-2.09466654675326,-0.14031653798393123,1.0237153730539665,-2.10082524239826,-0.1514211016707248,1.0342508091796463,LB
2.1533520880847496,1.5338464086200039,-1.6009911265538443,0.3736057797591709,-0.5366836851601662,0.7526720820424855,1.0456692755852564,-2.460478527257615,-1.8487155637785897,1.0242354963106775,-2.399466210540404,-1.8518461565696922,-1.0738255637296867,-1.941068070775908,0.7923633293272538,-0.533326713719348,0.3865175610777651,-0.3856215993676186,-2.095125639912784,-0.14023131637481562,1.0239146694414158,-2.099140230151563,-0.14977664546164224,1.034422697358063,LB
2.1654121831724273,1.5053808627776573,-1.5896828203041344,0.2136490724148978,0.03418377993247776,0.9301392649988505,1.0438232908626743,-2.459637017198384,-1.8480623225567465,0.9398245270183084,-2.422528548039538,-1.8233171117432994,-1.0582661155958013,-1.9590090450467643,0.7689749253360237,-0.40640761363455624,-0.09082233799775578,-1.099593470385002,-2.096141045959731,-0.14071626791240155,1.0236379276408065,-2.1319942574814186,-0.16069957270161084,1.0188652354182812,LB
2.169432269755293,1.5419793622303093,-1.617388263253805,0.7163703664596945,0.3415739645065685,0.9892953155428406,1.045266923442729,-2.458586832909185,-1.8483107775513794,1.0807748134846586,-2.4249827989063215,-1.8683694257672772,-1.130875693359442,-1.9376509922942435,0.7741088455583611,-0.004496959150149989,-0.5889160948997108,-1.099593470385002,-2.0959884649978897,-0.14069462432913396,1.0234415387603362,-2.088997090752249,-0.11787043010161063,1.0226040669310241,LB
2.15871213034594,1.5094471313765325,-1.6043837573855801,1.059135252508132,-0.07559845863416527,0.309004124651573,1.0450027179585804,-2.457540928669074,-1.8480930304774317,0.9825292427219718,-2.4055067980813396,-1.838087448519687,-1.1896550439577929,-1.9419226028447483,0.8037723524756378,0.7570182094276705,-0.11157626379323268,-0.9938200009933758,-2.094407969282528,-0.1398701390790404,1.0236035661946945,-2.044742069466474,-0.09532268997887595,1.0390839778528318,LB
2.1533520880847496,1.5155471588936777,-1.5959025276982974,0.3279035854091731,-0.20733701260463872,0.9597175808735271,1.0439588472712082,-2.4565030604394926,-1.8476966191376811,0.974344265539738,-2.3989817050813915,-1.8358579637232515,-1.0720970508777858,-1.9453400312576443,0.7877997667993787,0.8204777594700663,-0.1945919125999061,-0.12118742359594813,-2.0940271920149227,-0.14025431268203734,1.023801805306879,-2.1054234296025,-0.15154144413246878,1.0312896925845874,LB
2.1506720669541544,1.5328299455734238,-1.5851595441231916,-0.5175825946840611,-0.029907099200566903,0.39773752239463445,1.042447868195194,-2.455338363000237,-1.847495621838652,0.9841359138560489,-2.3995228410486003,-1.838968095014279,-1.0427073755786105,-1.9350880959501875,0.7832362042715035,0.8204777594700663,-0.38137697288302724,0.3283506180584575,-2.093908367903047,-0.14095299460438895,1.0240655954854918,-2.1160720051943556,-0.1615446591508409,1.0299820769941763,LB
2.143971959240694,1.554179000852045,-1.5925098968665616,-0.31192369298979,-0.8660302139010218,0.24984807410758286,1.042345121618025,-2.454689804541674,-1.8477357019458251,1.045778673281114,-2.3868302662208327,-1.8595211579814224,-1.0980289923564652,-1.9077497184407146,0.7940748697254251,0.630098970789447,-0.3606231694318273,0.3812373527542708,-2.09301786220097,-0.14091579469564802,1.0245041004016429,-2.0725869474542282,-0.12563016581920275,1.038118556826202,LB
2.1278918324571237,1.5368962141722993,-1.6015566808231525,0.09939405052916929,-0.4269014609749904,0.13153682545413536,1.0422656872894576,-2.452958218968267,-1.8479283243573943,1.029412164860098,-2.351619286429446,-1.8562744707466126,-1.0651815832367937,-1.9086039005783224,0.7815248975307244,0.6089457412575044,0.0544550202263056,0.40768080670435053,-2.0926316838373706,-0.14087047844318187,1.0247964370124103,-2.0961474270622173,-0.14029782776260113,1.0309667431696166,LB
2.133251874718314,1.5328299455734238,-1.5710241613110545,-0.08341405333801648,-0.1853806828193411,-0.0755087121239305,1.040396390318274,-2.4514270095704753,-1.847618453521392,0.9478406529714385,-2.3706931931676825,-1.8289911505502285,-1.0202324598037327,-1.9162929395417234,0.7963565341606667,0.0801159312669338,-0.13233018958870962,-0.35917814541753884,-2.0928234227451723,-0.14151234595945647,1.0250951172747678,-2.1057385680563265,-0.16763573570615073,1.0401617061862187,LB
2.1533520880847496,1.5348632880791389,-1.5953369734289893,-0.0377118440206229,0.2317917403213927,0.04280296274678338,1.0399102867641052,-2.450169024530715,-1.8476714944753023,1.0129931058014525,-2.4014640090239947,-1.8481145563916574,-1.049622135102908,-1.8675965092797298,0.7906520225864746,-0.0679565369032322,-0.4643927304401691,-0.6500556192553775,-2.0925169105474897,-0.1417051091229319,1.0253340614846536,-2.075719437181566,-0.1338551360816373,1.040739587914884,LB
2.15871213034594,1.5348632880791389,-1.6043837573855801,0.8077744558117768,0.25374807010669026,-0.5191767082618672,1.0405880688067743,-2.4490578713790145,-1.847972990423845,1.0348584784845671,-2.4085364428770806,-1.8546943233971385,-1.037520420789519,-1.936796460225404,0.7957861764662043,-0.8506247410381907,-0.3191152906532564,-0.8351594504972433,-2.0934398228255326,-0.14244572548786424,1.0254633133857978,-2.10882112149762,-0.1665580319844993,1.0375633474646282,LB
2.146652035258262,1.5338464086200039,-1.5930754511358702,0.9905824848419841,0.5391817954622786,-0.10508650491378028,1.0408056497937201,-2.4473316140299812,-1.84801207323199,1.0048055441616306,-2.3893989142098833,-1.8462139206026962,-1.0928420375673737,-1.9453400312576443,0.8174632737166553,-1.019850161633436,0.13747056028251062,-0.9938200009933758,-2.0937584874892017,-0.14242002373273419,1.0257804959652923,-2.07347432875355,-0.14580332731132428,1.0488560317015727,LB
2.1922125042523235,1.5257134550096985,-1.57272036092957,1.1505393418602141,0.8465719944178365,-0.46002104518811926,1.0399344624293212,-2.447225748326038,-1.8476128702630854,0.943937260527201,-2.4824604925137876,-1.8206082877156302,-1.0720970508777858,-1.9308164853996834,0.7929339206791083,-0.8506247410381907,0.17897843906108152,-1.1789238322352416,-2.0943721870215652,-0.1423862056338789,1.0257871039356983,-2.094626394781859,-0.14689985555213117,1.0357519307868637,LB
2.2498330683340626,1.5338464086200039,-1.5800707136729402,1.059135252508132,0.4293995712771028,-0.3121315969010677,1.0398075401869362,-2.449679439323948,-1.8472918329104706,0.9868814693007155,-2.5903999889910714,-1.8258531506992455,-1.1014860180602666,-1.9487571097393082,0.7912226139383293,-0.8083184205277375,0.0544550202263056,-0.8880465316017491,-2.094866387305053,-0.14229016223312974,1.025806927846917,-2.092610723343782,-0.13892027634297321,1.0325184821545277,LB
2.1667521937377248,1.5490958527940348,-1.5970334046422094,1.1733903641982346,0.5830947426622178,0.04280296274678338,1.0410638113615651,-2.4486729290050233,-1.847543079534256,1.048158958719964,-2.427989197228019,-1.8577208490083001,-1.0513513560715038,-1.9291077711932354,0.7809543061788699,-0.7448587319319099,0.033701080837020135,-1.0202632817391093,-2.0957238112941634,-0.14252283075325442,1.0257130946671498,-2.1116762623930025,-0.1547308555208118,1.0289823837847332,LB
2.15871213034594,1.5277467975154135,-1.6089070335665228,1.1505393418602141,0.10005307129918169,-0.2529759338273197,1.0419263645598156,-2.4476817919236344,-1.8477692014956637,1.0307061166259872,-2.4061761392268264,-1.8535099095990322,-1.0582661155958013,-1.9538832523586525,0.7866588177530619,-0.5967862637617439,0.012947155041543227,-1.0467069088935352,-2.096538701652318,-0.14289888801252615,1.025636970848071,-2.1157480941497364,-0.16131405879118638,1.030063802968577,LB
2.1721122908858876,1.5236801125039834,-1.5840286671792798,1.104837147510216,0.2098352667214231,-0.16424210986699192,1.0414109048407407,-2.4472799040491773,-1.847503996726112,0.9647378366839245,-2.439564368232025,-1.8302117934762772,-1.077283297550183,-1.9974535400013018,0.7792429994380907,-0.4910203932088947,0.09596281744202519,-1.1789238322352416,-2.0976222965361946,-0.1433189088003096,1.0253575858592994,-2.1337163845353104,-0.1669069578931312,1.0213431142356746,LB
2.1734523014511855,1.5226636494574033,-1.5744165605480853,1.2647943038763598,-0.03168562217152356,-0.0755087121239305,1.0405328101434232,-2.4472199833619617,-1.8470545444324509,0.9393791388272533,-2.4454847907285626,-1.8216868009859062,-1.016775434099931,-1.9350880959501875,0.7849475110122827,-0.40640761363455624,0.26199406068013786,-1.575575121873399,-2.0984493393603363,-0.14376395498124603,1.02519846593192,-2.1250618863118906,-0.1745987908809124,1.031491371198834,LB
2.169432269755293,1.5155471588936777,-1.5975987273168133,0.9905824848419841,-0.4488579345749599,1.018873050212154,1.0402573802432808,-2.4471968361577168,-1.8466665079801592,0.9801351735093173,-2.4286288248352546,-1.835863537435242,-1.0790118104020834,-1.944485499188804,0.7632704137618317,-0.4698671636769521,0.34500968229919415,-1.2846976480355605,-2.0992324982795245,-0.14352993373716696,1.0248033093016329,-2.121427334465393,-0.14432089642783003,1.0163145941204539,LB
2.1868524071041606,1.5216467699982683,-1.6032528804416681,0.624966726129483,0.1439659897361864,0.9597175808735271,1.040235794827909,-2.4472723047783496,-1.8464348027604458,1.0080438695198048,-2.460017944465469,-1.842716416328287,-1.0530798689234042,-1.9649893698037164,0.7712565897712651,-0.7660119614638524,0.15822449967179605,-1.2846976480355605,-2.1004842022762262,-0.1438687910876975,1.0244861267221383,-2.1350019064936423,-0.16576000683315784,1.019810620399574,LB
2.1613921514765346,1.535879751125719,-1.57272036092957,0.6478175987935466,0.1439659897361864,0.7526720820424855,1.0393015780506254,-2.4466404297764317,-1.8460021002417037,0.9614831430943569,-2.4247079486774985,-1.8301309746524068,-1.0876557908949767,-1.9590090450467643,0.7792429994380907,-0.8506247410381907,-0.3606231694318273,-1.602018575823479,-2.1013159710593636,-0.14421779386788477,1.0242001337629605,-2.112208691172596,-0.1477550265651944,1.0245823627758712,LB
2.169432269755293,1.5155471588936777,-1.5942063280797822,0.9448802904919862,-0.5586400149454638,0.6343607558949895,1.0387990695807738,-2.446719217618805,-1.8456698963724758,0.9720518516588915,-2.4298173663652998,-1.8331937293915102,-1.0686393170572897,-1.9496116418081484,0.7723975388175819,-0.04680322978136789,-0.277607547812771,-1.390471117427187,-2.101727129491937,-0.1445877638693625,1.0239276210634118,-2.120879384948246,-0.15261242481156445,1.0216022646641771,LB
2.1654121831724273,1.5236801125039834,-1.5964678503729013,1.0134335071800047,-0.5586400149454638,0.841405867255789,1.0388508745776655,-2.446681221264667,-1.8454437744110683,0.9937750791746478,-2.4224851138380354,-1.8406346348996148,-1.0669100960886946,-1.955591616633868,0.782665612919649,0.03780948605839191,-0.21534586558300012,-0.9673767202476422,-2.101977605318677,-0.14500507920923741,1.0238499113314354,-2.116246782195515,-0.15713367093015806,1.0273325736305416,LB
2.1814923648429705,1.5470625102883198,-1.5885519433602224,0.8991785451638589,-0.7123351863305788,0.7822498167117989,1.039441451542233,-2.447508144217827,-1.8453879418280046,1.025541508878646,-2.45884626973802,-1.8484016025591985,-1.0720970508777858,-1.9692609803542211,0.7866588177530619,-0.40640761363455624,-0.1530841153841865,-1.1789238322352416,-2.1025615988230717,-0.14542983453086067,1.0237481485871809,-2.1172610286539784,-0.16019131068441295,1.0284200563544217,LB
2.157372119780642,1.516563621940258,-1.5795053909983368,0.6021158534654193,-0.2512499598045778,1.2259181615729535,1.0379986823787937,-2.446974273605203,-1.844734700606162,0.9372771133220802,-2.412194965970631,-1.823147113527571,-0.9821988040116643,-1.9487571097393082,0.7952155851143499,0.058962618602932226,-0.02856062858036783,-1.099593470385002,-2.103187450821423,-0.1465181009520261,1.0238401315352346,-2.1366356328249414,-0.19812742291249874,1.0370938185600875,LB
2.1667521937377248,1.5226636494574033,-1.6241732933225719,0.4421585474253188,-0.3829886575897232,1.1963404269036402,1.0388128842466111,-2.4466115176081105,-1.8448798653221272,1.0562948312080191,-2.415385238658447,-1.8611403213148339,-1.0703678299091905,-1.9231274464362833,0.7883701244938409,0.03780948605839191,0.012947155041543227,-1.2846976480355605,-2.1029950367766217,-0.14647413742351414,1.0238401315352346,-2.0953848864780094,-0.14420458779161946,1.033715899495585,LB
2.1533520880847496,1.5307966030677087,-1.5919445741919582,0.5335626367774009,-0.1853806828193411,0.33858185932088647,1.0385115518480232,-2.4458351691125273,-1.8448156578516035,0.9964586076371951,-2.4021103658737166,-1.8427665797362067,-1.0271479274447248,-1.9308164853996834,0.7815248975307244,0.058962618602932226,-0.04931455437584473,-1.2318105669310546,-2.1033143765772913,-0.14693947446376374,1.0237510560941598,-2.121711431444111,-0.16740513534649595,1.0296085102015127,LB
2.180152354277673,1.5267299180562786,-1.598729604260725,0.35075490709510726,-0.3610321839897537,0.9005615303295371,1.0382732488623208,-2.4461845608747157,-1.8446425768441073,1.007104849929379,-2.4498034787278455,-1.8431121498796548,-1.0738255637296867,-1.9393597065006916,0.7912226139383293,-0.04680322978136789,-0.0078067707539336674,-1.0202632817391093,-2.1032542893843535,-0.14699358342193242,1.0237965189305538,-2.099259672349267,-0.14897525878902312,1.0338875240418266,LB
2.1680922591899954,1.5124973533413828,-1.6258694929410873,0.3279035854091731,-0.2951629070045169,0.9005615303295371,1.0386894156706854,-2.4458098382097684,-1.8447151592020892,1.0396173263905408,-2.4160817589521573,-1.855744968107459,-1.035791907937618,-1.9461942133952523,0.7587066175765643,-0.5121736227408372,0.24124012129085237,-1.2846976480355605,-2.104431728311132,-0.14718364113749952,1.0233664722165225,-2.143275809239635,-0.16560335994161396,1.014122756213463,LB
2.1680922591899954,1.5338464086200039,-1.6009911265538443,0.6478175987935466,-0.22929348620460824,1.0484509786165885,1.039040826232936,-2.4455788029070216,-1.844676076393945,1.0258077080102437,-2.4272184804814403,-1.8506032187956791,-1.0409781546100152,-1.9461942133952523,0.7746794369102156,-0.3006416045282753,0.07520887805273975,-1.152480551489508,-2.105105515036433,-0.1475076185245338,1.0232044447821642,-2.12864717668702,-0.1652746031606486,1.023784348180675,LB
2.1667521937377248,1.501314177766227,-1.616257386309893,0.8306253284758404,0.10005307129918169,0.1906924110338349,1.0389501674883745,-2.4448359960206085,-1.8446202438108812,0.9946563792122681,-2.415502607134539,-1.8413592174584568,-1.09629977138787,-1.9504658239457562,0.7786726417436285,-0.32179483406021786,0.012947155041543227,-1.681348591265026,-2.1053269599722038,-0.1473608479755016,1.0229314034449823,-2.1052810437058027,-0.1402689186796125,1.0248494221696387,LB
2.134591885283611,1.539946436137149,-1.6083417108919194,0.6935194937956308,-0.009729152885994165,0.45689357293862454,1.0398999257647266,-2.443147123590129,-1.84494407279265,1.0522449861671097,-2.362525291073485,-1.863007514831849,-1.0548083817753051,-1.9547374344962603,0.7758203859565324,-0.2794883749963328,0.46953304675873586,-1.602018575823479,-2.1059291821755792,-0.14731485536105815,1.0226538686879247,-2.126086254990499,-0.16178198255305118,1.023467462305741,LB
2.198912557078811,1.501314177766227,-1.568197084748627,0.8991785451638589,-0.03168562217152356,0.545626970681686,1.0376118717353338,-2.444128477702176,-1.8439865439931107,0.8829690445326892,-2.493438334006187,-1.8002893206521124,-1.0859272780430758,-1.9496116418081484,0.7775316926973116,-0.2371819159324477,0.3242557429099087,-1.099593470385002,-2.1061661552623328,-0.14703619422649,1.0225135153964986,-2.1099332160841455,-0.1448647905705723,1.0244181199305433,LB
2.1975725465135136,1.516563621940258,-1.6117341101289502,0.4421585474253188,0.07809661208067932,0.7822498167117989,1.0376800816479084,-2.444651866561935,-1.8439027951185152,1.0186746050664595,-2.4760921821244946,-1.8449932776766473,-1.0841980570744805,-1.9649893698037164,0.7906520225864746,-0.258335284017822,0.24124012129085237,-0.8616030776516694,-2.1063518179371408,-0.1470091397474058,1.022574308724235,-2.107371619572949,-0.1532887628926509,1.0310033880420093,LB
2.2618932183087135,1.5318130661142888,-1.5936407738104736,0.5792645317794851,-0.33907571038978407,0.48647130760793794,1.0378441308047328,-2.4481333807762637,-1.8436515484947298,1.0166423599161714,-2.6062843221835683,-1.8339489673663034,-1.0755540765815874,-1.9547374344962603,0.7952155851143499,-0.0256500916946903,0.15822449967179605,-0.9144898123474826,-2.1062795782782158,-0.1470497214660321,1.022686644221139,-2.10247853835517,-0.15440008182707987,1.0348571631832642,LB
2.2498330683340626,1.55214565834633,-1.5908136972480462,0.35075490709510726,-0.756247989715846,0.5160492360123725,1.0384925566824963,-2.451560127831869,-1.8436487568655764,1.0506512373209749,-2.588394762122918,-1.846339329122495,-1.1239609338351444,-1.9487571097393082,0.7781020503917739,-0.04680322978136789,0.24124012129085237,-0.5442819766594047,-2.1060520571094514,-0.14645790473606346,1.0226649700782073,-2.093853057162831,-0.12602749763423454,1.0241616058237957,LB
2.178812343712375,1.5094471313765325,-1.6026875577670643,0.3736057797591709,-0.47081440817492953,0.7526720820424855,1.0377465647272526,-2.4517690641056578,-1.8433695939502592,0.9807433825284374,-2.443600165868605,-1.835080430900494,-1.0755540765815874,-1.955591616633868,0.7860884600585996,0.2281883024496976,0.17897843906108152,-0.3062912375173793,-2.1059568627925507,-0.14647413742351414,1.0227992440368598,-2.1101046190119233,-0.15339162544375043,1.029253397661133,LB
2.1922125042523235,1.5246969919631184,-1.6077761566226108,0.4421585474253188,-0.8221174105157546,0.3681595939901999,1.0379710530471178,-2.4527898121388922,-1.8434310097916287,1.025521694703802,-2.4687340613404,-1.8477048885603122,-1.0669100960886946,-1.968406448285381,0.7917929716327915,0.48202664117271277,-0.1530841153841865,-0.43850833406343187,-2.1057772763507367,-0.14692932903410727,1.022950434399752,-2.1148654365531487,-0.163144743279057,1.031689886226975,LB
2.1721122908858876,1.5257134550096985,-1.5908136972480462,-0.0377118440206229,-0.4269014609749904,0.7230941536380511,1.0369781239400229,-2.4528107756446236,-1.8431993045719153,0.9852696292514619,-2.437385491950622,-1.8369392638495223,-1.0582661155958013,-1.9692609803542211,0.7678339762897068,0.630098970789447,-0.3606231694318273,-0.7822727158014301,-2.105948086011559,-0.1475502293290914,1.022731842738717,-2.137512217089441,-0.16431320807520797,1.0172673608026603,LB
2.1667521937377248,1.5429962416894445,-1.5930754511358702,-0.06056276158687363,-0.6903787127306091,0.5752047053509994,1.036808894283509,-2.4528521785684427,-1.8432830534465101,1.026053231481135,-2.4286317087963196,-1.8505920713716966,-1.0271479274447248,-1.942776784982356,0.7877997667993787,0.4185670911303169,-0.29836135126397095,-0.4120648801133521,-2.1059811677245257,-0.14827123119668764,1.0229089363456014,-2.1221406135782312,-0.17270558209727532,1.0323339396316873,LB
2.232412930985195,1.554179000852045,-1.5970334046422094,0.2364999450789615,-1.0197253852861368,-0.045930434996278045,1.0377077109795836,-2.455710552574908,-1.8435705912492872,1.0669376275567526,-2.552913826097244,-1.8545187514694197,-1.0738255637296867,-1.9581548629091563,0.7929339206791083,0.4397203206622594,-0.3606231694318273,-0.8351594504972433,-2.1056645284718534,-0.1487020737761049,1.0229990690619413,-2.1065449715944933,-0.1561716035404617,1.0331939077881227,LB
2.2618932183087135,1.5297801400211286,-1.5783745140544247,0.2593508177430252,-1.1295076094713126,0.07238075553663315,1.036789899117982,-2.459818526218841,-1.8431434719888515,0.9762016290598828,-2.6133886543938947,-1.820443863211893,-1.0703678299091905,-1.9521745381522042,0.782665612919649,0.5877926502789936,-0.38137697288302724,-0.5971688845595642,-2.1053836714801446,-0.14909909825666662,1.0230278798129122,-2.1133059398362435,-0.15417687681423614,1.0275809151398496,LB
2.1680922591899954,1.5277467975154135,-1.587986620685619,0.5107117641133372,-1.063638188671404,0.24984807410758286,1.0364315812228133,-2.4606327837206217,-1.8429815574979675,0.9822613206186486,-2.4310427002471204,-1.8363902532184,-1.0513513560715038,-1.9666980840101644,0.7712565897712651,0.48202664117271277,-0.1530841153841865,-0.3856215993676186,-2.1054505100430756,-0.1496144860832224,1.0229010067811142,-2.1364669291558678,-0.16723369776132999,1.0196888223344995,LB
2.134591885283611,1.5145302794345428,-1.599860481204637,0.3736057797591709,-1.0197253852861368,0.013225156008004885,1.035707174682941,-2.4595263473577105,-1.8429648077230487,0.9797914406500703,-2.362358370902721,-1.8397316935570582,-1.0686393170572897,-1.9496116418081484,0.7980678409014458,0.4185670911303169,-0.21534586558300012,-0.4649517880135116,-2.105040701884501,-0.14991479080105788,1.0231542242070775,-2.1005748861533555,-0.15631480434689454,1.0371839807641041,LB
2.1761323225817804,1.5124973533413828,-1.584594221448588,0.624966726129483,-0.6684222391306396,0.7230941536380511,1.0344819865064472,-2.459790400181985,-1.8424623144754773,0.9434117541509073,-2.4454988609628523,-1.8229799021678383,-1.0755540765815874,-1.9573003308403163,0.7900816648920124,0.312801082024036,-0.29836135126397095,-0.5178386959136712,-2.10485773975769,-0.15023538637820652,1.023276603818999,-2.1077312957954115,-0.15459773927821235,1.0315156253589786,LB
2.1734523014511855,1.537913093631434,-1.6032528804416681,0.6021158534654193,-0.800160936915785,0.9005615303295371,1.03516926613188,-2.4599511203925917,-1.8425795628999104,1.0401376638516575,-2.4370070813017177,-1.8545549805973613,-1.0669100960886946,-1.9436313170511963,0.7900816648920124,0.2281883024496976,-0.3191152906532564,-0.8351594504972433,-2.104695031740859,-0.15053636745801932,1.02336594357889,-2.1048876267495253,-0.15378626804175988,1.032926057497829,LB
2.146652035258262,1.5328299455734238,-1.5761129917613057,0.5335626367774009,-1.0416817150714344,0.10195854832648292,1.0342445469373593,-2.4595271334891753,-1.8423981070049535,0.9617441733107781,-2.394836666495359,-1.8320594790013238,-1.0271479274447248,-1.9086039005783224,0.7895110735401578,0.6512522003213895,-0.1530841153841865,-0.5707254306094844,-2.10422176070435,-0.15085358122528253,1.0235736981684591,-2.1049942474683796,-0.1603392176206345,1.0365665542091156,LB
2.1680922591899954,1.5307966030677087,-1.5975987273168133,0.8763275228258383,-1.107550992056671,0.2794258087768963,1.034625313664515,-2.459833899456377,-1.8424623144754773,1.0114880899991827,-2.4280304466105322,-1.845960316707101,-0.9943005183250533,-1.9145842253352754,0.7678339762897068,0.8627842185339515,-0.04931455437584473,-0.35917814541753884,-2.1042764468012938,-0.15139940534080795,1.0235581033583006,-2.1385156665130847,-0.1757632218515302,1.0232747471854606,LB
2.160052140911237,1.4972479091673518,-1.5851595441231916,0.3964568020971915,-1.2173332162418469,0.5752047053509994,1.0325893772866623,-2.459930943018325,-1.8418369895451658,0.9115652062616714,-2.412938853140024,-1.8148422826608475,-1.049622135102908,-1.9641348377348768,0.7763907436509947,1.0108565481506855,0.012947155041543227,-0.12118742359594813,-2.104093484674483,-0.15172946998563622,1.0235922004855962,-2.1319746878558057,-0.1678582684147387,1.023061205123317,LB
2.17077228032059,1.5124973533413828,-1.6094723562411262,0.6021158534654193,-1.0197253852861368,0.604782633755434,1.0325816065371285,-2.4601231958354695,-1.8417839485912553,1.002019498881413,-2.4266216753263903,-1.8430146099198106,-1.0444358884305114,-1.9573003308403163,0.7872294091049165,0.9050905390444046,0.15822449967179605,-0.22696104887148627,-2.1037977746687897,-0.1519776948312345,1.0237476199495485,-2.122349131313205,-0.16943414958975483,1.030344043971119,LB
2.143971959240694,1.535879751125719,-1.5930754511358702,0.3279035854091731,-0.953855964486228,1.314652140521378,1.0324771331267297,-2.4594117468597125,-1.841677866683435,1.008769240616262,-2.3845509756586925,-1.8477717731042052,-1.0461644012824118,-1.9504658239457562,0.7832362042715035,1.1589288777674198,0.24124012129085237,-0.25340450282156607,-2.103313026303292,-0.15208185457570889,1.0238575765771067,-2.1217303262550473,-0.1655099096500923,1.0285133821445438,LB
2.1426319486753966,1.516563621940258,-1.5885519433602224,0.09939405052916929,-0.8660302139010218,0.9892953155428406,1.0311535154561415,-2.458520011734667,-1.841331704668441,0.9576762370667502,-2.381231186901205,-1.8315522712101344,-1.0444358884305114,-1.9573003308403163,0.7997793812996172,0.672405429853332,0.2827478641313378,0.03747305761844571,-2.103031494174584,-0.1522867922547725,1.024218900398914,-2.1122647007907274,-0.17124197573293656,1.0379442959582057,LB
2.1667521937377248,1.5318130661142888,-1.5902483745734428,0.07654313296291855,-1.3929847174122594,0.604782633755434,1.0306086995721615,-2.459105592328095,-1.841247955793846,0.9959873748702565,-2.428219040185667,-1.8409746313310713,-1.0599953365643966,-1.9581548629091563,0.7877997667993787,0.8839373095124622,0.8223494726242466,0.19613352151240493,-2.1026466660849836,-0.15189247322211885,1.0244567873335348,-2.116105071113494,-0.16219948349574953,1.0303348168449769,LB
2.15871213034594,1.5338464086200039,-1.6111687874543466,-0.2662217979877058,-0.9318994908862586,0.545626970681686,1.030836641558486,-2.4588264283101062,-1.8415438684840821,1.0485440429006245,-2.4061380359836573,-1.8592341118138813,-1.030605661265221,-1.9291077711932354,0.7935042783735706,1.053162868661139,0.8223494726242466,0.40768080670435053,-2.1020241897716296,-0.15159960848603152,1.0248712392374077,-2.1098724827632793,-0.1668067845590538,1.0370200015509516,LB
2.1479920458235595,1.500297714719647,-1.5942063280797822,0.1907977507289636,-0.6684222391306396,0.22027014570314837,1.0292401842376002,-2.4579482321158452,-1.8412172478731608,0.9384254739771608,-2.3876587495814814,-1.8249920121966219,-1.0599953365643966,-1.938505174431852,0.7758203859565324,0.5666394207470511,1.112904080321901,0.725001734492269,-2.1018965888787617,-0.15082652674619831,1.0251043684333363,-2.116590262865746,-0.15322489398837316,1.024838085986093,LB
2.1922125042523235,1.5135138163879627,-1.6032528804416681,0.05369184794710378,-0.3171192367898145,1.0780287132859019,1.02863320235735,-2.4583985107493658,-1.8409548347327624,0.9919797426366229,-2.4689325302973653,-1.836950411273505,-1.0513513560715038,-1.9461942133952523,0.7775316926973116,-0.03400563952835668,0.9676269124111593,0.6721148265921094,-2.1023151738183268,-0.15032331343523048,1.0253311539776753,-2.122229689115502,-0.1605731795015669,1.0253389871195162,LB
2.15871213034594,1.535879751125719,-1.5783745140544247,-0.0377118440206229,-0.11951130516383401,0.9301392649988505,1.0276195512514983,-2.4576367493598537,-1.8406868383340573,0.9749765961630155,-2.4175753012130743,-1.8349132195407614,-1.008131453607038,-1.955591616633868,0.7678339762897068,0.8839373095124622,0.8431035479516176,0.5927846379462164,-2.102653417454976,-0.15039162599491834,1.0254149430424249,-2.15153081717469,-0.1839572661182093,1.019336873380226,LB
2.157372119780642,1.5368962141722993,-1.5795053909983368,-0.42617865500593577,-0.6025529621454029,0.9892953155428406,1.026392636241775,-2.4572649091769447,-1.8404467582268842,0.9797061535496553,-2.4147433388394632,-1.8366076279860526,-1.030605661265221,-1.9359422780877953,0.7843771533178203,0.33395417300254676,1.0921504128087867,0.46056771460451007,-2.102756713415869,-0.14995537251968422,1.0256980284946238,-2.120388119863906,-0.1679967630913826,1.030816736461765,LB
2.178812343712375,1.5368962141722993,-1.583463344504676,-0.12911596330749636,0.3415739645065685,1.018873050212154,1.025692405367119,-2.456870183833612,-1.8402457609278553,0.9917376651091832,-2.454288649934094,-1.8378840080320125,-1.0824695442225796,-1.9402138886383002,0.7775316926973116,0.33395417300254676,-0.0700684842494642,0.3019071641083777,-2.102606833002025,-0.1498755618063857,1.0258249015264214,-2.1070024959450184,-0.14305561981887951,1.0253260691429174,LB
2.1479920458235595,1.5246969919631184,-1.5749821148173937,0.8991785451638589,0.2098352667214231,0.5752047053509994,1.024873022999612,-2.4554295542501676,-1.839882849137943,0.9420936807808605,-2.396795924771983,-1.8256302022196016,-1.089385011863572,-1.9530287202898122,0.7741088455583611,0.8416309890020088,-0.6719317165187672,-0.4649517880135116,-2.102194324295452,-0.150256353599497,1.0257141519424147,-2.112772836241974,-0.14395583521706473,1.0219724042385598,LB
2.134591885283611,1.4911478816502066,-1.6049490800601836,1.059135252508132,-0.009729152885994165,0.5752047053509994,1.0242479093704493,-2.453444834345055,-1.839584144818553,0.9441939833143081,-2.358325806798245,-1.8285062376070043,-1.1153169533422513,-1.968406448285381,0.8037723524756378,1.5396870093423856,-0.5474083520592254,0.19613352151240493,-2.100761683582938,-0.1504849639477592,1.0260765330394872,-2.086323475004788,-0.14131838562253055,1.0380281309900103,LB
2.1278918324571237,1.5267299180562786,-1.5913790199226499,0.46500986911125297,-0.7782046071304874,0.9597175808735271,1.0239318988894088,-2.452090591874812,-1.8394752712815794,0.9840945625346355,-2.35355853176413,-1.8415988870740736,-1.0392496417581143,-1.9316706675372914,0.7963565341606667,1.77237225708689,0.012947155041543227,0.9101055657341348,-2.099570066779175,-0.15075347965267064,1.0265980340639396,-2.1053093859222063,-0.1639031024793207,1.038359780266772,LB
2.17077228032059,1.5216467699982683,-1.587986620685619,-0.5404339163699953,-0.029907099200566903,0.9005615303295371,1.0224848126428943,-2.451729932228293,-1.8391877334788025,0.9699033059171285,-2.4353343838836983,-1.8321458715371854,-1.0565376027439004,-1.9291077711932354,0.779813357132553,0.9262437685763473,0.2827478641313378,1.3332003093223723,-2.099112323893649,-0.15058033098653129,1.0270005916210814,-2.110500060412229,-0.1520060063730557,1.0281920145226262,LB
2.138611916979504,1.5429962416894445,-1.584594221448588,-0.4718808493559337,-1.0197253852861368,0.48647130760793794,1.021784581768239,-2.4511115961571592,-1.839277065611704,1.0028224037055204,-2.3778653421594287,-1.8462529365866334,-1.0548083817753051,-1.9205645500922275,0.8100474554016842,0.7781714389596129,0.4902871220861068,-0.015056789521927549,-2.098216417095578,-0.15030234621394023,1.0274787443596693,-2.082838732016426,-0.15417620450998062,1.0474598357001987,LB
2.1533520880847496,1.5287632605619936,-1.6072108339480073,-0.4718808493559337,0.31961734709192696,-0.16424210986699192,1.0216386643603266,-2.4497095743634367,-1.83964276903077,1.0282948176960773,-2.3968279105219827,-1.8533092559673527,-1.0599953365643966,-1.9137296932664352,0.7952155851143499,0.3551074025344893,0.9676269124111593,-0.015056789521927549,-2.0977964818820136,-0.14958337343227546,1.0277771603032106,-2.0896509861735733,-0.14682926360529816,1.0389677160634423,LB
2.1453119698059915,1.5368962141722993,-1.5698932843671425,-0.0377118440206229,1.1320055759587528,-0.045930434996278045,1.0203625346035554,-2.4475491977498844,-1.839508770831417,0.9548824384137682,-2.3948121091299224,-1.8298550759088474,-1.0738255637296867,-1.9162929395417234,0.7969271255125213,-0.2794883749963328,0.8638573514028175,1.14809630487616,-2.0977073637981065,-0.148791353557083,1.0283412166570782,-2.0839670221551834,-0.14121821228845313,1.039512643770172,LB
2.1479920458235595,1.5368962141722993,-1.587986620685619,0.030840923645524994,-0.029907099200566903,-1.1107345014100733,1.0200577485385083,-2.446452457008374,-1.839888432396249,0.9991473050149187,-2.3939650985042458,-1.844123778606037,-1.0599953365643966,-1.9376509922942435,0.8066246082627336,-0.08910966944777252,0.5940564112182776,0.6192280918962961,-2.0976351241391815,-0.14853839417764492,1.0288582242616544,-2.0915505894873294,-0.15741940023876802,1.0436516689253028,LB
2.1533520880847496,1.5145302794345428,-1.5755474374919973,0.2364999450789615,-0.029907099200566903,-0.9332667372483452,1.0184043057210417,-2.44561051020944,-1.839718143017906,0.9229006372440764,-2.405611319821776,-1.8189333872623077,-1.0651815832367937,-1.9436313170511963,0.7992087899477626,-0.6390927228256289,0.8431035479516176,0.40768080670435053,-2.098092867024706,-0.1480791443951893,1.0292145260259533,-2.0982676947751204,-0.15597461839358473,1.0384963417336734,LB
2.188192417669458,1.5287632605619936,-1.5947716507543857,0.5564135094414646,-0.029907099200566903,-0.6966438912182322,1.0186590136224267,-2.446006371076,-1.8399358900918528,1.0029094137776609,-2.466691954727711,-1.8406095531956548,-1.037520420789519,-1.9470483955328601,0.7809543061788699,-0.38525438410261376,0.9883807158623593,0.7514451884423486,-2.098903031423866,-0.14776869424769712,1.029422016296706,-2.12544045734529,-0.1681816467616596,1.0275901422659917,LB
2.1721122908858876,1.5389295566780143,-1.5953369734289893,0.6021158534654193,1.0880927725734857,-0.8741110741745972,1.019329888332177,-2.444878359771774,-1.8403462595773699,1.0235092637283576,-2.4374603875455665,-1.849195856517929,-1.0997575052083661,-1.9513200060833642,0.8066246082627336,0.1435755228753592,1.0506425340302157,0.8836622849884013,-2.0984635172373225,-0.14696720530482504,1.029922636134675,-2.0822685136149612,-0.1430004908699241,1.0416224920705868,LB
2.16407217260713,1.5094471313765325,-1.5885519433602224,0.41930767476125513,0.8026590472178974,-0.3121315969010677,1.0182955152275683,-2.4436302450492957,-1.840159220424107,0.9453027156197007,-2.4209062762437856,-1.8251787315483234,-1.0634530703848928,-1.944485499188804,0.802631637086713,0.1858818433858125,0.9883807158623593,0.725001734492269,-2.098279879973512,-0.146466697441766,1.0303693349341296,-2.096586056601806,-0.15764394986012278,1.0405223550022835,LB
2.1761323225817804,1.5246969919631184,-1.589117497629531,-0.0377118440206229,0.6050510724475153,0.1906924110338349,1.01758060627046,-2.443074624799475,-1.8400587217745927,0.9795665928398855,-2.4454731674915413,-1.8345760099653003,-1.1066729728493585,-1.9487571097393082,0.7877997667993787,0.058962618602932226,0.9676269124111593,0.645671545846376,-2.0981239233266744,-0.1455536087726714,1.0305852834070022,-2.093233577289997,-0.13588347802064066,1.0303514256720325,LB
2.1613921514765346,1.5287632605619936,-1.5919445741919582,0.2364999450789615,0.4733125184770419,-0.22339761795264304,1.0173846106988853,-2.442080430540167,-1.8401731785698736,0.993099674258232,-2.4170898344337064,-1.8407600434194145,-1.0997575052083661,-1.9530287202898122,0.7792429994380907,0.2281883024496976,0.6148104865456486,0.6985582805421892,-2.0980780140107216,-0.14499222833167238,1.0306994691356202,-2.104630522357859,-0.13961611124747045,1.0249037303977888,LB
2.17077228032059,1.5196134274925532,-1.6106032331850382,0.2364999450789615,0.5611382690622482,0.4273152570639479,1.0177049382630003,-2.4412631158604676,-1.8403043851400724,1.019222510075185,-2.4271099386740644,-1.8484991425190427,-1.0790118104020834,-1.9487571097393082,0.7820952552251866,0.5666394207470511,0.5110409255373068,0.804331923138162,-2.0979011281169058,-0.14472709443664658,1.030872597960261,-2.10873744447776,-0.14859204536335788,1.027390045444798,LB
2.113151661351878,1.5307966030677087,-1.5919445741919582,0.4878607417753167,0.2317917403213927,0.22027014570314837,1.0177083919294603,-2.43869657132337,-1.8404188419353524,0.9925586611364084,-2.3258364123251427,-1.8457763842113952,-1.037520420789519,-1.9538832523586525,0.7649817205026108,0.39741386159837433,0.8846111548540175,0.725001734492269,-2.098469593470316,-0.1445647675621408,1.0308334787754567,-2.1411548667120552,-0.16845325768090297,1.017246006596446,LB
2.1667521937377248,1.500297714719647,-1.5795053909983368,-0.12911596330749636,0.10005307129918169,0.48647130760793794,1.0154393330655944,-2.438347616300884,-1.8397991002633476,0.90475257605884,-2.4279339650039757,-1.811715430233846,-1.0288764402966257,-1.9496116418081484,0.7935042783735706,0.5031798707046553,0.9468728370837883,0.7514451884423486,-2.0985526353212296,-0.1445451530648047,1.031148282485605,-2.1199690599499306,-0.17517293871515463,1.0351381950823322,LB
2.15871213034594,1.5368962141722993,-1.5862904210671036,-0.31192369298979,1.0002670219882794,0.8709836019251025,1.0148832927656206,-2.4369348507104744,-1.8397097681304462,0.9962260064542457,-2.414957800671429,-1.8418970806655965,-1.0755540765815874,-1.9393597065006916,0.7723975388175819,0.03780948605839191,0.6563180934480485,0.725001734492269,-2.0988091873809633,-0.14408996145421157,1.0312069612628114,-2.1134017635202764,-0.14539725554097038,1.0223979065697941,LB
2.129231843022421,1.5450295841951596,-1.5795053909983368,-0.6546888783861411,1.0002670219882794,0.8118281325864757,1.0140000175686135,-2.4344856144575324,-1.839679060209761,0.9938767345064559,-2.3616922632893385,-1.844296563677761,-1.1395196738523352,-1.9521745381522042,0.785517868706745,0.03780948605839191,0.2827478641313378,0.3812373527542708,-2.0984635172373225,-0.14342171582082983,1.0313010587613949,-2.083502749657895,-0.12081176121965471,1.0280638892853402,LB
2.1721122908858876,1.5297801400211286,-1.6043837573855801,0.030840923645524994,0.8246155208178669,1.018873050212154,1.014356608630553,-2.4336687365175353,-1.8397265179053648,1.0257827249202232,-2.4330619973495633,-1.8502158458122981,-1.089385011863572,-1.9461942133952523,0.7889407158456956,0.7570182094276705,0.13747056028251062,0.24902025620821822,-2.0978997778429065,-0.14333108331589756,1.0314342754447825,-2.0980342088971238,-0.14355178035947744,1.0315907605289925,LB
2.1814923648429705,1.5135138163879627,-1.589117497629531,-0.22051990298562157,0.2757046875213318,0.8709836019251025,1.0131150155383768,-2.433779056966446,-1.8393356898239208,0.9570706125052187,-2.454106436030407,-1.8267839606017573,-1.0807410313706791,-1.936796460225404,0.8037723524756378,0.7993245299381239,0.6770721687754194,0.16969006756232513,-2.0970619328267754,-0.14290700435625137,1.0317482861984821,-2.0852910085500636,-0.14649311147752153,1.0416159012661996,LB
2.174792312016483,1.5084306683299527,-1.5896828203041344,0.030840923645524994,0.12200951613621683,0.8709836019251025,1.0119131396104843,-2.4337631596412668,-1.8389169454509442,0.9471704169701985,-2.4405924566555144,-1.8245098861093925,-1.0790118104020834,-1.9504658239457562,0.7906520225864746,0.48202664117271277,0.5940564112182776,0.011029638309235191,-2.096843188439003,-0.14266419040646997,1.0318357757266594,-2.102770733110004,-0.15046508501932843,1.0324246291000545,LB
2.134591885283611,1.5277467975154135,-1.5919445741919582,0.624966726129483,-0.16342423798230593,0.33858185932088647,1.012061647268241,-2.4325063974726744,-1.8389616115173948,0.9882072960435279,-2.3662031279668985,-1.8422203559610801,-1.0288764402966257,-1.9496116418081484,0.7986384322533003,0.39741386159837433,0.7393339869432758,0.03747305761844571,-2.0969248800159184,-0.14279946280189132,1.0320443232726773,-2.1158034289531926,-0.17591650722179622,1.0382538001322261,LB
2.1734523014511855,1.4962310297082166,-1.5800707136729402,0.35075490709510726,0.4074432414918052,1.2259181615729535,1.0101776722146052,-2.432237977251373,-1.8381548306921274,0.8985843372813643,-2.439880555236121,-1.8089675902222395,-1.0530798689234042,-1.9180016537481714,0.7935042783735706,0.312801082024036,0.9053652301813885,0.03747305761844571,-2.0966656274081865,-0.1423212748840767,1.0322367473709038,-2.0957796530636394,-0.15158581621333525,1.0376485006573102,LB
2.206952620470596,1.5124973533413828,-1.6190844628723207,0.2364999450789615,0.7367897702326608,0.9597175808735271,1.0108390493415922,-2.4326831897043415,-1.8381827469836591,1.0284740067555354,-2.490026083709083,-1.8471224356572429,-1.0565376027439004,-1.9299619533308434,0.7895110735401578,0.4185670911303169,0.4902871220861068,0.06391645960722159,-2.0964833404183763,-0.14219952972819722,1.0323585983451928,-2.103164824880957,-0.15373853443961574,1.0340317308418172,LB
2.196232535948216,1.55112919529975,-1.5874212980110156,0.09939405052916929,0.5391817954622786,0.48647130760793794,1.0114650263873695,-2.4332540958437576,-1.83834186984539,1.0332087330573512,-2.487932415368253,-1.8487889755425795,-1.0582661155958013,-1.9376509922942435,0.7792429994380907,0.16472861385387,0.635564425934934,-0.0683005849775271,-2.096706810765144,-0.14198444661947712,1.0323081134512901,-2.114191296691536,-0.15425015797809152,1.0270336147435408,LB
2.157372119780642,1.5216467699982683,-1.5840286671792798,0.3279035854091731,0.4952688482623395,0.39773752239463445,1.0107812004283963,-2.432320695751071,-1.8381464558046676,0.9588375200097722,-2.411290625694682,-1.83012261408442,-1.0720970508777858,-1.9350880959501875,0.7906520225864746,-0.1525692472008547,0.5110409255373068,-0.20051759492140656,-2.096837787343009,-0.14174163266969575,1.0323678495037614,-2.098426276224049,-0.14815303068448196,1.0339671409588231,LB
2.180152354277673,1.5277467975154135,-1.6021220034977561,0.2822018400810457,0.3635302942918661,-0.4008653821143712,1.0112293136515111,-2.432294666064788,-1.8384423684949045,1.0171894034390336,-2.4486924545755318,-1.8464201479463662,-1.0669100960886946,-1.9470483955328601,0.8049133015219546,0.1012690638114741,0.13747056028251062,-0.14763084290515865,-2.0967135621351374,-0.14197024301795794,1.0325935777728352,-2.0945676859050226,-0.15723048274295762,1.0415990288069685,LB
2.154692098650047,1.539946436137149,-1.5840286671792798,0.1679468181953172,0.7148332966326912,0.309004124651573,1.0111749184047747,-2.431127522883197,-1.8385093675945805,0.9967403135143228,-2.408439349521207,-1.8424683861446838,-1.0582661155958013,-1.9658435519413249,0.7655520781970732,-0.2794883749963328,0.42802530391825044,-0.35917814541753884,-2.0977215416750914,-0.1420825191061578,1.032255514006857,-2.1377423288940562,-0.1627427053342363,1.0161830416648865,LB
2.180152354277673,1.554179000852045,-1.599860481204637,0.1679468181953172,0.4733125184770419,0.1906924110338349,1.0125287556568836,-2.431089613876999,-1.83899231943808,1.0669298741839877,-2.4529789820392955,-1.8620599837933633,-1.1066729728493585,-1.9402138886383002,0.7866588177530619,0.12242229334341666,0.42802530391825044,-0.22696104887148627,-2.097470390711352,-0.14158404032902977,1.0322396548778825,-2.0901732927330214,-0.132518595221598,1.0304378970255916,LB
2.204272599340001,1.5145302794345428,-1.5862904210671036,0.2593508177430252,0.1439659897361864,0.6935164189687375,1.0116929683736937,-2.4322530884450875,-1.8385763666942565,0.9552287557306045,-2.498326036262979,-1.8230746552716868,-1.0790118104020834,-1.941068070775908,0.7661226695489276,0.16472861385387,0.6563180934480485,0.06391645960722159,-2.097743146059069,-0.14114846321577296,1.0320472307796555,-2.117661868571695,-0.14344421167858898,1.0183566889517688,LB
2.1426319486753966,1.5124973533413828,-1.586855743741707,-0.06056276158687363,-0.009729152885994165,0.39773752239463445,1.0104021605344704,-2.4311910248359743,-1.838322328441318,0.9451700467968327,-2.3812968188636363,-1.827528051152568,-1.0634530703848928,-1.9513200060833642,0.779813357132553,0.12242229334341666,0.635564425934934,-0.20051759492140656,-2.098046282571755,-0.1410064272005803,1.0319533975998887,-2.1179250462954484,-0.1568452524045258,1.0260492122002758,LB
2.2578731866128208,1.516563621940258,-1.5947716507543857,0.12224496809542003,-0.11951130516383401,0.9301392649988505,1.0101345013838618,-2.434531821518082,-1.8379203338432608,0.9871933271830402,-2.595586137521768,-1.8255047936998026,-1.0928420375673737,-1.9282532391243952,0.802631637086713,0.1858818433858125,0.46953304675873586,-0.015413786022901362,-2.0974879442733334,-0.14059384639454497,1.0322129586774416,-2.0774456131235164,-0.13720186666578,1.0415017485342144,LB
2.1654121831724273,1.5297801400211286,-1.5817671448861605,-0.12911596330749636,-0.4488579345749599,1.2554958962422669,1.0093375678483416,-2.4347581400320393,-1.837607671378105,0.9711981191688809,-2.4284140134322505,-1.8330097968958043,-1.0911135247154728,-1.9453400312576443,0.7758203859565324,0.0801159312669338,0.44877924330753594,0.2225769754624847,-2.0976128446182045,-0.1402698690075107,1.0321632667399874,-2.1072238351588415,-0.14048405604138942,1.0236694045521633,LB
2.1761323225817804,1.5328299455734238,-1.5970334046422094,-0.08341405333801648,-0.646465909345342,0.6639386842994242,1.009479168173179,-2.435460941561682,-1.8376914202527,1.0152794892812593,-2.4436514654184682,-1.8461470360588024,-1.077283297550183,-1.9487571097393082,0.7792429994380907,0.12242229334341666,0.24124012129085237,0.06391645960722159,-2.0977937813340164,-0.14027663262728174,1.0321193898164907,-2.1116668149875344,-0.14902971543372276,1.0256885633842108,LB
2.169432269755293,1.5206303069516882,-1.587986620685619,-0.12911596330749636,-0.6684222391306396,0.6343607558949895,1.008624385724463,-2.4359496532890432,-1.8374848396953651,0.9676427670132044,-2.4326654963994296,-1.8315940740500674,-1.0617238494162975,-1.941068070775908,0.7969271255125213,0.5666394207470511,0.6770721687754194,0.3283506180584575,-2.097425156532399,-0.14011227666684495,1.0323707570107403,-2.100286065471904,-0.15639010242351647,1.037414658917654,LB
2.174792312016483,1.5145302794345428,-1.605514634329492,0.1907977507289636,-0.47081440817492953,0.6639386842994242,1.0086459711398341,-2.43628760247102,-1.8374736731787522,0.9973519684768938,-2.4357465281377935,-1.8409216810671558,-1.0807410313706791,-1.9393597065006916,0.7912226139383293,0.7781714389596129,0.3865175610777651,-0.015056789521927549,-2.0968749198779695,-0.13996888792769815,1.0324669690598538,-2.0965098025433853,-0.14558079460273632,1.0337612442297688,LB
2.16407217260713,1.5226636494574033,-1.6004258038792405,0.3279035854091731,-0.5805964885454333,0.33858185932088647,1.008986157286091,-2.436659879393632,-1.8375322973909691,1.000902151717393,-2.4184742231379306,-1.843176247567552,-1.0755540765815874,-1.955591616633868,0.7615588733636602,0.7781714389596129,0.19973224251228147,-0.0683005849775271,-2.096640647339213,-0.1399228953132549,1.0321537512626027,-2.129203223980283,-0.14992186318084166,1.0143568615852947,LB
2.16407217260713,1.5114804738822476,-1.5874212980110156,0.09939405052916929,-0.953855964486228,-0.10508650491378028,1.0079163841002732,-2.4371574132629887,-1.837367591270932,0.9467586267277919,-2.421553244842824,-1.8256051205156416,-1.0444358884305114,-1.9376509922942435,0.809477097707222,0.3551074025344893,-0.25685360842348554,0.6192280918962961,-2.096347637881517,-0.14063239902724006,1.0326353401458017,-2.0953329257479356,-0.16549444665221444,1.045671618653877,LB
2.1372719064142065,1.5145302794345428,-1.589117497629531,-0.0377118440206229,-1.1953768864565493,0.3681595939901999,1.0069035964110362,-2.4368434847646623,-1.8372140516675068,0.9542974895129431,-2.37067571461577,-1.831070145122905,-1.0236901936242286,-1.9180016537481714,0.7815248975307244,0.5454861912151087,-0.17383797321062067,0.03747305761844571,-2.096361815758502,-0.14124383025454504,1.0326794813881148,-2.1172009701477887,-0.16437640467522996,1.0308533813341576,LB
2.1506720669541544,1.5287632605619936,-1.5851595441231916,0.14509590062906644,-0.029907099200566903,0.07238075553663315,1.0064986540186642,-2.4360622447844085,-1.8372308014424266,0.9756511395935694,-2.3990338785588503,-1.8362732052665873,-1.0582661155958013,-1.942776784982356,0.7860884600585996,0.8416309890020088,-0.5474083520592254,-0.015056789521927549,-2.095999267189878,-0.14199459204913384,1.032708820776718,-2.1111148165823295,-0.1571370324514357,1.030734219590838,LB
2.160052140911237,1.5318130661142888,-1.5959025276982974,-0.2890726706517695,-1.3929847174122594,-0.10508650491378028,1.006409722107333,-2.4367231193025884,-1.8374792564370588,1.0087037676906911,-2.4135729750034067,-1.8459881852670565,-1.0461644012824118,-1.9316706675372914,0.8060542505682715,0.7570182094276705,-0.8172091563056798,0.09035986159599749,-2.095455781905442,-0.14296381876232836,1.0330283822255588,-2.0946817295853153,-0.16193459561906168,1.0441317431168629,LB
2.180152354277673,1.537913093631434,-1.5795053909983368,-0.6318375567002069,-1.107550992056671,0.45689357293862454,1.0055281737435562,-2.4380946566650596,-1.837387132675004,0.9844874000880617,-2.4584790453623393,-1.8352755108201824,-1.0150462131313358,-1.941068070775908,0.811188404448001,0.3551074025344893,-0.40213091227231273,-0.3327346914674591,-2.0954193245074797,-0.1440399106679056,1.0333038024320864,-2.10701126853581,-0.18146436193861903,1.0469288804987695,LB
2.1613921514765346,1.5145302794345428,-1.5862904210671036,-0.31192369298979,-0.8660302139010218,0.5752047053509994,1.0042442732372514,-2.438399151585807,-1.8371079697596868,0.9500176277466731,-2.417257016782749,-1.8269205165455389,-1.0824695442225796,-1.9393597065006916,0.7769611013454572,0.39741386159837433,-0.8379629597568797,-0.4120648801133521,-2.0953545113555463,-0.1446324037598516,1.03311772198545,-2.107055806304445,-0.14265425417831432,1.0250558461630443,LB
2.162732162041832,1.5409628991837294,-1.5783745140544247,-0.014860926454372165,-1.107550992056671,0.7230941536380511,1.0039610725875752,-2.439086492529973,-1.837024220885091,0.9861104394535312,-2.425929874241697,-1.8379536794319011,-1.0686393170572897,-1.9496116418081484,0.7792429994380907,0.4185670911303169,-0.44363879105088366,-0.7029425271555371,-2.095445654850452,-0.1451444097765215,1.0328840641518888,-2.1155173075304456,-0.1535865936778608,1.0257652803472772,LB
2.1560321092153445,1.5216467699982683,-1.5913790199226499,0.3279035854091731,-1.3051591106417253,0.9597175808735271,1.003764213599386,-2.439467766290461,-1.8368650980233603,0.9764058012093607,-2.4062691251230004,-1.8360753384909034,-1.0582661155958013,-1.9530287202898122,0.809477097707222,0.4185670911303169,-0.6511779130675671,-0.8087159965471635,-2.0951864022427213,-0.1459858040760428,1.033008029676708,-2.0970172631799553,-0.16433337720287453,1.0439535277662342,LB
2.1774723331470778,1.5318130661142888,-1.587986620685619,0.09939405052916929,-0.029907099200566903,0.5160492360123725,1.0037020476031155,-2.4396402784730418,-1.8368343901026751,0.9918134758651077,-2.4493728072087233,-1.8382407255994422,-1.077283297550183,-1.941068070775908,0.8037723524756378,0.947396859554858,-0.6719317165187672,-0.7293858079012705,-2.0943634102405744,-0.146561388118561,1.0330817746264405,-2.0886380893444616,-0.14977126702759777,1.0412784520815777,LB
2.1319118641530164,1.5338464086200039,-1.5896828203041344,0.05369184794710378,-0.029907099200566903,1.0780287132859019,1.0036709646049804,-2.438072208244339,-1.8368148486986031,0.9952266828534256,-2.36247442848742,-1.8446867235171376,-1.0288764402966257,-1.941068070775908,0.7809543061788699,1.1800821072993624,-0.6511779130675671,-0.7029425271555371,-2.0941419653048037,-0.147521822126053,1.0328996589620474,-2.126169257195683,-0.17024494852195157,1.0282890311632051,LB
2.1399519275448013,1.5175805013993928,-1.571589483985658,0.35075490709510726,-1.261246163441786,1.018873050212154,1.002344756684548,-2.4380177031294377,-1.8362900224178063,0.9180168738880002,-2.3816248912830322,-1.8187801101825523,-1.0686393170572897,-1.9470483955328601,0.819745171809289,1.2223885663632474,-0.7549473381378234,-0.5442819766594047,-2.0930070600089814,-0.14830504929554292,1.0332025683254646,-2.0818325833340774,-0.15860937877109682,1.0505271960619786,LB
2.118511703613068,1.516563621940258,-1.5806362679422488,0.6478175987935466,-1.3710282438122898,0.9005615303295371,1.00162466722775,-2.437105703282185,-1.8359773599526505,0.9360520804252134,-2.3377610669746383,-1.8269818273774412,-1.1377911610004343,-1.9256903427803393,0.7895110735401578,1.2858481164056434,-0.5059004732806545,-0.4120648801133521,-2.0916507097773884,-0.1479357556560425,1.0331822157766137,-2.068744552687433,-0.11222441896347699,1.0329257938656533,LB
2.129231843022421,1.5328299455734238,-1.5896828203041344,0.3964568020971915,-1.3051591106417253,0.9301392649988505,1.0018776482959053,-2.4366228438668402,-1.8359969013567226,0.9928472589004388,-2.3572659074102753,-1.8442101711418994,-1.0997575052083661,-1.936796460225404,0.8083361486609051,0.8839373095124622,-0.11157626379323268,-0.20051759492140656,-2.090654207566421,-0.14782212684388849,1.0334261820440083,-2.074139696024371,-0.13786610327026622,1.044023390292738,LB
2.135931895848909,1.5307966030677087,-1.5755474374919973,0.6478175987935466,-0.646465909345342,1.2850738246467015,1.001579769563777,-2.4358999523108715,-1.8356758640041078,0.9549720329434972,-2.3741964193274905,-1.8310868662588788,-1.0254194145928244,-1.9359422780877953,0.7940748697254251,0.8839373095124622,0.5525488043158777,-0.2798479567716458,-2.090487448727594,-0.1479120829868437,1.0335030988195357,-2.1146150803082455,-0.17196268589488928,1.036822277419337,LB
2.1225317353089608,1.4972479091673518,-1.5840286671792798,0.7620725608096925,-0.09755493223413483,0.13153682545413536,1.0003813473023437,-2.4340657329073223,-1.8353213271016546,0.9049041975706883,-2.342396466334574,-1.8167150498898539,-1.0530798689234042,-1.9265448748491796,0.7838065619659659,0.1858818433858125,0.9053652301813885,-0.25340450282156607,-2.0906818881833926,-0.14736693523329533,1.0334660941852611,-2.107526826948495,-0.1533385134075616,1.0309293074006978,LB
2.1412919381100988,1.516563621940258,-1.5828977902353678,0.3736057797591709,0.97831054838831,-0.3121315969010677,0.9996578041790871,-2.432068958986414,-1.8352738694060506,0.9438235443933145,-2.380475326923752,-1.8271434650251828,-1.030605661265221,-1.9291077711932354,0.7917929716327915,-0.04680322978136789,1.0713963374814157,-0.09474400428673761,-2.0911139758629447,-0.14697667437250467,1.0335667996542508,-2.111259901737732,-0.16655601507173248,1.035976018136027,LB
2.1680922591899954,1.5104640108356677,-1.5975987273168133,-0.24337092532364213,0.5172253218623091,0.3681595939901999,0.9989403049721339,-2.431423195661949,-1.8351957037897615,0.9695414818547629,-2.4254733344657438,-1.832667013608352,-1.0651815832367937,-1.9333793817437395,0.7849475110122827,-0.8294713729528166,-0.07454092474708618,-0.09474400428673761,-2.091971399852055,-0.14710180133826956,1.0335615132779261,-2.104932839332837,-0.15008321620217424,1.0307771916354422,LB
2.16407217260713,1.5307966030677087,-1.617388263253805,-0.014860926454372165,0.4952688482623395,0.24984807410758286,1.0001913956470738,-2.4306053568946058,-1.8357261133288652,1.0571545940990696,-2.413675311924854,-1.861524907442219,-1.0046737197865419,-1.9461942133952523,0.7638407714562939,-0.575633172783233,0.2827478641313378,-0.015413786022901362,-2.093543118786426,-0.14761583644087092,1.0333135822282877,-2.151860126736719,-0.18168555003869594,1.0177946251536323,LB
2.0957314691160374,1.5155471588936777,-1.5992949269353285,0.3279035854091731,0.4733125184770419,1.0780287132859019,1.0001007369025132,-2.4273106799251076,-1.8356842388915668,0.9771277263623671,-2.289533197824748,-1.8425575655365412,-1.1205032000146484,-1.9376509922942435,0.7769611013454572,-0.3429479250387287,-0.5681621555104254,-0.6500556192553775,-2.0937247306392366,-0.14755090569106846,1.0330632723093034,-2.090979696271188,-0.123361811260967,1.0245259454903173,LB
2.2015925782094063,1.5277467975154135,-1.5925098968665616,1.059135252508132,0.4074432414918052,0.13153682545413536,1.0010315000133376,-2.4282019783104505,-1.8357316965871708,0.9970978301473751,-2.4926995156168488,-1.8368891004416026,-1.1395196738523352,-1.9538832523586525,0.7723975388175819,0.5454861912151087,-0.4851465338913691,-0.7822727158014301,-2.093333151179643,-0.14735002618386783,1.0326966621111706,-2.0943321755829976,-0.1195485015234708,1.0199706451300943,LB
2.188192417669458,1.5114804738822476,-1.5992949269353285,0.8763275228258383,-0.6025529621454029,0.6343607558949895,1.0014053594075745,-2.4293761966752263,-1.835592115129512,0.9779857662816919,-2.462635182828836,-1.832906683223969,-1.0669100960886946,-1.9359422780877953,0.7860884600585996,1.095469327725024,-0.8172091563056798,-0.25340450282156607,-2.0927592847302385,-0.1480162427313183,1.0326813316198284,-2.104519177936271,-0.1503521379043955,1.0312053302884316,LB
2.17077228032059,1.5084306683299527,-1.6021220034977561,0.2136490724148978,-1.9858082102793897,0.7822498167117989,1.0011696466717164,-2.4309663659328873,-1.8354692834467723,0.9764152775538512,-2.4286622088694068,-1.8346679762131533,-1.0288764402966257,-1.9598632271843721,0.7974974832069835,0.947396859554858,-0.3606231694318273,0.06391645960722159,-2.092687720208313,-0.14890701145516827,1.0328449449670845,-2.1214064152104277,-0.1794743413421824,1.0366058354032632,LB
2.162732162041832,1.5368962141722993,-1.5953369734289893,-0.2890726706517695,-2.7981971582195757,0.841405867255789,1.0013587349103716,-2.433182470532509,-1.8356088649044309,1.0182300783612668,-2.4194584403961197,-1.8486719275907666,-1.0738255637296867,-1.9325248496748992,0.809477097707222,0.8839373095124622,-0.734193398748538,0.989435927584374,-2.091815443205217,-0.1494568937425564,1.0333944637860588,-2.0814148730494537,-0.14916283167632247,1.0456088741961111,LB
2.130571853587719,1.539946436137149,-1.615126740960686,-0.8374963087205208,-2.1395043883672082,0.5160492360123725,1.0020693267844056,-2.4334370024312637,-1.8362090651723637,1.0675802960103833,-2.3529612896452825,-1.8684669657271211,-1.0409781546100152,-1.941068070775908,0.8037723524756378,0.9897033186187432,-0.5681621555104254,0.6985582805421892,-2.091315841825735,-0.1502455318078632,1.0337943781550383,-2.102932013817637,-0.16759808666783974,1.0419504504968913,LB
2.1520120775194522,1.5175805013993928,-1.5964678503729013,-0.5632844896861453,-1.5247239904560925,0.4273152570639479,1.0012369931676757,-2.4340081706145016,-1.8362006902849048,0.9797414744700293,-2.3965157435848266,-1.837739091520244,-1.049622135102908,-1.9436313170511963,0.7997793812996172,0.7781714389596129,-0.8379629597568797,-0.015056789521927549,-2.090998527436064,-0.15113697689369024,1.033969621530209,-2.103949634349482,-0.16369872198563268,1.0391277407939625,LB
2.157372119780642,1.5216467699982683,-1.589117497629531,0.05369184794710378,-0.8879866875009914,0.24984807410758286,1.000771611612263,-2.4342091582257,-1.8361616074767597,0.9711205854412309,-2.4095659295847227,-1.834174702701942,-1.09629977138787,-1.9222732642986755,0.8260200410779432,0.672405429853332,-0.713439595297338,0.011029638309235191,-2.089804210084303,-0.15134935455450202,1.0344890080041313,-2.0543278119431734,-0.13688050523162568,1.0561873788696636,LB
2.1412919381100988,1.5460460472417394,-1.5953369734289893,0.5335626367774009,-0.4488579345749599,0.309004124651573,1.0020330632865815,-2.433496923118479,-1.8365524355582046,1.035113478299949,-2.3798941650726637,-1.8565057797942426,-1.0669100960886946,-1.9188558358857795,0.8203155295037514,0.20703507291775505,-0.6304239736782817,-0.3856215993676186,-2.089212114935917,-0.1518011643552095,1.0348524463764688,-2.0688572467383737,-0.14915812554653354,1.0536346285144325,LB
2.138611916979504,1.5175805013993928,-1.5862904210671036,0.07654313296291855,-0.09755493223413483,-0.016352642206428274,1.0012249053350675,-2.432347249524997,-1.8364882280876818,0.9538977600726156,-2.3744357007031716,-1.8307273618354536,-1.0444358884305114,-1.9419226028447483,0.7883701244938409,-0.2371819159324477,-0.3606231694318273,-0.22696104887148627,-2.089863622140242,-0.1523043776661771,1.034828129045374,-2.1144099366466533,-0.16395621451550926,1.0324496741567257,LB
2.1372719064142065,1.5257134550096985,-1.583463344504676,0.5107117641133372,-0.1853806828193411,-0.2529759338273197,1.0010004170152025,-2.4312882430938036,-1.8365440606707448,0.9637970941217728,-2.373694610102085,-1.8339517542222983,-1.049622135102908,-1.9393597065006916,0.7895110735401578,-0.32179483406021786,-0.0700684842494642,-0.49139524196359147,-2.0904894741385927,-0.15253095892850804,1.0347586131967017,-2.11025442787006,-0.1606242746249889,1.0332869699460692,LB
2.1667521937377248,1.5287632605619936,-1.5800707136729402,0.3279035854091731,-0.27320643340454737,-0.19381988328332958,1.0006524601194118,-2.431483116349164,-1.8365217276375194,0.9651160289776832,-2.4314430464786745,-1.830863917779235,-1.0720970508777858,-1.9376509922942435,0.7803839484844076,-0.2160288249539369,-0.0078067707539336674,-0.3327346914674591,-2.090976247915088,-0.15244641368136974,1.0346095373843391,-2.107744792088937,-0.14760846423748392,1.0274812621775158,LB
2.129231843022421,1.5135138163879627,-1.5659353308608033,0.12224496809542003,-0.5366836851601662,0.24984807410758286,0.9987184069021138,-2.4305273551836972,-1.8360359841648675,0.8943406579213307,-2.3623047991411092,-1.8122532934409867,-1.130875693359442,-1.9513200060833642,0.802631637086713,-0.19487573397542615,-0.11157626379323268,0.14324668289398387,-2.090746701335326,-0.1520290983414946,1.0347940319180784,-2.073201028809652,-0.12723966220699645,1.0386342213614526,LB
2.15871213034594,1.5063973258242376,-1.6100379105104348,0.07654313296291855,-0.33907571038978407,-0.016352642206428274,0.9986933678202826,-2.430233429363756,-1.8361783572516794,0.9896089335422641,-2.4032847497767125,-1.8404952920998376,-1.0720970508777858,-1.9658435519413249,0.7986384322533003,-0.004496959150149989,-0.21534586558300012,0.4341242606544303,-2.0910457870260157,-0.15236863205400225,1.034986456016305,-2.1062008161095855,-0.1606639405760667,1.0359617819985505,LB
2.1533520880847496,1.5226636494574033,-1.5698932843671425,0.05369184794710378,-0.800160936915785,0.04280296274678338,0.9973732038161537,-2.4304621062721083,-1.8358908194489023,0.9258908546737719,-2.408540113372982,-1.8197137069410598,-1.0876557908949767,-1.9479029276017004,0.7986384322533003,-0.3429479250387287,-0.7549473381378234,-0.14763084290515865,-2.0912942374417582,-0.15281029642505328,1.035072359631585,-2.0918218649871987,-0.14645882396048843,1.0373395237476406,LB
2.169432269755293,1.5277467975154135,-1.589117497629531,-0.014860926454372165,-0.8879866875009914,0.309004124651573,0.9972074278260997,-2.431257147226969,-1.8359047775946677,0.9851257611123786,-2.433181026288087,-1.8371705728971532,-1.032334174117122,-1.9479029276017004,0.7860884600585996,-0.0256500916946903,-0.38137697288302724,0.11680328090520799,-2.091949795468078,-0.1534792184204121,1.0350831967030512,-2.1237932347204658,-0.17178116374589017,1.0307278924186265,LB
2.16407217260713,1.5216467699982683,-1.6021220034977561,-0.12911596330749636,-0.5586400149454638,-0.16424210986699192,0.9973024036537343,-2.4314342015024577,-1.8361476493309943,1.0028086199317159,-2.417768351818947,-1.8438311587265046,-1.0478936222510076,-1.9419226028447483,0.7997793812996172,-0.17372236589005186,-0.5059004732806545,-0.09474400428673761,-2.092299516433715,-0.15406765334049533,1.035218792255785,-2.1038457128893335,-0.16392125469422064,1.039319665017716,LB
2.2578731866128208,1.5318130661142888,-1.577243637110513,-0.2662217979877058,-0.07559845863416527,0.45689357293862454,0.9967644951026737,-2.4349525765476976,-1.8358070705743066,0.9770949898995817,-2.6066768904595214,-1.821318935994494,-1.1689093491515108,-1.9162929395417234,0.7775316926973116,-0.681399181889514,-0.8379629597568797,-0.14763084290515865,-2.0921489608828714,-0.1534318730820147,1.0350707737186875,-2.0610435676016117,-0.09158669523076828,1.0259073780898644,LB
2.204272599340001,1.5063973258242376,-1.5919445741919582,-0.31192369298979,0.4733125184770419,0.07238075553663315,0.9956765901679435,-2.435645682455939,-1.83557257372544,0.9520662411283537,-2.49487078872817,-1.8223166304408989,-1.0980289923564652,-1.9402138886383002,0.7815248975307244,-1.019850161633436,-1.4813342651962158,-0.8351594504972433,-2.093023263296965,-0.15424215473058908,1.0347908600922837,-2.097642816384876,-0.13600113126536226,1.0274757259018306,LB
2.17077228032059,1.5236801125039834,-1.5942063280797822,-0.44902952766999954,0.8026590472178974,0.16111461824398515,0.9952828721915646,-2.4348811259323297,-1.835647947712576,0.9889972785796931,-2.433380806136446,-1.838399576391188,-1.094571258535969,-1.9479029276017004,0.7729681301694364,-0.575633172783233,-1.7718883291415282,-0.5442819766594047,-2.0937206798172414,-0.15516403610538598,1.0344845145842552,-2.1092233110446887,-0.1393397941984384,1.0216444458122549,LB
2.1922125042523235,1.5328299455734238,-1.6026875577670643,-0.6318375567002069,0.38548662407716366,0.309004124651573,0.995544487425869,-2.4352223943360474,-1.8359019859655146,1.0304433634378405,-2.4717775141921514,-1.8490676611421337,-1.0686393170572897,-2.004288396827094,0.7974974832069835,-0.258335284017822,-1.7096273266021849,-0.8616030776516694,-2.094535570175396,-0.15684479561849715,1.0343097998467168,-2.12585884244459,-0.17610744163037317,1.0318214386825424,LB
2.146652035258262,1.5216467699982683,-1.5862904210671036,-0.7460926683903094,0.056140152862176954,0.3681595939901999,0.9943555627471995,-2.4342195526306254,-1.8358126538326132,0.9631578716115934,-2.3901714662044125,-1.8327896352721562,-1.0617238494162975,-1.9675522661477731,0.8220268362445305,-0.258335284017822,-1.6888736590890705,-0.25340450282156607,-2.0946591202462677,-0.15834902465558331,1.0346404626858399,-2.0921147345567084,-0.16979114314945332,1.0500634670652989,LB
2.185512396538863,1.5318130661142888,-1.5857248667977952,-1.2031125164548926,-0.2951629070045169,0.545626970681686,0.9932875163946113,-2.435055996509305,-1.8357484463620903,0.9873578709828306,-2.465490216890972,-1.8357102603554876,-1.0686393170572897,-1.941068070775908,0.7946452274198875,0.1858818433858125,-1.8341506910617265,-0.015056789521927549,-2.094607809834321,-0.1595854143497349,1.0347340315467908,-2.0993764152882646,-0.15265814150094223,1.0359029920234173,LB
2.138611916979504,1.5440127047360244,-1.6371777991907972,-0.9060493757345824,-0.4488579345749599,0.604782633755434,0.9952837356081797,-2.433938991045588,-1.8366948086450166,1.1265800168084523,-2.361734211813928,-1.8869298866976054,-1.0720970508777858,-1.941068070775908,0.8077655573090505,0.16472861385387,-1.170025446233105,-0.0683005849775271,-2.0943337042126053,-0.16031588528501076,1.034972182800228,-2.087455139216926,-0.15291160020528563,1.0437932394035387,LB
2.23509295211579,1.5114804738822476,-1.589117497629531,-0.7689432417064593,-0.646465909345342,0.22027014570314837,0.9940628645147604,-2.4368406896305648,-1.836373771292401,0.9599608975748323,-2.554670682742722,-1.8202432095802137,-1.0444358884305114,-1.9470483955328601,0.8043429438274924,0.46087341164077017,-0.07454092474708618,-0.09474400428673761,-2.0942047530457395,-0.16053773201350188,1.0351582632468646,-2.1038625832562405,-0.16817021758931514,1.0416681004369461,LB
2.169432269755293,1.516563621940258,-1.5789400683237331,-0.24337092532364213,-0.33907571038978407,0.3681595939901999,0.9928109104232054,-2.437061679920149,-1.8360527339397863,0.9372805592655318,-2.435358591678097,-1.8216784404179194,-1.0617238494162975,-1.9214187322298353,0.8054838928738093,0.058962618602932226,-1.253041203790247,-0.041857200309185834,-2.093950901534003,-0.16125941024307497,1.0354075158905842,-2.0842389724697283,-0.15039113155121753,1.0444694559336605,LB
2.1560321092153445,1.516563621940258,-1.5851595441231916,0.05369184794710378,-0.5366836851601662,-0.2825538622317542,0.9921089527153198,-2.4369024446245318,-1.8359996929858757,0.9508911744115277,-2.4077353134501744,-1.8277928024721448,-1.1118592195217551,-1.9513200060833642,0.8083361486609051,0.058962618602932226,-0.9832403995437925,-0.3856215993676186,-2.093539743101429,-0.16150695872669618,1.035533331647117,-2.0761560422771264,-0.13735716894881256,1.0424284156310475,LB
2.146652035258262,1.5104640108356677,-1.5908136972480462,0.4421585474253188,-0.14146777876380356,-0.5191767082618672,0.9917514982367657,-2.435987125555538,-1.8360220260191011,0.9509661236815892,-2.387403999687358,-1.829035740246158,-1.030605661265221,-1.9402138886383002,0.8066246082627336,-0.17372236589005186,-0.7549473381378234,-0.14763084290515865,-2.093865834272091,-0.1622962731539803,1.0357408219178696,-2.104283667614246,-0.17281315077816378,1.0439537913984098,LB
2.1520120775194522,1.5307966030677087,-1.5896828203041344,0.35075490709510726,0.07809661208067932,-0.5191767082618672,0.9921244942143874,-2.435152253939788,-1.8362844391594997,0.99090805422333,-2.400322310013075,-1.8410944661388797,-1.049622135102908,-1.9308164853996834,0.816892916022193,-0.0679565369032322,-0.4643927304401691,-0.43850833406343187,-2.0937051516662573,-0.16263039597067105,1.0360146562115002,-2.0840338288081353,-0.16155407141041878,1.0507278201475236,LB
2.157372119780642,1.5155471588936777,-1.5874212980110156,0.3964568020971915,-0.27320643340454737,-0.22339761795264304,0.991797259317354,-2.4348290665597636,-1.8362341898347423,0.9544077597033787,-2.4093881727117736,-1.8288183654785053,-1.0427073755786105,-1.9487571097393082,0.7792429994380907,-0.17372236589005186,-0.29836135126397095,-0.17407424489393453,-2.094453203461481,-0.16292664251664404,1.0358526287771417,-2.1255059143688895,-0.16601346553750126,1.026301508192216,LB
2.1868524071041606,1.535879751125719,-1.5732856836041733,-0.0377118440206229,-0.2951629070045169,-0.10508650491378028,0.9913396485114748,-2.435811992934741,-1.8361476493309943,0.9659404709483594,-2.4734287129913186,-1.828294436551343,-1.0651815832367937,-1.9436313170511963,0.8037723524756378,-0.38525438410261376,-0.0700684842494642,0.06391645960722159,-2.0947192074392054,-0.1628610354048647,1.0360471674258982,-2.094589279974664,-0.15665095647467095,1.041261843254522,LB
2.143971959240694,1.539946436137149,-1.5840286671792798,-0.24337092532364213,-0.4049451311896927,-0.22339761795264304,0.9912947508475024,-2.4351869310721854,-1.8363961043256272,0.9956040136613212,-2.3879483691866707,-1.8433434589272848,-1.1014860180602666,-1.9453400312576443,0.8117587621424636,-0.1525692472008547,-0.1530841153841865,0.011029638309235191,-2.094420121748515,-0.16254111618969294,1.036306464184635,-2.0746984425763393,-0.1407153287052997,1.045250861701801,LB
