xa_S1,ya_S1,za_S1,xgb_S1,ybg_S1,zbg_S1,tilt_x_S1,tilt_y_S1,tilt_z_S1,tilt_accx_S1,tilt_accy_S1,tilt_accz_S1,xa_S2,ya_S2,za_S2,xgb_S2,ybg_S2,zbg_S2,tilt_x_S2,tilt_y_S2,tilt_z_S2,tilt_accx_S2,tilt_accy_S2,tilt_accz_S2,Posture
0.5332750883431313,-1.3523723042966915,0.1959033221001784,0.22165827551913314,0.238301799077745,-1.731263638298635,-1.759966750921557,-0.6653792964489197,0.2894842117488408,-1.7652643422162488,-0.7446408740296564,0.31560852043172694,0.6186703487256269,0.3186195093404924,-0.6337680690816209,2.3149405681433404,2.9746019894653473,-1.6554474401230426,-0.1914303656582141,-0.43553839556151847,-0.6095555267254505,-0.21580602342589617,-0.4883578085134271,-0.6211697013384815,LR
0.5707952743975145,-1.3564389893081217,0.14897366588811942,-0.9208910452944109,0.6774304081891044,-1.849574964446131,-1.7626856498417682,-0.6668170435503259,0.2890646298871183,-1.8551061183875577,-0.7692384401360183,0.28703209905341026,0.6290428420704206,0.3228911198909966,-0.5961183861549108,2.1668685156334693,2.829324957492691,-1.576116905068457,-0.19180979265182063,-0.43433852941413026,-0.6095343812201509,-0.2842632730768117,-0.4695937967409444,-0.5913001758559142,LR
0.5305949574385898,-1.3574554523547016,0.15632401863148973,0.05267518085996921,1.3361236094854874,-2.2340866775579324,-1.7639453746828564,-0.6670686056191016,0.28867380180567387,-1.82622911226731,-0.7367029896786268,0.2905198493318347,0.6428730692357106,0.32032822354694046,-0.6092387160440739,2.3360935205684195,3.2859110803046296,-1.4967865432182177,-0.19068906523298274,-0.43190565538247616,-0.6099440753853315,-0.2662409975171345,-0.4959098022160533,-0.6036856154602479,LR
0.5118351388462642,-1.3788049240458777,0.1478427889442075,0.05267518085996921,-0.029907099200566903,-2.5298659616022774,-1.765462397675174,-0.6682189779961079,0.28774391013475115,-1.8403126831519696,-0.7249967295352772,0.2822938864897851,0.6203988615775275,0.29897017079441984,-0.6183658410998241,2.2303273729087065,2.953848321952233,-1.549673970731416,-0.19089025605877413,-0.4308884069689072,-0.6100180846538804,-0.2821409809198792,-0.48662998657665596,-0.5957107421517951,LR
0.5319352973257266,-1.363555479871847,0.16197817175634466,0.05267518085996921,1.9728603371819011,-2.67775560362445,-1.7665658441089724,-0.6678660923162973,0.2873095326385172,-1.8211954503711105,-0.7404014512632968,0.2933217543497553,0.649788536876703,0.30495049555137216,-0.6120909718311698,2.103408272823915,2.6010318960867225,-0.8621446876423808,-0.19145129490519233,-0.430786276310364,-0.6099678640787937,-0.29066793916947997,-0.5117903010364694,-0.5977090740419796,LR
0.5158550607682103,-1.383888072103888,0.18007150807482109,-1.8120797190855569,1.7313394152115797,-2.5298659616022774,-1.7686268195686559,-0.6677394378025039,0.2871174685527785,-1.7964277318163044,-0.7353012098152499,0.3016185033340917,0.6428730692357106,0.3228911198909966,-0.6120909718311698,1.341893395208301,2.31047783214141,-1.1794656154302994,-0.19174632977388645,-0.43047041526705493,-0.6102031078252523,-0.2558151107684541,-0.4970063304568601,-0.6078641854417016,LR
0.5305949574385898,-1.3584723318138368,0.14445038970717655,-1.972036276755873,1.3141674235148617,-1.6425300468204527,-1.7718525440417918,-0.6678748271103521,0.2867087740447536,-1.844553778054416,-0.7349149338179852,0.28302933778700917,0.6290428420704206,0.31776532720288453,-0.6092387160440739,0.7919101201449539,1.9369063793819299,-1.0472485188842466,-0.19266654150393198,-0.4301261470207075,-0.6102506852121766,-0.26764393722914126,-0.48167779343025297,-0.6001634895957544,LR
0.5560553777271351,-1.3910045626676135,0.16028197213782913,-1.4236126386871213,1.2922108061002202,-1.672107781489766,-1.7746042527933672,-0.6686775546839804,0.2864335194102508,-1.8473837591136344,-0.7674512582029723,0.28957399040694676,0.6255851082499244,0.3152020809275963,-0.6280635575074288,0.6438379290816514,1.4595665890568774,-0.8092579529465675,-0.19304799390853655,-0.43043997897808506,-0.6105308631573964,-0.23470218399136872,-0.4929758664448203,-0.6150059810756187,LR
0.5238949046121021,-1.3767715815401627,0.15915109519391718,-1.1036989246506614,1.248298002714953,-1.080550182076681,-1.7765762963417198,-0.6689623089701643,0.2863087335871035,-1.8279986042294514,-0.736564035190923,0.28980641419697495,0.6290428420704206,0.30836757403303616,-0.6195067901461409,1.066901965506775,1.7916293474092737,-0.8357017533053398,-0.1936880237838725,-0.43043253899633693,-0.6105942996732951,-0.2647665274494408,-0.49312646259806414,-0.6036618885644541,LR
0.5346154282302682,-1.349322498744396,0.15406249633837074,-1.2179538866668072,1.401993030285396,-1.376328884915663,-1.778664037716464,-0.6690487834313059,0.28611583201261936,-1.8276410875963998,-0.7375909001157781,0.2901859839835682,0.596195432950749,0.3092221061018761,-0.6212180968869202,0.5380719199753704,1.3973055865175341,-0.015056789521927549,-0.19443675071609615,-0.43001319457053055,-0.6104224924427358,-0.2519302026770527,-0.458299085247655,-0.601123110714524,LR
0.5051350860197765,-1.368638627929857,0.1478427889442075,-1.2865069536808689,0.8969950003741279,-0.9622388559291849,-1.7808648866677559,-0.6691658296716391,0.28587742688293827,-1.8324740232865726,-0.7166769388249609,0.28332669532173393,0.596195432950749,0.34595788684996526,-0.6189364324516786,0.1784675721460743,0.8369499026972542,-0.3861637289713688,-0.1941585942723846,-0.42971694802455757,-0.6107396750222305,-0.18796991802893417,-0.4414202146077426,-0.621559876958201,LR
0.5305949574385898,-1.2974741387051583,0.15575869595688627,-0.48672221956784845,0.391996826648188,-0.19321368608949263,-1.7816333274549858,-0.6698384088138521,0.286091824001902,-1.7985323417790655,-0.7207922638727424,0.29741703923520857,0.6013823877398407,0.30836757403303616,-0.6138022785719491,-0.7311200507465689,0.13131705096623267,-0.5712675602132347,-0.19615362410531548,-0.4302451867286784,-0.6105599382271836,-0.26921962949827843,-0.45865809572012006,-0.5946588497716061,LR
0.5533752468225936,-1.3340730545703652,0.1551931416875778,-0.4181693022277436,0.7213434992037153,0.4574995763973404,-1.7829336328769734,-0.6707581826278138,0.286352003838978,-1.8272637567885042,-0.749748980826064,0.29317544440998916,0.6048401215603368,0.3237453020286047,-0.6212180968869202,-0.8368860598528499,0.19357873319600355,-0.6770408564005149,-0.19730540782612097,-0.43079303993013507,-0.6107291022695802,-0.22721916404598907,-0.4617809489871635,-0.6112044051051098,LR
0.5774958760937348,-1.3696550909764376,0.14671191200029554,-0.8294871056162857,0.853082053174189,-0.04532433467000163,-1.785318389567231,-0.6721566231559738,0.28632157508120826,-1.8676993187296156,-0.7778964408258401,0.28421068604352057,0.6480600240248023,0.2835920928676194,-0.6337680690816209,-0.6042005350014821,0.691672598848427,-0.06884245477475792,-0.19948947601885533,-0.4323980469018102,-0.6106207315549198,-0.28637746745762804,-0.533632793995129,-0.6037989772957069,LR
0.5587355086316766,-1.383888072103888,0.14614658932569208,-1.1036989246506614,0.5896048014185701,-0.7256156224288297,-1.7879164101613607,-0.6734633483465593,0.2860971280972931,-1.8666448600335774,-0.7655426003341351,0.2817482200858573,0.6169411277570314,0.3186195093404924,-0.6360499671742545,0.1573143426141318,0.33885617298291626,0.010487560666788872,-0.1995860206097556,-0.4333348082401034,-0.6108771208066781,-0.2110398073672603,-0.4881830094069832,-0.6229307642707282,LR
0.474314403922148,-1.3727048965287325,0.15745489557540168,-0.6238280542480579,-0.04713189751490898,-0.8143492139070122,-1.788798821941752,-0.6738712632289144,0.28599635028486325,-1.8058851236178581,-0.6935493189344344,0.2880353672118064,0.6186703487256269,0.3006788850008679,-0.6400431720076672,0.7707570291664431,0.23508661197457445,-0.4126071829214486,-0.19974400266759154,-0.43454549617912513,-0.6110832894833497,-0.2366206821160612,-0.4999456446621376,-0.6157388785234694,LR
0.5104947989591272,-1.3340730545703652,0.15066986550663494,-0.39531842956367996,-0.991258852929815,-0.19321368608949263,-1.7896803703055295,-0.6754950614436861,0.2860429704917214,-1.8144439856645354,-0.712523160962972,0.2893120259433656,0.596195432950749,0.3152020809275963,-0.6143728699238035,0.2419272607419019,-0.49130017914573254,-0.9150322883599253,-0.2006297824106729,-0.4352705562185839,-0.6110515712253999,-0.2542232229470861,-0.4505985123045515,-0.5985948781516129,LR
0.5359552192476728,-1.3523723042966915,0.15915109519391718,0.38161513253736307,-1.2986489080707009,0.4870775048017749,-1.7900369613674691,-0.6779180933144644,0.28630705860961186,-1.8220095545114339,-0.7404049469736792,0.2930104625350528,0.6065686344122375,0.31605661299643645,-0.6297748642482082,-0.5618942144910287,-0.5743156648267033,-1.2059094157890715,-0.2014703279748012,-0.4364731278138804,-0.6113846129338689,-0.2253506022073421,-0.47326054415073016,-0.6143679912109422,LR
0.5466751939961062,-1.3747382390344476,0.1585857725193136,-0.1211066105293042,-0.9253894321299062,1.0490571758104255,-1.791126593135429,-0.6802004950009617,0.28661441697937645,-1.8381873975285015,-0.7551297530323053,0.29024144241787975,0.6221280825461231,0.30238724927608385,-0.6149432276182659,-0.30805601432144525,-0.09697588809545937,-0.015056789521927549,-0.2032796951329247,-0.43755395425329746,-0.6110727167306995,-0.2830438829567556,-0.484604333854675,-0.5949409361993765,LR
0.5640952215710271,-1.343222887639806,0.1721558326568472,-1.0122948352985792,-0.727781457359524,0.5166554332062095,-1.7923457373956193,-0.6824523249082673,0.28706359011012217,-1.8105371472768468,-0.7641548033122881,0.30285837556650985,0.6480600240248023,0.32032822354694046,-0.6326273536926962,0.36884636082669364,0.2558404154257744,-1.7612198702885915,-0.20335125965485015,-0.43904465605084153,-0.6117678752174256,-0.22160200668055138,-0.5188239481580642,-0.6253271807458964,LR
0.5855357199376268,-1.3340730545703652,0.16763232488119945,-1.2179538866668072,-0.2886527044334926,0.6349669530888264,-1.7940181753786129,-0.6846115659985932,0.2875122049150378,-1.8226091486719251,-0.7792763724993265,0.30168956816197806,0.6428730692357106,0.3254540162350527,-0.5955477948030564,0.32653976320937683,1.2105199960758795,-1.9463250871652276,-0.20470153365344992,-0.4390974122850558,-0.6118683163675984,-0.2840790486701841,-0.4835152009606791,-0.5943187642652291,LR
0.5386353501522143,-1.3716884334821526,0.1512354197759433,-1.332208699008996,-0.003219050985240245,0.28003239344097547,-1.7961862144985392,-0.685813473660522,0.28755994177355676,-1.8442014303365402,-0.7463092018096978,0.2858674719328719,0.6394160435319093,0.3254540162350527,-0.6115203804793155,0.3476932698481828,0.6709185235210561,-1.4438998085224044,-0.20537261983075392,-0.4397446906971473,-0.6121167760548691,-0.25133569094724095,-0.4917273974422584,-0.6084547215147905,LR
0.5399751411696185,-1.3472891562386808,0.16537080258808046,0.05267518085996921,0.32612754966295127,-0.45941465425916117,-1.7964918639802017,-0.6866642426014514,0.28769114834375603,-1.8120232103901355,-0.743575556290594,0.2975750539701558,0.6221280825461231,0.31776532720288453,-0.6120909718311698,0.4957655994649171,0.5048874162210288,-1.549673970731416,-0.2060862396390134,-0.4401525369693428,-0.6122700809682913,-0.2603228728060713,-0.47621599365814077,-0.6017795548314843,LR
0.5037947461326396,-1.3574554523547016,0.16197817175634466,-1.377910893358994,-0.3545219814187293,-0.13405800364223255,-1.7978733305639865,-0.6875141380629752,0.28779778857740745,-1.8055327758999824,-0.7150776513249736,0.2933666227312836,0.577178959113062,0.32203693775338854,-0.6195067901461409,0.05154837507388038,0.15207099035551813,-1.2587959772805386,-0.2064359606046509,-0.43990025395188204,-0.6124154563172266,-0.2269283189205083,-0.43101227242752765,-0.6046188733614687,LR
0.5212147737075606,-1.3503389617909765,0.13879623658232176,-0.9437419179584745,-0.3984349286186684,-0.16363587392613074,-1.7996485151241497,-0.6885623133495412,0.2876328032944548,-1.8448854501115846,-0.7238527583126088,0.2802441539050616,0.6117548810846345,0.33485176940490097,-0.6115203804793155,0.05154837507388038,-0.03471417867807141,-0.9679188498513923,-0.20678365615929029,-0.44032162746361964,-0.6125899067359484,-0.22703561445403844,-0.4573316394239142,-0.6103159646737215,LR
0.5774958760937348,-1.3655884059650072,0.1478427889442075,-0.8066359336043083,-0.2886527044334926,-0.04532433467000163,-1.8016093342565078,-0.6905389972441234,0.2876006995591934,-1.8640965848514868,-0.7770565964064479,0.2853956572128265,0.6152126149051307,0.30836757403303616,-0.6149432276182659,-0.3503621962784668,-0.055468104473548316,-0.9414750494926202,-0.208291912215726,-0.4410947092034531,-0.6125291134082121,-0.27038098555617346,-0.4746199433554581,-0.5976299843893335,LR
0.5667753524755687,-1.343222887639806,0.15575869595688627,-1.0579968799746202,-0.3984349286186684,-0.015746483759615536,-1.803305947904718,-0.6923427322164222,0.28772129793861034,-1.8367676688266479,-0.7636016071442597,0.2927440391018789,0.6428730692357106,0.332288873060845,-0.602393255423565,-0.03306450910829899,0.5048874162210288,-0.7034846567592872,-0.20926951059071197,-0.4416980240870326,-0.6125370429726998,-0.2575068711619131,-0.48589583032959227,-0.6048930508239743,LR
0.5748157451891932,-1.383888072103888,0.15575869595688627,-1.1494009693267024,-0.11300127517041608,0.1025650554965136,-1.8053677867810165,-0.6941709246120742,0.2877698722858756,-1.859307584940316,-0.7807122355389325,0.28806407182856053,0.6082971472641382,0.31947369147810045,-0.630915813294525,0.1784675721460743,0.940719463705596,-1.4174568741853633,-0.20927086086471053,-0.44171560949843747,-0.6129731690195043,-0.21727172090279817,-0.4746333894405694,-0.6177082108743503,LR
0.5372950102650771,-1.4072704698882244,0.1512354197759433,-0.966593089970452,0.10656318758140279,-0.07490222432741195,-1.8073156546641524,-0.6952435573219934,0.2876531821872731,-1.8600355404943614,-0.7543143785855905,0.2816562538380044,0.6048401215603368,0.3186195093404924,-0.6052455112106612,0.4323057723156577,0.46337953744245797,-0.2010595513208105,-0.21010533019584512,-0.44161956609768827,-0.6126427704991978,-0.2679584008682925,-0.4516116748176699,-0.5936175026784362,LR
0.5158550607682103,-1.346272693192101,0.16028197213782913,-0.6009771815839942,0.4139533002481576,-0.22279161449392715,-1.8078777388804304,-0.6953745792328141,0.28775340167387214,-1.808280054316375,-0.7220052753754649,0.2939540919751444,0.5910091862783521,0.3314343409920048,-0.6240703526740161,0.05154837507388038,0.4841334768317434,-0.3068333671211295,-0.20991696697304066,-0.4413916321114032,-0.6128040049771076,-0.20408854138679675,-0.4457525432305259,-0.6164480490755272,LR
0.5359552192476728,-1.3696550909764376,0.16706700220659584,-1.0351460073105567,0.6774304081891044,-0.04532433467000163,-1.8089958633966812,-0.6957527958153833,0.2879270410071996,-1.818210401856592,-0.7462480268780043,0.2958282526321483,0.6100263682327337,0.3399775620930132,-0.6098090737385361,-0.3926687938957837,0.33885617298291626,-0.14817288590673572,-0.21035783143358328,-0.44142003931444157,-0.6128251504824072,-0.22031783435157146,-0.4519592561177907,-0.6116868519862494,LR
0.5587355086316766,-1.3533891837558263,0.15802021825000526,-0.9437419179584745,1.1824285819150444,-0.16363587392613074,-1.8102832175694452,-0.6960148396370247,0.28801246485928655,-1.8344812853468397,-0.7597650649994816,0.29273344904909565,0.6169411277570314,0.3186195093404924,-0.5995409996364691,0.009242096129456579,0.712426402299627,-0.04239912206772053,-0.21176076611812836,-0.44132737772357805,-0.6123943108119271,-0.2823285793998879,-0.46057886897823497,-0.5901059221009625,LR
0.5614156395362183,-1.3625386004127118,0.15802021825000526,-0.7609341882761809,-0.029907099200566903,-0.6960376940243953,-1.8115567570763709,-0.697373100112533,0.28796026139412223,-1.839969811778585,-0.7643724112835979,0.2916984107323505,0.6480600240248023,0.3263085483038927,-0.6132319208774866,0.6226846995497087,1.0444890247139376,-0.4390504636671821,-0.21201731817786215,-0.4418319437584998,-0.6124947519620999,-0.24842521524840233,-0.5022254283927177,-0.611747487386611,LR
0.4917349803668017,-1.3798213870924578,0.13596916001989431,-0.7609341882761809,1.1385157785297773,-1.2284396303637326,-1.8129865749905876,-0.6965013676658725,0.28744827660743005,-1.849017136309458,-0.706310409685699,0.27434605187609085,0.6480600240248023,0.33912337995540515,-0.6177954834053618,0.580378101932392,0.691672598848427,-0.14817288590673572,-0.21163856632125516,-0.44255091654016454,-0.6127696435309953,-0.2154288020218502,-0.5005574415346907,-0.6238719311372138,LR
0.5238949046121021,-1.3228898789952097,0.14105775887544075,-0.28106331787357736,0.4798225772333943,-1.0213943252678117,-1.813595283704068,-0.6964926328718177,0.2872037298936116,-1.8298154779140459,-0.7192305552593669,0.2849734485295013,0.6238565953980237,0.30580467768898,-0.6349090181279378,0.09385465401830416,0.33885617298291626,0.27492175375889405,-0.21208078105579634,-0.4435187905294049,-0.6127722867191578,-0.23832728843239895,-0.49980983920251587,-0.6150666164759803,LR
0.5037947461326396,-1.3564389893081217,0.16197817175634466,0.08455227619757115,0.5237355244333334,-0.9030828053851947,-1.8133872002998859,-0.6963904357813776,0.28717246364709603,-1.8050512053026908,-0.7148084816255221,0.29348785096708985,0.5944669200988483,0.34254045843706915,-0.6286341488592835,0.2419272607419019,0.23508661197457445,0.30136503450462754,-0.2111436909007682,-0.4434917360503207,-0.6130207464064286,-0.17544535763699176,-0.4485688257570371,-0.6278237774477496,LR
0.5292551664211852,-1.3533891837558263,0.1761135545684817,-0.6923812709360763,0.4798225772333943,-0.6960376940243953,-1.8136168691194392,-0.6967590440904866,0.2873673193619876,-1.7938854870352527,-0.7379876632441903,0.3032117489067446,0.6255851082499244,0.31605661299643645,-0.6212180968869202,0.4323057723156577,0.13131705096623267,0.06337422608086365,-0.21150894001738924,-0.44432569036809366,-0.6129467371378796,-0.2464277638065838,-0.48754902649399695,-0.6094327968858432,LR
0.5386353501522143,-1.3645719429184269,0.15745489557540168,-0.48672221956784845,0.391996826648188,-0.9030828053851947,-1.814421573404494,-0.6973495161685854,0.28726123745416704,-1.8315143280354405,-0.7455375237427642,0.29056332428536513,0.5944669200988483,0.3254540162350527,-0.616654534359045,0.45345900184760024,0.6086568412912851,-0.04239912206772053,-0.21155349905934326,-0.4439956257232654,-0.6128436527995442,-0.23035570266138516,-0.4462177777753686,-0.606654113756221,LR
0.5091550079417226,-1.3422060081806708,0.14614658932569208,-0.32676536254961835,0.6115612750185396,-0.28194747130279624,-1.814911994041737,-0.697115423687919,0.2871911675624223,-1.8244466980172267,-0.7127556257034073,0.285492918487071,0.6290428420704206,0.3254540162350527,-0.6394725806558129,0.3476932698481828,0.31810209765554526,-0.04239912206772053,-0.21093574870498408,-0.44495741245471154,-0.6132480605883996,-0.19466745369111224,-0.5011907521434217,-0.6318336228368919,LR
0.5346154282302682,-1.3045906292688838,0.14105775887544075,-0.39531842956367996,0.4139533002481576,-0.5777261741417782,-1.815504297839535,-0.6972385842840905,0.28709485635663773,-1.8261214265344632,-0.7235023133467644,0.28742783260477767,0.6376868225633138,0.31776532720288453,-0.5995409996364691,0.11500816065711021,0.3803639158234017,-0.7299279375050207,-0.21239404462347156,-0.4455289383253673,-0.6129996009011289,-0.2891131661553077,-0.48394076955444426,-0.5924997022543758,LR
0.49307477138420625,-1.3594887948604166,0.1512354197759433,-0.8980401726303472,0.9848206071446624,-0.6368820309506472,-1.8162874167092173,-0.6965345598832804,0.2869725829997287,-1.8175470577422548,-0.7046787868646738,0.28621359944751873,0.6169411277570314,0.3245998340974447,-0.606386460256978,0.5169186904434279,0.7954420239186832,-0.4390504636671821,-0.2128970216879498,-0.44534970240143373,-0.6128542255521944,-0.2575898733670967,-0.4633380056430242,-0.6000659456908244,LR
0.49307477138420625,-1.41540342349853,0.14953898856272302,-0.7837852106142014,0.9189513301594255,-0.6960376940243953,-1.8175825416315152,-0.696131885877358,0.28667918277573007,-1.8460923918053336,-0.7191606410517171,0.2786375314236301,0.6065686344122375,0.31349371665238035,-0.602393255423565,0.4323057723156577,0.4841334768317434,-0.3068333671211295,-0.21396981437983706,-0.4452029318524015,-0.6124392450106888,-0.2835493191492966,-0.45347731912682915,-0.5881154991760428,LR
0.5453354029787015,-1.343222887639806,0.1551931416875778,-0.5552751369079532,0.6554740784038068,-0.9326609275247504,-1.8182939969221643,-0.696495253310034,0.2866071587435783,-1.8279365772473315,-0.7452902022332033,0.2918787203152624,0.61348410205323,0.34254045843706915,-0.6006819486827859,0.7707570291664431,0.23508661197457445,-0.5712675602132347,-0.21383141129498082,-0.44513664837864514,-0.6124339586343637,-0.2342831240773929,-0.4475354941162524,-0.6054598600012686,LR
0.5104947989591272,-1.3381393231692407,0.16141284908174106,-0.4181693022277436,0.43590977384812707,-0.7551935508332643,-1.8182939969221643,-0.6964795306807355,0.2866574080683351,-1.800264789849108,-0.7155216065435492,0.2955024691662691,0.6100263682327337,0.31605661299643645,-0.6092387160440739,0.2419272607419019,0.23508661197457445,-0.3068333671211295,-0.2146739822701067,-0.4453361751618916,-0.6121960716997431,-0.2661310027248993,-0.46145420911896495,-0.5964304579908727,LR
0.5212147737075606,-1.3472891562386808,0.16084752640713748,-0.39531842956367996,0.15047604849253873,-0.7256156224288297,-1.8185038071595767,-0.6969188908216879,0.2866780661240688,-1.810357096731527,-0.7269053874041145,0.29431387508416934,0.6290428420704206,0.3263085483038927,-0.6297748642482082,0.7284507086559897,0.31810209765554526,-0.33327664786686306,-0.21409741527270493,-0.4461390168287178,-0.6125158974673995,-0.21166671020153371,-0.4936569106556954,-0.6238455679196652,LR
0.5493553249006476,-1.3645719429184269,0.15802021825000526,-0.5781263089199304,0.45786624744809673,-0.28194747130279624,-1.8193326871098467,-0.6976596013575277,0.28673361954421683,-1.835501284608367,-0.7546919153068989,0.2911689080931968,0.6480600240248023,0.31093047037709226,-0.6371909162205714,0.41115268133714694,0.7331803416889124,-0.49193719836299543,-0.21411294342368847,-0.44728680310386837,-0.6128542255521944,-0.23008307753216378,-0.5256901915200265,-0.623529209309082,LR
0.5426552720741601,-1.3737217759878677,0.1365344826944979,-0.37246740722565946,0.9189513301594255,-0.45941465425916117,-1.8206554413638205,-0.6978622485795972,0.2864611565388669,-1.8690820035393703,-0.7477415691389215,0.27660340523248184,0.6307720630390161,0.31263918458354034,-0.6234999949795539,0.5380719199753704,0.6294107806805707,0.46002558500075985,-0.21440527774438548,-0.4478556235266155,-0.612708850203259,-0.24950896761852429,-0.4962647788629852,-0.6100945136463134,LR
0.48905484946226013,-1.3015408237165884,0.16310904870025658,-0.4410203245657642,0.8750385267741584,-0.4889925826635957,-1.8200527765666448,-0.6968455185516282,0.28665936220874255,-1.7702325311868774,-0.6878006232104363,0.3004600072967439,0.6653479850105883,0.31349371665238035,-0.6212180968869202,0.601531608571198,0.5463951590615143,0.010487560666788872,-0.2148954272058773,-0.4492259328922345,-0.6127326388967211,-0.2604841535137045,-0.5321416231563125,-0.6133266441177723,LR
0.5252352444992391,-1.3533891837558263,0.1755482318938781,-0.1211066105293042,0.391996826648188,-0.34110313437654416,-1.819635746341665,-0.6972394577634959,0.286935733494907,-1.7929421600155124,-0.7344963224996824,0.30276390114826063,0.6376868225633138,0.3297256267855567,-0.6177954834053618,0.6861441110386729,0.048301456534793466,-0.624154294909048,-0.21468748501009266,-0.4501119670822449,-0.6129652394550174,-0.23060201001823102,-0.49282056416178743,-0.6165218660846628,LR
0.5681156923627058,-1.3564389893081217,0.15066986550663494,0.13025430590621653,0.45786624744809673,-0.07490222432741195,-1.8201935134748684,-0.6981959177124872,0.28696309146060806,-1.8513129961337549,-0.7672502548559794,0.2880239411022246,0.6273143292185199,0.3254540162350527,-0.6286341488592835,0.1573143426141318,0.23508661197457445,-0.8357017533053398,-0.21455110733623448,-0.4508120017285506,-0.6133485017385732,-0.2150502309884517,-0.4912520783335826,-0.6220634144133796,LR
0.5547155867097306,-1.32797302705322,0.15575869595688627,-0.37246740722565946,0.391996826648188,-0.31152520597210964,-1.8206217681158412,-0.698834431157887,0.28706498592469876,-1.824122779332823,-0.7494064012085804,0.29429854737619376,0.6031109005917413,0.335705951542509,-0.630915813294525,0.580378101932392,0.4841334768317434,-1.0208055845472055,-0.21353165046729156,-0.4507382782730459,-0.6138639234302518,-0.18593332733589085,-0.462521828276783,-0.6269089737988127,LR
0.5614156395362183,-1.3523723042966915,0.15971664946322553,-0.8523381279543062,0.1724325220925083,-0.45941465425916117,-1.8216181508893954,-0.6999105577854281,0.2871272392548149,-1.8326273677701463,-0.7620687381415397,0.293971927853516,0.5979246539193445,0.3245998340974447,-0.5995409996364691,0.36884636082669364,0.7331803416889124,-1.6290036397642702,-0.2143127839754813,-0.4500091600617244,-0.6137608390919156,-0.2663482930506646,-0.43699712491045983,-0.5910497252892024,LR
0.5788356671111391,-1.3452558137329658,0.17272115533145077,-1.1265497973147252,-0.02517551451818277,-0.37068106278097873,-1.8224513479227409,-0.7014452611008416,0.2873997022601648,-1.8171318215563972,-0.7772742043777576,0.3033143052073808,0.5910091862783521,0.3228911198909966,-0.6132319208774866,0.876523038272724,-0.07454092474708618,-1.2323530429434975,-0.21418653335661247,-0.44992326209063194,-0.6138057732906773,-0.24091250345726564,-0.4408359822096673,-0.6015001047254688,LR
0.5721356142846517,-1.3472891562386808,0.15802021825000526,-1.377910893358994,0.6554740784038068,-0.6664599593550817,-1.8239571464990654,-0.7021877185954924,0.28740779798470883,-1.83762829320356,-0.7695810197535018,0.29378660192981204,0.6446022902043061,0.29469856024391566,-0.6126613295256322,1.1515146065276818,-0.07454092474708618,-1.36457013948955,-0.2152458233085138,-0.4512428443079679,-0.6136524683772551,-0.30705986247123995,-0.510592254853074,-0.5912316314902878,LR
0.5091550079417226,-1.3574554523547016,0.15802021825000526,-1.080847752638684,0.08460671398143323,-1.0509724474073676,-1.8246418358746537,-0.7024191906379424,0.28729417867817464,-1.813896080655811,-0.7188958409902437,0.2910496306565876,0.6100263682327337,0.3032417813449241,-0.6069568179514402,1.1726676975061925,-0.07454092474708618,-1.36457013948955,-0.21595606743177712,-0.4516195779292165,-0.6134304405716091,-0.29427414879957337,-0.4650483476691508,-0.5865310698013716,LR
0.5600752996490812,-1.366605285424142,0.1478427889442075,-0.966593089970452,0.4798225772333943,-1.3467509565112283,-1.8261381368682152,-0.7031581542149714,0.28698151621301893,-1.8566981442619672,-0.762552894029514,0.2848700561720666,0.6480600240248023,0.3006788850008679,-0.6012523063772481,0.2630803517204127,0.9822272065460813,-0.9150322883599253,-0.21781539472784883,-0.4519936061025567,-0.613078896546003,-0.3198374783667914,-0.5037078592762119,-0.5849466404267003,LR
0.5734754053020561,-1.3879543407027635,0.1512354197759433,0.05267518085996921,1.0506898841298988,-1.2875952934374806,-1.8269549289858782,-0.7037189279932842,0.286685324359867,-1.8674503493152725,-0.779852290784841,0.28475635244744835,0.6480600240248023,0.3228911198909966,-0.6377612739150337,0.09385465401830416,-0.07454092474708618,-0.9943617841884335,-0.2174575721182196,-0.45349310060580306,-0.6137846277853777,-0.20696932523987877,-0.5215770340845536,-0.6314197203213786,LR
0.5600752996490812,-1.3808382665515928,0.14445038970717655,-1.3550595716730598,1.0506898841298988,-0.6960376940243953,-1.829525320248332,-0.7035337503593242,0.2863765701755258,-1.868409183080543,-0.7656160102521672,0.28108662047251487,0.6636187640419929,0.31263918458354034,-0.6234999949795539,0.45345900184760024,-0.07454092474708618,-0.5712675602132347,-0.21789641116776462,-0.4551758892048455,-0.613943219075125,-0.2571633904916813,-0.53220549206059,-0.6145999875253702,LR
0.5051350860197765,-1.3828711926447532,0.15745489557540168,-0.8751890006183699,0.7213434992037153,-1.258017558768167,-1.8302065559574596,-0.7032262856085982,0.28615575230950974,-1.8248378125989273,-0.7220970377730052,0.28758779813892205,0.6532462706971992,0.2998243529320279,-0.6206477391924577,1.1515146065276818,-0.07454092474708618,-0.4126071829214486,-0.2184182920682235,-0.45665509284877864,-0.61381898923149,-0.2839049464837016,-0.5237593336980785,-0.6027312669849882,LR
0.5118351388462642,-1.3899876832084785,0.14897366588811942,-0.7837852106142014,0.15047604849253873,-1.8199972297768177,-1.8311312751519806,-0.7035660690973266,0.2857277955603278,-1.8438240995286446,-0.7281175249792414,0.28168412239795965,0.6532462706971992,0.3092221061018761,-0.6058158689051234,1.1938210655915666,0.7539342810781977,-0.8357017533053398,-0.219088703108528,-0.45720835694605244,-0.61364718200093,-0.2961751017426825,-0.5093242890271011,-0.5951070244699322,LR
0.5225551135946975,-1.3605052579069967,0.15915109519391718,-0.5781263089199304,-0.33256565163343177,-1.5833741900115834,-1.8314274270508801,-0.7043810253826316,0.285533498171267,-1.8197576304661378,-0.731200741536594,0.2917115089555297,0.6463308030562068,0.2964069245191318,-0.6252113017203329,0.3053866722308661,0.1728249297448036,-0.9679188498513923,-0.2200642760725164,-0.45841904488507396,-0.6136656843180678,-0.27953147256666605,-0.5208092626247122,-0.603791068330442,LR
0.5681156923627058,-1.3828711926447532,0.16084752640713748,-0.4181693022277436,-0.13495766248158245,-0.8735048769807602,-1.8321242042590755,-0.7058851569188537,0.28549497368895327,-1.848129805870799,-0.7756530686878798,0.2911714162635928,0.6186703487256269,0.31093047037709226,-0.6246409440258707,-0.41382202342772617,0.6709185235210561,-0.7828150186095265,-0.22088051670466988,-0.45850020832232685,-0.6137502663392662,-0.2475648265361328,-0.48460366155041945,-0.6083809045056542,LR
0.5694554833801102,-1.3503389617909765,0.15066986550663494,-0.8980401726303472,0.0406937955444285,-0.6960376940243953,-1.8332595971076242,-0.7070329088576434,0.2854346744992446,-1.8490722714046748,-0.7668316435376767,0.28878531016020753,0.6446022902043061,0.3075133918954281,-0.6080977669977571,-0.41382202342772617,0.29734829420434533,-0.4654937444129156,-0.22258253707990422,-0.4592063302264266,-0.6134912338993452,-0.292664715796622,-0.5021393734480067,-0.5949541178081506,LR
0.5868755109550312,-1.3554221098489865,0.2021227978996368,-0.9208910452944109,0.4139533002481576,-0.4002589911854132,-1.833012659955773,-0.7083212909807141,0.28607088678325326,-1.7802524732568235,-0.7916940097055118,0.3203648475593233,0.5754504462611614,0.3263085483038927,-0.6200773814979955,-0.5830477211298347,0.46337953744245797,-0.9943617841884335,-0.2228411145506361,-0.4583067687968743,-0.6135943182376814,-0.2174809134524483,-0.42779327965194,-0.6074687371784722,LR
0.5748157451891932,-1.3523723042966915,0.15802021825000526,0.05267518085996921,0.545691854218631,-0.45941465425916117,-1.8331663481132185,-0.7091301329101807,0.2861445857928971,-1.841210351420983,-0.7731483921988287,0.2932367552418912,0.6048401215603368,0.33741466574895707,-0.6126613295256322,-1.0484180780654118,0.899211584927025,-0.6505975756547815,-0.22347034223398365,-0.4575181307315673,-0.613721191269479,-0.21830148809881705,-0.44953089314673345,-0.6119188483006767,LR
0.5439950630915646,-1.3361063970760803,0.16141284908174106,-1.5378680497251378,1.2263413853003116,-0.8143492139070122,-1.8341307844720225,-0.7086855318927957,0.2862020933534525,-1.8145309957366764,-0.7433894097127265,0.2965720644973593,0.6446022902043061,0.31691079513404435,-0.6183658410998241,-1.2387967281925993,0.8784576455377396,-0.4126071829214486,-0.2248989321245021,-0.4579415333292364,-0.6137476231511036,-0.2549466242800689,-0.5059385647961365,-0.6100496961764807,LR
0.5319352973257266,-1.346272693192101,0.13936155925692523,-1.766378273105343,1.467862307270633,-0.37068106278097873,-1.8358196273706988,-0.7078950330308439,0.286052462030842,-1.8471201444396246,-0.7319715456759321,0.28133214248572225,0.6186703487256269,0.3271627304415008,-0.6195067901461409,-1.2176432215537933,0.899211584927025,-0.14817288590673572,-0.22579281351157474,-0.4576561085748972,-0.6137952005380278,-0.22751203361549888,-0.4742273176702152,-0.6137590008855696,LR
0.5466751939961062,-1.343222887639806,0.1269223760633037,-2.1548435574162963,1.665470857299703,0.1025650554965136,-1.838392608882998,-0.7070468845281309,0.28585900213052706,-1.8713141134098235,-0.7415795056621945,0.27426077408262706,0.6567040045176954,0.34595788684996526,-0.5847091293491348,-1.7887793104887877,1.1690123891734796,-0.3861637289713688,-0.2279424497173454,-0.45734092389356523,-0.6136022478021683,-0.27074133659331256,-0.4822163091389508,-0.5991036882503006,LR
0.5587355086316766,-1.3422060081806708,0.12635705338870012,-2.223397223126185,1.665470857299703,0.13214292578041179,-1.8410942394709113,-0.706413611959164,0.28567670874682477,-1.877333315133038,-0.7515003317276894,0.27430675720655345,0.6515170497286037,0.34254045843706915,-0.5995409996364691,-1.513788157894125,1.1067507069437086,-0.33327664786686306,-0.22935686173087838,-0.45721782601373184,-0.6136181069311436,-0.2459634913092966,-0.4891941550073348,-0.6099547885933057,LR
0.5011146152280981,-1.3696550909764376,0.1325765291881585,-2.5433103384668176,1.1165591611151358,-0.5481484394724647,-1.8435385719075952,-0.7054728746394712,0.28534059659678246,-1.8537303254647048,-0.7109133863318372,0.27363902651002087,0.6549747835490999,0.33485176940490097,-0.6246409440258707,-0.49843452589520115,-0.07454092474708618,-1.3116827119763517,-0.22932918111390693,-0.4584792411010366,-0.6142207538321829,-0.2116748079776489,-0.5149736616865126,-0.6282824974330948,LR
0.5346154282302682,-1.3889712201618984,0.15236606512515047,-1.99488699974598,0.940907947574067,-1.3467509565112283,-1.8453672882978787,-0.7054396824220632,0.2850583628893965,-1.8486975250543671,-0.7475685314749884,0.28443335583756474,0.6774496993239778,0.3245998340974447,-0.5932658967104227,-0.4561282053847478,-0.07454092474708618,-0.015056789521927549,-0.23101634847515726,-0.45983534686513616,-0.6138824257473887,-0.2988426441580568,-0.5209269158694338,-0.5964752754607052,LR
0.5413154810567558,-1.4021873218302143,0.13314208345746684,-2.1776957771459715,0.3041710760629817,-1.494640598533401,-1.8480749628020967,-0.7060921715379505,0.28448496226133435,-1.8865822273557997,-0.7533888892618275,0.271173773696362,0.64114455638381,0.29469856024391566,-0.6086681246922193,-0.03306450910829899,1.438812921543763,-1.4438998085224044,-0.23267380980843805,-0.45978935425069295,-0.6136630411299052,-0.3141946780436542,-0.5039162735954333,-0.5871374238049893,LR
0.5654355614581642,-1.3930374887607735,0.1478427889442075,-1.8349304420756636,0.34808387944824887,-1.2875952934374806,-1.8500245575184628,-0.7071228772364069,0.2841993785989643,-1.8713115289522342,-0.7737907289816105,0.2818772515184508,0.6238565953980237,0.31349371665238035,-0.6234999949795539,0.1784675721460743,1.2935358895711067,-1.549673970731416,-0.23278790796131996,-0.4594640241397045,-0.613943219075125,-0.24629887420341273,-0.488382011466627,-0.609656884235007,LR
0.5721356142846517,-1.3940543682199087,0.13483828307598236,-2.0177377227360864,0.3041710760629817,-1.1988615082241767,-1.8526614318602614,-0.708225208246112,0.2837594178444239,-1.8944648230001988,-0.7775704658326734,0.2738603028760673,0.61348410205323,0.32118240568454853,-0.6217886882387745,-0.8791923803633033,0.9822272065460813,-1.734777801973282,-0.23339013016469512,-0.45905753059146315,-0.6142974062888944,-0.2329449665743099,-0.4726958085760656,-0.6113810386626852,LR
0.5279148265340482,-1.3940543682199087,0.14953898856272302,-1.8577811650657705,0.6554740784038068,-0.8439271423114468,-1.8542639330974509,-0.7082959600779554,0.2835651204553631,-1.8522253096624353,-0.7427697950474309,0.2819366115511561,0.6463308030562068,0.2972614565879718,-0.6195067901461409,-0.4561282053847478,-0.07454092474708618,-1.2323530429434975,-0.23478293779425083,-0.46031082933504247,-0.6142656880309446,-0.2892116890980462,-0.5163935682742403,-0.5992091411204947,LR
0.5774958760937348,-1.3950708312664886,0.13370740613207044,-2.0862913884459755,-0.029907099200566903,-1.080550182076681,-1.8568446853592826,-0.7097651524379585,0.2831645216718822,-1.8990754953377758,-0.782169946768429,0.2731610807067849,0.6653479850105883,0.31093047037709226,-0.6280635575074288,0.2207737541030959,1.438812921543763,-1.576116905068457,-0.2349334933450945,-0.4608674752422017,-0.6147044572659124,-0.25174057975301495,-0.5380054608732453,-0.6178294816750735,LR
0.5359552192476728,-1.4082873493473596,0.11391787019507847,-2.200546500136078,1.1604722521297468,-1.494640598533401,-1.8599210387580485,-0.7094445854961504,0.2823739322957031,-1.9154600949619105,-0.7473142185446625,0.25844118602391686,0.6826359459963747,0.29469856024391566,-0.6394725806558129,0.8553699472942132,1.7293683448699304,-1.391013073826591,-0.2348929851251366,-0.4619476253196416,-0.6151194378074173,-0.26293035671525594,-0.570776259505918,-0.6201098999930277,LR
0.5198749826901561,-1.3930374887607735,0.10882903974482726,-1.5607187727152445,0.9189513301594255,-1.731263638298635,-1.8621624682902385,-0.7090366706137952,0.28153700187558084,-1.9084855054168766,-0.7289468822674862,0.256625828028419,0.731042095133237,0.31605661299643645,-0.6343386604334755,0.876523038272724,1.314289557084221,-1.4174568741853633,-0.234423089773624,-0.46406260922205544,-0.61585424411658,-0.24433381386605585,-0.6125767765949223,-0.6352344779006616,LR
0.5480155338832431,-1.368638627929857,0.12352997682627266,-1.4921651070053557,0.43590977384812707,-1.5833741900115834,-1.8639963651802116,-0.7094070258817152,0.28097588441579263,-1.8887755703624267,-0.7487902822536672,0.26921572867389204,0.6826359459963747,0.32032822354694046,-0.6297748642482082,0.28423358125235526,1.0444890247139376,-1.2852397776393107,-0.23419894428985633,-0.4651671083306713,-0.6163934545017206,-0.23493162098130774,-0.5546382681556252,-0.6275390546982242,LR
0.5560553777271351,-1.3849045351504683,0.12522617644478817,-1.2636557816688914,0.6115612750185396,-1.13970603888555,-1.86577241315699,-0.7098393981874236,0.28050716988097446,-1.8973999053346762,-0.7600840485718834,0.2685819976205052,0.6618902511900923,0.31263918458354034,-0.6257818930721876,0.3053866722308661,0.7746880845293979,-1.338126512335124,-0.23432789545672272,-0.46603149893741436,-0.616686848387753,-0.25228178112339966,-0.53194396570518,-0.6163979589621847,LR
0.5748157451891932,-1.3605052579069967,0.12635705338870012,-1.1265497973147252,0.0406937955444285,-1.672107781489766,-1.8672471287351793,-0.7109740479351312,0.2800381761832413,-1.8932303137588409,-0.7699297168641548,0.27253821839178055,0.6601617383381915,0.2998243529320279,-0.6080977669977571,0.11500816065711021,0.1728249297448036,-0.7828150186095265,-0.23574028205925765,-0.4670845945357701,-0.6163881681253954,-0.3105581017531277,-0.5223622854550394,-0.5923125234097805,LR
0.5707952743975145,-1.4245532565679704,0.13992688193152883,-1.0579968799746202,0.3041710760629817,-0.9918165905984984,-1.8688358153065312,-0.7121462572972741,0.27971713883062577,-1.899978332521965,-0.7849070879979155,0.2734525858439191,0.6670764978624892,0.31947369147810045,-0.6246409440258707,-0.41382202342772617,0.6086568412912851,-0.9150322883599253,-0.2361527907658298,-0.4680362358375598,-0.616686848387753,-0.24308135782686205,-0.5342062695251156,-0.6203418963074556,LR
0.6109961402261722,-1.3706715540230174,0.100347810057545,-1.3550595716730598,0.6774304081891044,-0.8735048769807602,-1.8717325780494047,-0.7132468413481682,0.27907478496248017,-1.954282955367905,-0.7992045434622828,0.25584857389126153,0.6757204783553823,0.3254540162350527,-0.6132319208774866,-0.4772814349166903,1.4595665890568774,-0.7034846567592872,-0.23687181167008442,-0.4683270714877157,-0.6168269373603632,-0.25652501580791115,-0.5332287391375417,-0.6150481622236963,LR
0.5922357727641142,-1.3777880445867425,0.11900646905062491,0.05267518085996921,1.2922108061002202,-1.4650628638640877,-1.8726978778248236,-0.7135516856606778,0.27852985895178034,-1.920312844826927,-0.7879483560306783,0.2663304966617047,0.6774496993239778,0.31947369147810045,-0.6029636131180275,0.2419272607419019,1.6878596504628465,-0.888588488001153,-0.23771843346720595,-0.4684670784169768,-0.6167344257746772,-0.28871097660823875,-0.5300547907470763,-0.602188184703487,LR
0.5480155338832431,-1.3777880445867425,0.12635705338870012,-1.2179538866668072,-0.029907099200566903,-1.317173415577036,-1.874016314995723,-0.7143054983875998,0.27811809365168716,-1.888717850809621,-0.7516322947946281,0.269922754039962,0.7051101536545578,0.31093047037709226,-0.6080977669977571,0.601531608571198,1.8538917093294722,-0.3597201018169428,-0.23851644540037828,-0.4691576439956032,-0.6165969799902296,-0.3006659934133924,-0.5678611482538404,-0.6051830462170088,LR
0.5359552192476728,-1.3533891837558263,0.12126822293844879,-1.0579968799746202,0.940907947574067,-1.494640598533401,-1.875058458849866,-0.7138277051528068,0.2776454708360545,-1.879489614247566,-0.7341755910720894,0.26928484270258174,0.6567040045176954,0.32118240568454853,-0.6143728699238035,0.5169186904434279,0.940719463705596,-0.6505975756547815,-0.23852724759236715,-0.4694809450206604,-0.6166313414363418,-0.25776397555357966,-0.5146570063821472,-0.6107852299460872,LR
0.479674665731231,-1.3605052579069967,0.1099599166887392,-1.1494009693267024,0.5237355244333334,-1.317173415577036,-1.8759512316296367,-0.7128109751248379,0.27705420378141193,-1.8725468996794552,-0.6864311786680976,0.2600681525541159,0.6791782121758785,0.31947369147810045,-0.6343386604334755,0.28423358125235526,0.9614732671567959,-1.126578880734486,-0.2380587025148531,-0.47053268789506203,-0.6171784813859693,-0.22682979597776987,-0.5543774141044706,-0.63055237046403,LR
0.5707952743975145,-1.3981206368187842,0.12239909988236072,-0.9894439626345156,0.34808387944824887,-1.1101279167459943,-1.8775986305307986,-0.713718520227123,0.2766111722348028,-1.9144607713610902,-0.7754590567616519,0.26563824163241145,0.6964661731616646,0.29555274238152374,-0.6035342044698818,0.36884636082669364,-0.07454092474708618,-1.4174568741853633,-0.2397485704241005,-0.472453555910046,-0.6169485240158364,-0.3362766386958918,-0.5609747357642116,-0.5902482834757244,LR
0.5466751939961062,-1.3788049240458777,0.11731026943210952,-1.332208699008996,0.0406937955444285,-0.9326609275247504,-1.8791778195193878,-0.7143622745489555,0.27619801112013304,-1.902120847862688,-0.7492700685036634,0.26413445413721537,0.6999239069821608,0.30495049555137216,-0.6371909162205714,0.4957655994649171,-0.07454092474708618,-1.391013073826591,-0.23961826898323554,-0.4748059428664245,-0.6174718752720018,-0.2524849003409627,-0.5843131056914767,-0.6267191586324632,LR
0.5560553777271351,-1.3696550909764376,0.11448319286968206,-0.9894439626345156,0.743299685174341,-1.1988615082241767,-1.8806033203505301,-0.7144644716393957,0.27571282597331104,-1.906613496637064,-0.754386914576027,0.2636258529180286,0.6584325173695961,0.3152020809275963,-0.6052455112106612,-0.011911036415083733,-0.07454092474708618,-0.9150322883599253,-0.24055400886426512,-0.475660864405488,-0.6173212135467421,-0.28749833463494573,-0.5122541909728009,-0.5990087806671255,LR
0.5520354558051892,-1.4062540068416445,0.1150487471389904,-1.3093576766709756,0.9848206071446624,-0.7551935508332643,-1.8825477345672066,-0.7144714594746394,0.2752536029776139,-1.920419669073911,-0.7605183905869073,0.25973010692185633,0.6895507055206723,0.30495049555137216,-0.630915813294525,0.1784675721460743,1.1275045103949084,-0.5448242794675011,-0.24083554099297325,-0.47675589444642424,-0.6175088799062766,-0.26254098864703623,-0.5687022008775372,-0.6198489041392968,LR
0.5346154282302682,-1.4072704698882244,0.11335231592577012,0.05267518085996921,1.0287335543446015,-0.7551935508332643,-1.883194433611741,-0.7141447781769931,0.27477204694869106,-1.9152094025758426,-0.745831163414893,0.25817420521954365,0.6722627445348861,0.3143478987899884,-0.6160841766645828,0.5380719199753704,0.9822272065460813,-1.0472485188842466,-0.2410441583257569,-0.4773233621452172,-0.6175961051156375,-0.27068465216050397,-0.5357525693128874,-0.6101867849077336,LR
0.5359552192476728,-1.3910045626676135,0.10656751745170814,0.05267518085996921,0.6554740784038068,-0.9326609275247504,-1.883895527903012,-0.714115079877207,0.2742285167525679,-1.9185967649882765,-0.7416240759695713,0.25580482025213147,0.5979246539193445,0.3092221061018761,-0.6234999949795539,0.6438379290816514,1.1897663285627649,-1.6290036397642702,-0.2407227931140899,-0.4762520047734795,-0.6176674711960238,-0.2479339501640631,-0.4619053252744409,-0.6034088016759873,LR
0.5466751939961062,-1.3940543682199087,0.14275419008866103,-1.4007619156970144,0.6335177486185092,-1.1101279167459943,-1.8847770762667884,-0.7144199241897167,0.2741093141877271,-1.8709376440877896,-0.7574054604913036,0.27818243783955776,0.7137541341474509,0.3228911198909966,-0.6240703526740161,0.580378101932392,1.0652428281651376,-1.0472485188842466,-0.2404284333823953,-0.47768995033680905,-0.618130029124453,-0.24830914712408053,-0.5840690592467108,-0.6282587705373011,LR
0.5212147737075606,-1.3879543407027635,0.13483828307598236,-1.2179538866668072,0.7652563025889825,-1.4059070070552184,-1.885515297472498,-0.7140748998245554,0.27381814726705095,-1.8682351629362621,-0.7330700726636283,0.2734007503224018,0.7068386665064584,0.31349371665238035,-0.6303454556000625,0.601531608571198,0.9199655243163105,-0.6770408564005149,-0.24019348570663926,-0.4792070302514603,-0.6184736435855722,-0.2517648730813614,-0.5841524249743995,-0.6269617002339102,LR
0.5533752468225936,-1.3869378776561834,0.12579149911939178,-1.1494009693267024,0.43590977384812707,-1.317173415577036,-1.886740485648993,-0.7145378439094552,0.2734560729658842,-1.8962308690188892,-0.7584323254161589,0.26863940685401344,0.7120256212955501,0.31605661299643645,-0.6217886882387745,0.4323057723156577,0.5671492343888852,-0.5183804791087289,-0.24037577269645,-0.4809608368580991,-0.6186586667569441,-0.26516264366442316,-0.5830861504250925,-0.621665329828396,LR
0.5748157451891932,-1.3849045351504683,0.11787582370141786,-0.6009771815839942,0.6335177486185092,-0.8735048769807602,-1.8878594735818577,-0.7151815982312879,0.27312358993374103,-1.9171830666874619,-0.7747791410922583,0.2644212216191569,0.6722627445348861,0.31263918458354034,-0.6440363768410803,0.4323057723156577,0.42187165866388704,-0.015056789521927549,-0.23960949220224476,-0.4822134592397013,-0.6189811357127638,-0.21911936348648026,-0.5561435573838083,-0.6338240457618116,LR
0.5748157451891932,-1.363555479871847,0.1099599166887392,-0.6009771815839942,0.34808387944824887,-0.7847712855025777,-1.889039764094379,-0.7158934839467471,0.27275341990802987,-1.9194927102855637,-0.7680376636196343,0.2619094283103723,0.6722627445348861,0.3032417813449241,-0.6183658410998241,0.1784675721460743,-0.2007454626976097,-0.14817288590673572,-0.2404014279024234,-0.48359797220683953,-0.6187538215307926,-0.28660420518886154,-0.5416520391553645,-0.6053306802352807,LR
0.5882158508421682,-1.4113371548996545,0.12805325300721565,-0.4638713469037847,0.08460671398143323,-0.28194747130279624,-1.8900577322833043,-0.7173583089097231,0.2726236091524073,-1.9198424735458504,-0.7943813370620478,0.2680193313950047,0.6532462706971992,0.3006788850008679,-0.5909842322751812,-0.2445961871721859,0.048301456534793466,-0.7034846567592872,-0.24257941986216452,-0.483980116723905,-0.6180718789848793,-0.3420031160388886,-0.5019437329096409,-0.5761334168002026,LR
0.5707952743975145,-1.3981206368187842,0.12466085377018458,-0.4638713469037847,0.08460671398143323,-0.5777261741417782,-1.8909090610655617,-0.7184169659491546,0.2724100495221894,-1.9110527332879481,-0.7758217367138347,0.2670439317965641,0.6826359459963747,0.3075133918954281,-0.6343386604334755,-0.2445961871721859,-0.2837610571290489,-0.4654937444129156,-0.24286500281286832,-0.485817115853728,-0.6182991931668504,-0.2496007424144996,-0.5625674245456166,-0.6235529362048757,LR
0.5734754053020561,-1.366605285424142,0.11391787019507847,-0.16680835585743156,0.12851957489256918,-0.45941465425916117,-1.8915540332768659,-0.7192659879312729,0.2721649444825406,-1.9142557377257494,-0.7683216900882113,0.2640129472158095,0.6705342316829854,0.3228911198909966,-0.6212180968869202,0.009242096129456579,0.06905536873646181,-0.5183804791087289,-0.24285555089487798,-0.4867897243768079,-0.6184630708329227,-0.24426700721310352,-0.5342445908676822,-0.6199016305743943,LR
0.6096558003390352,-1.3716884334821526,0.11052523936334266,-0.1211066105293042,0.2602581288630426,-0.22279161449392715,-1.8926358942952919,-0.7206111462156992,0.27193658921781094,-1.938548777570166,-0.7999089291043535,0.26210060663166673,0.6515170497286037,0.301533067138476,-0.6177954834053618,-0.22344309619367508,0.3803639158234017,-0.33327664786686306,-0.24383990063985722,-0.4872334178337902,-0.6181961088285143,-0.28601576679113644,-0.5191574110688185,-0.6009886583050261,LR
0.5466751939961062,-1.4052371273825093,0.12861857568181911,-0.1211066105293042,0.37004049686289037,-0.34110313437654416,-1.8928569289486976,-0.7210155671804326,0.2718140366979865,-1.8971991791286493,-0.7579385563246327,0.2681450186004041,0.6653479850105883,0.30495049555137216,-0.6292045065537457,0.4323057723156577,0.6709185235210561,0.06337422608086365,-0.24383247413286496,-0.4878752853500648,-0.618135315500778,-0.2604780801816179,-0.5410778913211223,-0.6151351608416066,LR
0.5426552720741601,-1.4082873493473596,0.11617939248819759,0.3587641101993426,0.5017790508333638,-0.07490222432741195,-1.8930382464378193,-0.7211789078292558,0.27158205231535737,-1.9152507538972556,-0.7533207229093689,0.2599951369270324,0.708567887475054,0.3288714446479489,-0.6257818930721876,0.2419272607419019,-0.0762220397846912,0.14270465721284142,-0.2434044372753088,-0.48977924431562125,-0.618412850257836,-0.23263320219386374,-0.5773171076081927,-0.6328881515388359,LR
0.5265750355166436,-1.3828711926447532,0.12126822293844879,0.587274034231634,0.391996826648188,-0.37068106278097873,-1.8924882500541509,-0.7210505063566515,0.27140590051579205,-1.888602411704009,-0.7339859487838396,0.2656789297299463,0.6878221926687716,0.3254540162350527,-0.610950022784853,-0.4772814349166903,-0.7403469080648158,0.30136503450462754,-0.24410455434358277,-0.4914498583990757,-0.6182886204142003,-0.26389534170235057,-0.5450512094714403,-0.614636896029938,LR
0.5922357727641142,-1.3361063970760803,0.11844114637602145,0.5415721392295499,0.7652563025889825,0.2504544650365409,-1.8922879373995012,-0.7215038421680912,0.2714645247280087,-1.902175121472043,-0.7772593476086321,0.2708142692729366,0.6757204783553823,0.3263085483038927,-0.606386460256978,-1.069570891937059,-0.2630071177397635,0.9888939711849701,-0.2453306031343113,-0.4924251723700642,-0.6179027149424818,-0.2686298414712013,-0.5279182078229289,-0.6093800704507465,LR
0.5600752996490812,-1.3737217759878677,0.1269223760633037,0.5415721392295499,0.7213434992037153,0.2208765366321064,-1.8918519120089945,-0.7216121536143697,0.27152314894022533,-1.8916081358792345,-0.7608924315978334,0.27102021793100745,0.6912799264892677,0.31691079513404435,-0.610950022784853,-0.49843452589520115,-0.013960239288785956,1.1739978024268358,-0.24634128322226295,-0.4936899692672544,-0.617506236718114,-0.280615899751464,-0.5521843576228569,-0.6097122469918587,LR
0.5855357199376268,-1.3696550909764376,0.12805325300721565,0.06170135863132041,0.4798225772333943,-0.37068106278097873,-1.8919952391670622,-0.7223799420117792,0.27149551181160925,-1.8997672684855842,-0.781655203414608,0.2727745437802029,0.6774496993239778,0.33399723733606096,-0.616654534359045,0.2207737541030959,0.2765944907531454,0.5129123196965731,-0.2459078452687126,-0.49435483309075073,-0.6175326685997387,-0.23412859151652235,-0.5343346796379262,-0.6237585693017549,LR
0.5761555362065977,-1.381854729598173,0.12352997682627266,0.29021119285923785,0.018737408233262115,-1.258017558768167,-1.8921031662439203,-0.7234010394367755,0.2711864784643526,-1.9078729889684432,-0.7760515796714832,0.26832867241051017,0.7120256212955501,0.31178500244593227,-0.6491702970634178,0.5592250109538812,-0.03471417867807141,0.8302335938931841,-0.24494307449671301,-0.49661861662812823,-0.6178683534963703,-0.21922395976130532,-0.6031248510661035,-0.6429641732859125,LR
0.5774958760937348,-1.4113371548996545,0.061899383532768255,0.7700819135878847,0.2602581288630426,-1.4059070070552184,-1.8939318826342049,-0.7241688278341849,0.27001315673127313,-2.0140657668152375,-0.7751260903477202,0.22645309553585444,0.6463308030562068,0.30495049555137216,-0.6337680690816209,0.28423358125235526,-0.32526893590761985,0.8302335938931841,-0.24464871476501843,-0.4975357634690853,-0.6175828891748255,-0.24725441178503915,-0.5236369743235678,-0.6166088647025738,LR
0.5614156395362183,-1.3869378776561834,0.13709980536910135,0.8614858532660099,0.10656318758140279,-1.0509724474073676,-1.8926980602915622,-0.7248396600175872,0.2698227676230264,-1.882914882037963,-0.7670833346852157,0.275846495144092,0.6653479850105883,0.32203693775338854,-0.6223590459332371,-0.5195880325340071,-1.2591947131065249,1.068223986626517,-0.2449450999077111,-0.49915362131832547,-0.617400509191616,-0.2424173401853924,-0.529677628059711,-0.6196722705817213,LR
0.5694554833801102,-1.3554221098489865,0.1150487471389904,0.5415721392295499,-0.33256565163343177,-0.31152520597210964,-1.8925331477181233,-0.7258485287309069,0.2696988192886254,-1.905565068342066,-0.7621972054980962,0.26591887803116276,0.6636187640419929,0.3143478987899884,-0.6428954277947635,-1.0484180780654118,-0.07454092474708618,0.2484784730131605,-0.24509295491055766,-0.5001871024193452,-0.6176674711960238,-0.2162925648075013,-0.5453423172140947,-0.6327299722335442,LR
0.6217161149746057,-1.3920210257141936,0.12183354561305237,0.26736017052121736,0.06265025476293086,0.3391880565147234,-1.893211793177407,-0.7275797649125516,0.26973929791134654,-1.9358618031641683,-0.8169898439607752,0.267099111545276,0.6532462706971992,0.31605661299643645,-0.6086681246922193,-0.9426520689591309,-0.49130017914573254,0.03693089337382626,-0.24639191849721018,-0.5007680973576801,-0.6173582181810169,-0.2778106951421265,-0.5086775323332592,-0.6019482794237949,LR
0.5922357727641142,-1.3605052579069967,0.11335231592577012,-0.16680835585743156,0.4139533002481576,0.014230713355838028,-1.8939482875498876,-0.7282768014781179,0.2696636447612953,-1.9211002429055033,-0.7826645897875508,0.2647787752433851,0.5754504462611614,0.3228911198909966,-0.6120909718311698,-0.41382202342772617,-0.5120539825969325,0.16914793795857497,-0.24649656473210177,-0.499605431119033,-0.6169511672039982,-0.23923356454265637,-0.42292579684173676,-0.5981967935666285,LR
0.6324360897230392,-1.381854729598173,0.11617939248819759,-0.21251040053347262,0.699387025603746,-0.22279161449392715,-1.8951708854765372,-0.72954946097189,0.2695461171739466,-1.9448651919160393,-0.8227420353951556,0.2649680027654829,0.6774496993239778,0.31178500244593227,-0.6143728699238035,0.1573143426141318,-0.2630071177397635,0.14270465721284142,-0.24702452186555435,-0.5006855811964731,-0.6167502849036517,-0.28004230727661766,-0.5412500012105439,-0.6077429146409778,LR
0.5962556946860601,-1.3798213870924578,0.12126822293844879,-0.4410203245657642,0.391996826648188,-0.22279161449392715,-1.8960722924224556,-0.7304185729803342,0.26948023472593174,-1.9196357169387845,-0.792238466597584,0.2675976800828788,0.6688057188310848,0.30495049555137216,-0.6280635575074288,0.3476932698481828,-0.13848375328022175,0.14270465721284142,-0.24709271070248368,-0.5017068877819048,-0.6166894915759155,-0.26350124993139723,-0.5440474592178995,-0.6145868059165954,LR
0.5748157451891932,-1.3960877107256238,0.09525897960729368,0.13025430590621653,0.6774304081891044,-0.25236954289836167,-1.8972094121042333,-0.7306928455136523,0.26904111146013715,-1.9562540350219364,-0.774045915839532,0.2490174324749821,0.6705342316829854,0.3066588598265881,-0.616654534359045,-0.2445961871721859,-0.470546239756447,-0.4654937444129156,-0.247962962294581,-0.5028161214243604,-0.6165890504257419,-0.2833327036382078,-0.5372228987197817,-0.6056813110286775,LR
0.5573951687445395,-1.3422060081806708,0.12296442255696431,0.01599932892267505,0.32612754966295127,-0.25236954289836167,-1.896924484621328,-0.7307487481956025,0.26907042356624566,-1.881846639568121,-0.7497865597126756,0.27214666512440655,0.6860936798168707,0.31263918458354034,-0.6086681246922193,-0.2445961871721859,-1.1969328949386684,0.4864688657464934,-0.24898714512251863,-0.5046199788173049,-0.6162454359646234,-0.29193186705817104,-0.546446913105968,-0.604265606246317,LR
0.5493553249006476,-1.4011708587836338,0.11957202331993338,0.5644231615675704,0.238301799077745,-0.13405800364223255,-1.896748347631896,-0.7310396168376245,0.2689422877881147,-1.910124051527876,-0.7576833694667112,0.2630567769237383,0.6705342316829854,0.29555274238152374,-0.6155135853127282,-0.30805601432144525,-0.9271320906922141,0.9095636093347309,-0.2503171650111392,-0.5060755097920394,-0.6156850800741825,-0.3059626138075927,-0.5407074516763126,-0.5977749820858511,LR
0.5640952215710271,-1.417436766004245,0.115614069813594,0.13025430590621653,0.3041710760629817,-0.25236954289836167,-1.8973458319293823,-0.7315846679866388,0.2687116992200626,-1.9302018410457313,-0.7736194391728687,0.25908662187248516,0.7016524198340616,0.3075133918954281,-0.6206477391924577,-0.07537078043228404,-0.6988391652243304,0.5393559468509991,-0.2509511186534819,-0.5079733814998019,-0.6155529206660599,-0.28090472043291626,-0.57398852923895,-0.6139066349038413,LR
0.5453354029787015,-1.4001539793244993,0.12974945262573104,0.26736017052121736,0.34808387944824887,-0.28194747130279624,-1.8970729922790854,-0.7317436412384347,0.2686904828384985,-1.8925841993617596,-0.7556925624038855,0.26939743168480185,0.6791782121758785,0.3228911198909966,-0.6343386604334755,-0.054217647887743727,-0.470546239756447,0.8566768746389176,-0.25035024672410483,-0.5092767310296873,-0.6157167983321322,-0.22050813209028522,-0.553113482104031,-0.6326930637289765,LR
0.5520354558051892,-1.3716884334821526,0.11844114637602145,0.6101250565696547,0.15047604849253873,-0.07490222432741195,-1.8966447376381113,-0.7319829745955339,0.26863660439584214,-1.8997000725882882,-0.7521514077864274,0.2657773057465889,0.6705342316829854,0.31349371665238035,-0.6172251257108996,-0.43497511440623704,-0.8648704084624431,0.3278084884547073,-0.2510166069424137,-0.5104786262630067,-0.6155529206660599,-0.2695941516436194,-0.5349915208956015,-0.6104477807614651,LR
0.5721356142846517,-1.3503389617909765,0.11957202331993338,0.8843368756040305,-0.3764784550186989,-0.015746483759615536,-1.8959522775129904,-0.7329228384358212,0.2686695456198498,-1.897629060574175,-0.7639135992958966,0.26940857910878396,0.6653479850105883,0.34681206898757333,-0.5961183861549108,-0.6253540416402881,-0.8441166050112432,-0.17461623593420772,-0.2513474240720705,-0.5109074397564926,-0.6155238455962734,-0.24809320642766775,-0.5004115515112358,-0.6114970368198992,LR
0.5815157980156807,-1.3777880445867425,0.11674494675750592,0.4273171772134041,0.34808387944824887,-0.16363587392613074,-1.8961051022538211,-0.7335098165962981,0.2685782593465409,-1.9187897378215384,-0.7784749808941415,0.2646790057987446,0.577178959113062,0.32032822354694046,-0.6246409440258707,-0.41382202342772617,-0.6365774829945596,0.40713885030494656,-0.2509909517364403,-0.5099118349261909,-0.6152991746024641,-0.22024158029315047,-0.43573722673555376,-0.6081779077305299,LR
0.5748157451891932,-1.3727048965287325,0.12918412995112757,0.06170135863132041,0.34808387944824887,-0.16363587392613074,-1.896057614340003,-0.7339640258871434,0.2686502833786927,-1.8945225425530048,-0.7735075764406292,0.2728832311640292,0.6688057188310848,0.336560483611349,-0.6286341488592835,-0.4772814349166903,-0.8856243478517287,0.06337422608086365,-0.2503583483680966,-0.5110657084591356,-0.6156903664505076,-0.20383885995656978,-0.5325033228458,-0.634836393315678,LR
0.5654355614581642,-1.3798213870924578,0.13766535963840984,0.01599932892267505,0.19438885187780588,-0.5481484394724647,-1.8957718234404828,-0.7344514273953965,0.26872454071416735,-1.8806388363885091,-0.7687638974515958,0.27711925227725737,0.6757204783553823,0.33399723733606096,-0.6092387160440739,0.32653976320937683,-0.7403469080648158,0.9095636093347309,-0.25005656212940974,-0.5119794734902071,-0.6155238455962734,-0.248484598939916,-0.5269870664289881,-0.6168276794082269,LR
0.5734754053020561,-1.3645719429184269,0.13314208345746684,0.5187211168915293,-0.003219050985240245,-0.5777261741417782,-1.8951363488119426,-0.7351493374403683,0.26877367338726293,-1.884172651397616,-0.7709478425130539,0.2762706546266139,0.6705342316829854,0.336560483611349,-0.6217886882387745,-0.07537078043228404,-0.678085225835045,0.883120155384651,-0.2494307101310588,-0.5128783585577825,-0.6156084276174718,-0.21760912824094336,-0.5294194632255786,-0.6290048495939266,LR
0.5774958760937348,-1.363555479871847,0.15802021825000526,0.5415721392295499,0.391996826648188,-0.6368820309506472,-1.8937617895610765,-0.7356262571957558,0.2691237436830712,-1.8476284210986633,-0.7782468857916844,0.29195396542714186,0.6670764978624892,0.31349371665238035,-0.6206477391924577,0.32653976320937683,-0.7195931046136159,1.2004410831725696,-0.2494354360900535,-0.5138421743751601,-0.6153203201077644,-0.26200990949679626,-0.5336334662993845,-0.6130498303335118,LR
0.5707952743975145,-1.3940543682199087,0.13879623658232176,0.6786779739097594,0.5017790508333638,-0.4002589911854132,-1.893140993014989,-0.7360036002989195,0.26920860920932765,-1.8878718716923757,-0.7770836881619122,0.27628319547859387,0.6428730692357106,0.3288714446479489,-0.6120909718311698,0.1573143426141318,-0.5950696042159888,0.9095636093347309,-0.24919643759230178,-0.513942275947772,-0.6150560012915185,-0.2446543508372937,-0.49460754887304725,-0.6115866717595644,LR
0.5506951159180521,-1.3869378776561834,0.13879623658232176,0.5415721392295499,0.34808387944824887,-0.6073041025462128,-1.8923647814782252,-0.7361040504305487,0.26924964615787966,-1.8754578604097747,-0.75831434519075,0.2766532899548021,0.6757204783553823,0.301533067138476,-0.6286341488592835,0.36884636082669364,-0.4290384969159616,0.8037897935344118,-0.24934091691015176,-0.5150826222411745,-0.6148789076846342,-0.27019473670551775,-0.5532822304721748,-0.6138908169733124,LR
0.5547155867097306,-1.346272693192101,0.15180074245054687,0.3359132375352789,0.45786624744809673,-0.9326609275247504,-1.8910584321399342,-0.7360367925163275,0.26949447203461313,-1.838775792372778,-0.7534579295418815,0.2896269406708619,0.635958309711413,0.3092221061018761,-0.6052455112106612,-0.07537078043228404,-0.5328079219862178,0.618685962292546,-0.25024019939321906,-0.5150156624054409,-0.614300049477057,-0.2930986216334766,-0.489805951879888,-0.5922176158266053,LR
0.5533752468225936,-1.3757551184935828,0.13088032956964296,0.8157839582639257,0.4798225772333943,-0.10448011398482224,-1.8902520010216493,-0.7359808898343773,0.26956510025218827,-1.8834722633911785,-0.7563934523355739,0.2730975403900865,0.6653479850105883,0.31605661299643645,-0.6234999949795539,-0.32920910529995606,-0.22149937489927807,0.43358230425502636,-0.25046569515098527,-0.5155878646380735,-0.6142709744072697,-0.2512520139273813,-0.532793758284199,-0.6169594954959698,LR
0.5774958760937348,-1.3910045626676135,0.12861857568181911,0.38161513253736307,0.5237355244333334,-0.16363587392613074,-1.890258908354568,-0.7363643472933793,0.26956928769591815,-1.9049335992046517,-0.7803242116864765,0.2704714859854847,0.6549747835490999,0.30409596348253193,-0.6326273536926962,-0.26574969381099195,0.23508661197457445,0.27492175375889405,-0.25066486056577864,-0.5158239149680839,-0.6142656880309446,-0.25299910912429585,-0.5325308873202778,-0.6162450523004029,LR
0.5841959289202223,-1.3808382665515928,0.10713284012631175,-0.28106331787357736,0.6774304081891044,-0.31152520597210964,-1.8914314281175553,-0.7366394933061029,0.26930408292636643,-1.9359729348404662,-0.7799938670553317,0.25837374410882463,0.6757204783553823,0.31605661299643645,-0.606386460256978,0.2419272607419019,-0.09697588809545937,0.6980164973471316,-0.2512036198912201,-0.5162716665969288,-0.6138956416882014,-0.2877500405092017,-0.53195001644348,-0.6029369000818674,LR
0.5828555890330852,-1.383888072103888,0.1269223760633037,-0.39531842956367996,1.0067772245593039,-1.258017558768167,-1.892109210160225,-0.7366281380738317,0.26907935677953587,-1.9067332431719899,-0.7827939310717029,0.27035750357526683,0.6791782121758785,0.3152020809275963,-0.6303454556000625,0.8976761292512347,0.42187165866388704,0.46002558500075985,-0.25040020686205305,-0.5167816435276675,-0.6140251579081616,-0.2425165379428069,-0.5531538203593642,-0.6243675596271276,LR
0.5547155867097306,-1.3757551184935828,0.12409529950087625,-0.32676536254961835,0.8969950003741279,-1.2284396303637326,-1.8924450792234073,-0.7362429336560187,0.26885379314395913,-1.894307171087311,-0.756407435177104,0.2689005352607961,0.6549747835490999,0.3186195093404924,-0.610950022784853,0.8130633496768964,0.29734829420434533,0.2484784730131605,-0.25015783267930475,-0.5165050114790307,-0.61381898923149,-0.26891663770862445,-0.511246406893727,-0.6058526719427432,LR
0.5466751939961062,-1.3767715815401627,0.13088032956964296,-0.0754045359184718,0.8091691059742496,-1.0213943252678117,-1.8923121130647176,-0.7357808630505244,0.26873738220827165,-1.8808378396228098,-0.750986462301464,0.27282582193052096,0.6895507055206723,0.3075133918954281,-0.6018228977291028,0.41115268133714694,-0.11772981389093629,0.9624501708261979,-0.25117391386325055,-0.5172638896173449,-0.6132586333410498,-0.3161172250564047,-0.5474385618829086,-0.5952546584882048,LR
0.5399751411696185,-1.3788049240458777,0.14501571238178015,0.13025430590621653,0.15047604849253873,-0.6073041025462128,-1.891544535694103,-0.735870831429288,0.2688881301825434,-1.8574605592505233,-0.7482213553889178,0.2812086847651197,0.6774496993239778,0.31605661299643645,-0.630915813294525,0.05154837507388038,-0.5120539825969325,0.5922426815468125,-0.2508714524875642,-0.518376505069686,-0.6133802199965223,-0.23943803338957195,-0.5513426326949047,-0.6251716377623597,LR
0.5761555362065977,-1.3523723042966915,0.12183354561305237,0.3130622151972584,0.6554740784038068,-0.4889925826635957,-1.8914245207846367,-0.7358979092908575,0.2688409516498548,-1.8969958684650345,-0.7682404148218185,0.27068272966994716,0.6567040045176954,0.30580467768898,-0.6217886882387745,0.2419272607419019,-0.055468104473548316,0.16914793795857497,-0.2510807449573474,-0.5186233771913301,-0.6132454174002371,-0.2715072512509017,-0.5260364282116363,-0.6079037302680244,LR
0.5640952215710271,-1.3808382665515928,0.12466085377018458,0.01599932892267505,-0.003219050985240245,-0.7256156224288297,-1.8916213797728259,-0.7364630504661976,0.2687086284279939,-1.9001273695762249,-0.7657540908122755,0.2688796338408296,0.6532462706971992,0.3186195093404924,-0.6080977669977571,-0.3503621962784668,0.23508661197457445,0.14270465721284142,-0.2517639836006388,-0.51827505077312,-0.6130233895945911,-0.2741896395891543,-0.5072327504880759,-0.6030238986997777,LR
0.5640952215710271,-1.3747382390344476,0.12861857568181911,-0.02970250620982642,0.6335177486185092,-0.42983672585472665,-1.8916783652694067,-0.7364298582487897,0.26870499931009484,-1.8913712272669705,-0.764840836474851,0.2720513546493592,0.6325005758909168,0.30238724927608385,-0.6172251257108996,0.030395228673996886,0.4011178552126871,0.27492175375889405,-0.25230071751508215,-0.5176412996005706,-0.6126877046979595,-0.28105250484702365,-0.4976120765911133,-0.5984235172375465,LR
0.5748157451891932,-1.4082873493473596,0.1325765291881585,0.3359132375352789,0.5237355244333334,-0.31152520597210964,-1.8917232629333804,-0.7368919288542842,0.26870751177633273,-1.905542669709634,-0.7830447482916463,0.27087530141923905,0.6636187640419929,0.32118240568454853,-0.6314864046463794,0.28423358125235526,0.5463951590615143,0.16914793795857497,-0.25153578729487547,-0.5176372414287079,-0.6129493803260422,-0.22575414138376357,-0.5346788994167693,-0.626995972416723,LR
0.5547155867097306,-1.3777880445867425,0.1365344826944979,-0.09825543851732682,0.699387025603746,-0.45941465425916117,-1.8915384917777982,-0.7366753059617273,0.26878483990387564,-1.8765054272189108,-0.7589890172945697,0.2764080466271943,0.64114455638381,0.32118240568454853,-0.6189364324516786,0.6438379290816514,0.19357873319600355,0.27492175375889405,-0.25091466125551964,-0.5172104570211534,-0.6128965165627935,-0.24509163074752985,-0.5008707353177784,-0.6127281990794187,LR
0.5238949046121021,-1.3879543407027635,0.12861857568181911,0.15310522347246724,1.1385157785297773,-0.5481484394724647,-1.8911888080487784,-0.7355755953902384,0.2687058367988411,-1.8787358141176367,-0.7342839580939465,0.26960505245646965,0.6981946860135653,0.3237453020286047,-0.6149432276182659,0.7496039381879324,0.15207099035551813,0.5393559468509991,-0.25055818891988946,-0.5180146514119337,-0.6129044461272805,-0.26146128516497236,-0.5600993956234818,-0.618562379122925,LR
0.5627554305536228,-1.361522137366132,0.1455812666510885,-0.37246740722565946,0.8969950003741279,-1.1692839672899846,-1.8908952463997244,-0.7352917145834602,0.26878763153302887,-1.858984527741774,-0.7631427951565585,0.2841301459052495,0.6722627445348861,0.30495049555137216,-0.6195067901461409,0.5592250109538812,0.8161959633079687,0.3278084884547073,-0.25076950680067017,-0.5179923314666892,-0.6127405684612088,-0.2811996144464551,-0.5418019630043529,-0.6074133744216206,LR
0.6109961402261722,-1.3991375162779187,0.13992688193152883,-0.34961638488763885,1.1385157785297773,-0.9622388559291849,-1.8915186331956562,-0.735852488361773,0.2687884690217747,-1.9065264865649243,-0.812488242915729,0.2772870210081889,0.6428730692357106,0.30836757403303616,-0.6292045065537457,1.0245953678894584,0.7746880845293979,0.5393559468509991,-0.24997081973049834,-0.5174235110439421,-0.6126612728163348,-0.2490710128936116,-0.5152883000781113,-0.6142071755838957,LR
0.5587355086316766,-1.385921414609603,0.13088032956964296,-0.21251040053347262,0.7872127761889521,-1.5833741900115834,-1.8917163556004606,-0.7356690576866239,0.268538897375481,-1.8905950285046105,-0.7635378104297795,0.2720418793389741,0.7794489523867941,0.31178500244593227,-0.6172251257108996,0.601531608571198,0.1728249297448036,0.1955913919086547,-0.2504778476169727,-0.52016412977518,-0.6128489391758692,-0.29684114382818066,-0.6566974156698399,-0.623397393221339,LR
0.5399751411696185,-1.3655884059650072,0.11278699325116653,-0.39531842956367996,0.6115612750185396,-1.0213943252678117,-1.8922231811533865,-0.7351999992458857,0.26823991389317575,-1.899701795560013,-0.7393868213247803,0.2626629941715676,0.6722627445348861,0.3152020809275963,-0.6177954834053618,-0.03306450910829899,0.1728249297448036,0.03693089337382626,-0.25077558303366393,-0.5204339982040458,-0.6128462959877068,-0.2657011457761023,-0.5366480785812839,-0.6122589338070537,LR
0.5975960345731972,-1.3757551184935828,0.1438848354378682,-0.7609341882761809,0.5676484716332725,-0.7256156224288297,-1.8926902895420286,-0.7359101380025341,0.26839680345158445,-1.8838461482556232,-0.7960033466795213,0.28219160887474865,0.6584325173695961,0.3280172625103408,-0.6120909718311698,0.2419272607419019,0.3596099764341162,-0.4390504636671821,-0.2505554883718919,-0.5200579409447743,-0.6129652394550174,-0.24995232086084657,-0.5121943558940567,-0.6132370091781071,LR
0.5721356142846517,-1.3727048965287325,0.11674494675750592,-0.6009771815839942,0.32612754966295127,-1.080550182076681,-1.8936262331525426,-0.7362499214912626,0.26812126965416583,-1.9121218372436533,-0.7692061048149803,0.2650532805589463,0.6307720630390161,0.3263085483038927,-0.6292045065537457,0.3053866722308661,0.2765944907531454,-0.17461623593420772,-0.2495583110239262,-0.5194066043608202,-0.6132322014594251,-0.21316817285627895,-0.495119172411523,-0.6235872083876886,LR
0.5761555362065977,-1.4072704698882244,0.13992688193152883,-0.7609341882761809,0.5896048014185701,-0.6073041025462128,-1.8943281908604288,-0.7366648242088615,0.26816230660271745,-1.8945923229078898,-0.7851010999241435,0.275568088230137,0.6463308030562068,0.3092221061018761,-0.6098090737385361,0.1573143426141318,0.5048874162210288,-0.4390504636671821,-0.2501544569943081,-0.5187924676856068,-0.6130366055354031,-0.2865164792809438,-0.5046141254126972,-0.5978039816251548,LR
0.5815157980156807,-1.3910045626676135,0.10882903974482726,-0.6466792262600352,0.19438885187780588,-0.8439271423114468,-1.8957631892743338,-0.7373339094334527,0.2678052572340265,-1.9367129511965906,-0.7805697853408462,0.25822436862746356,0.5719927124406652,0.3152020809275963,-0.6075274093032949,0.3053866722308661,0.3803639158234017,-0.6505975756547815,-0.2501483807613144,-0.5165780585725582,-0.6127009206387715,-0.26148422886396633,-0.4188301193169083,-0.5888879414502171,LR
0.5681156923627058,-1.3676217484707223,0.12183354561305237,-0.25821244520951364,0.6115612750185396,-0.5481484394724647,-1.8960912875879836,-0.7373513790215622,0.26773602483102793,-1.9002402242242489,-0.7653136313040824,0.268731094416267,0.6722627445348861,0.3331430551984529,-0.6200773814979955,0.36884636082669364,0.3803639158234017,-0.22750283206654398,-0.24942530903506413,-0.5166720728873762,-0.6130207464064286,-0.22777926022730968,-0.5313973823454154,-0.6255644497038342,LR
0.5654355614581642,-1.363555479871847,0.11335231592577012,-0.28106331787357736,0.940907947574067,-1.13970603888555,-1.8966248790559705,-0.7369984933417517,0.2674532327978112,-1.9099526158411844,-0.7605987919257045,0.26382789997770556,0.6999239069821608,0.335705951542509,-0.6274931998129666,0.7496039381879324,0.8784576455377396,-0.5712675602132347,-0.2481607774353758,-0.5170833009694573,-0.6136577547535802,-0.21457786071504883,-0.5664224171469572,-0.6375834405842422,LR
0.5520354558051892,-1.3757551184935828,0.11391787019507847,-0.6923812709360763,1.0726465015445406,-0.8735048769807602,-1.8974839785877604,-0.736315432446673,0.26718914467992066,-1.9083433602495186,-0.7524651477932555,0.26248435670225306,0.7016524198340616,0.31263918458354034,-0.6189364324516786,0.41115268133714694,0.7954420239186832,-0.3068333671211295,-0.2483909991521372,-0.5176791758712885,-0.6137740550327283,-0.27487255204155986,-0.5708999634889398,-0.6155965171487068,LR
0.5426552720741601,-1.3747382390344476,0.14218863581935268,-0.5324242642438894,1.0506898841298988,-0.5481484394724647,-1.8972094121042333,-0.7356594494131637,0.2673580382436878,-1.8610555397558872,-0.7489563284968354,0.2799955663502593,0.7120256212955501,0.31605661299643645,-0.5966887438493732,0.6649910200601621,0.5463951590615143,-0.14817288590673572,-0.24923897122325725,-0.5182973707183645,-0.613522952157295,-0.31608415913726606,-0.5656714532935045,-0.5988769645793826,LR
0.5426552720741601,-1.3472891562386808,0.115614069813594,0.4501680498774678,0.699387025603746,-0.28194747130279624,-1.8966870450522397,-0.7350331646794406,0.2673033223122857,-1.8883370740582743,-0.7373173607783485,0.26659914957967534,0.6722627445348861,0.33826884788656514,-0.606386460256978,-0.3503621962784668,-0.11772981389093629,-0.015955784510961447,-0.2493807499931106,-0.5184569921449618,-0.6135996046140065,-0.24532376699617345,-0.5193342270880289,-0.6164585943625462,LR
0.5493553249006476,-1.3798213870924578,0.11109079363265113,-0.05255361835222105,0.6115612750185396,-0.37068106278097873,-1.8970988947775311,-0.7347676269401772,0.26710316250200294,-1.9131599277082985,-0.7507872068096623,0.2601938397595149,0.6878221926687716,0.3228911198909966,-0.6138022785719491,-0.9214985623203248,0.4841334768317434,-0.2539466324253163,-0.25028273302417503,-0.5187512096050033,-0.6137106185168295,-0.2629667967077757,-0.5480759063171728,-0.6155965171487068,LR
0.5895556418595727,-1.3757551184935828,0.12013734599453685,-0.5095733915798257,0.9189513301594255,-0.25236954289836167,-1.8979554040594768,-0.7349231062743512,0.2670721754184028,-1.9164361584444356,-0.7853379343025569,0.26721197921309536,0.6826359459963747,0.3280172625103408,-0.6257818930721876,-0.2869027847895027,0.8577038420865395,-0.06884245477475792,-0.25000930253945863,-0.5188289912323707,-0.6140436602252985,-0.22848241712000408,-0.5489330942430029,-0.6288387613233708,LR
0.5600752996490812,-1.4062540068416445,0.11674494675750592,-1.0122948352985792,0.545691854218631,-1.1988615082241767,-1.8992660704808424,-0.7350881938819854,0.26673355080212263,-1.9216386715697389,-0.7675701123559769,0.2609621759574865,0.6930084393411684,0.31093047037709226,-0.626922608461112,0.41115268133714694,0.5048874162210288,0.2484784730131605,-0.249888453016584,-0.5194925023319128,-0.6141308854346594,-0.26020612986707303,-0.5675310468643641,-0.6205053482562571,LR
0.5533752468225936,-1.4062540068416445,0.12805325300721565,-0.7380831659381605,0.45786624744809673,-1.7016857098942006,-1.8999757989382624,-0.7352174688339951,0.2664155842415758,-1.9015987874298466,-0.7637458051975373,0.26782926781610883,0.6999239069821608,0.30836757403303616,-0.6320567623408418,1.23612738610202,0.31810209765554526,0.2484784730131605,-0.24916200560533713,-0.5205408633964287,-0.6142974062888944,-0.2563104247408509,-0.579588823687706,-0.6243464690530888,LR
0.5520354558051892,-1.3920210257141936,0.134272728806674,0.13025430590621653,-0.02517551451818277,-1.376328884915663,-1.8996097102935585,-0.7357013764246264,0.2663019649350416,-1.885193512145005,-0.7599984036675126,0.27329011213937876,0.6722627445348861,0.3092221061018761,-0.5972591015438354,0.8130633496768964,0.13131705096623267,0.010487560666788872,-0.24992828609954237,-0.5205712996853986,-0.61381898923149,-0.3181025298340495,-0.5242212067216433,-0.5898185630296822,LR
0.5908959817467098,-1.3655884059650072,0.13483828307598236,0.22165827551913314,-0.2447399010482255,-1.13970603888555,-1.8992660704808424,-0.7368962962513116,0.26630754819334773,-1.8900014647451566,-0.7862922632369757,0.2776061160196791,0.6601617383381915,0.31349371665238035,-0.6240703526740161,0.2207737541030959,-0.0762220397846912,-0.04239912206772053,-0.24971764335576116,-0.5208404917522872,-0.6138744961829011,-0.25367054972720465,-0.5284950448741933,-0.6151694330244194,LR
0.6016159564951431,-1.3503389617909765,0.11335231592577012,0.10740338833996577,-0.06908835673341135,-0.9326609275247504,-1.8996200712929379,-0.7379654350436088,0.26602056871640145,-1.9208400741749456,-0.7881004194323165,0.26616217055957386,0.6549747835490999,0.32118240568454853,-0.6217886882387745,0.19962066312458512,0.44262559805317253,-0.3861637289713688,-0.249392902459098,-0.5204908126101228,-0.6140463034134611,-0.2427304541951911,-0.5181758468557113,-0.6172020370974168,LR
0.5882158508421682,-1.363555479871847,0.1269223760633037,-1.0351460073105567,0.6554740784038068,-0.7551935508332643,-1.9006026394006534,-0.7381890457714094,0.2660068897335509,-1.8999335352571,-0.7822066517274452,0.2728394775248991,0.7016524198340616,0.31178500244593227,-0.6177954834053618,0.5380719199753704,0.940719463705596,-0.7828150186095265,-0.24959139273689182,-0.520909480673952,-0.614226040208508,-0.2787358660633203,-0.5704286782057971,-0.6140331783480751,LR
0.5654355614581642,-1.3747382390344476,0.12635705338870012,0.05267518085996921,1.0287335543446015,-0.9918165905984984,-1.9004912586573361,-0.7378466418444647,0.2659250949993627,-1.895407288534076,-0.7656055231210198,0.27067186093156426,0.6670764978624892,0.31776532720288453,-0.6075274093032949,1.1515146065276818,-0.07454092474708618,-0.8357017533053398,-0.24934901855414351,-0.5210488112412361,-0.6142181106440203,-0.2802272064979208,-0.5224960740018945,-0.6038701579830883,LR
0.5975960345731972,-1.3899876832084785,0.11731026943210952,-1.2179538866668072,1.2922108061002202,-1.6425300468204527,-1.9021697405566345,-0.737806461791813,0.26555883325446644,-1.9308548473297147,-0.7952963392546635,0.26398786551184955,0.6515170497286037,0.3297256267855567,-0.6303454556000625,1.341893395208301,-0.07454092474708618,-0.015056789521927549,-0.24755788009500113,-0.5210819529781144,-0.6145458659761651,-0.20937368993150032,-0.5173435341873367,-0.629640203136848,LR
0.5573951687445395,-1.346272693192101,0.10826371707022367,0.05267518085996921,0.940907947574067,-1.2875952934374806,-1.9022379504692084,-0.73714349092306,0.2652439374859879,-1.9059415376640998,-0.748403132328807,0.26243140643833796,0.6757204783553823,0.3152020809275963,-0.5938364880622771,0.9399824497616881,0.9199655243163105,-1.0736923192430188,-0.24824651983428675,-0.5205523615500396,-0.6143106222297063,-0.3148269793953382,-0.523195942731925,-0.5908572738010972,LR
0.5801754581285435,-1.3645719429184269,0.13936155925692523,-1.1951027146548296,1.1824285819150444,-1.7904194951075043,-1.9027266442732225,-0.7369356028245577,0.26521211291364194,-1.8777649195502886,-0.7776665978681917,0.28030128445297053,0.6688057188310848,0.30238724927608385,-0.6132319208774866,0.5380719199753704,0.899211584927025,-0.5448242794675011,-0.24881836087269382,-0.5202290605249824,-0.6141546741281216,-0.29761245700318045,-0.5345437662614032,-0.5997100422539184,LR
0.6150160621481182,-1.381854729598173,0.1116561163072546,-1.2179538866668072,1.1165591611151358,-1.8791530865856867,-1.9046218437428521,-0.7373085785306941,0.2647654522491337,-1.9438495000838263,-0.8071939895414542,0.261761446257009,0.6653479850105883,0.3100762882394842,-0.6223590459332371,0.7919101201449539,1.1275045103949084,-0.3597201018169428,-0.24853480333298764,-0.519740050815534,-0.6142101810795335,-0.26453169194209214,-0.5342701384293932,-0.6122220253024859,LR
0.5453354029787015,-1.381854729598173,0.10204400967606041,0.05267518085996921,1.0726465015445406,-1.553796261607149,-1.9050362837179877,-0.736498863121822,0.2642453717378971,-1.9256859321530593,-0.7464394170214455,0.2542126894218767,0.6722627445348861,0.32203693775338854,-0.626922608461112,1.088055056485286,-0.07454092474708618,-0.5183804791087289,-0.24750859509405196,-0.5202662604337233,-0.6145432227880026,-0.2350301439240457,-0.5405703016081798,-0.6246786455942009,LR
0.5748157451891932,-1.3920210257141936,0.13540360575058596,0.05267518085996921,0.6335177486185092,0.014230713355838028,-1.904805751481818,-0.7367958461196823,0.2644742853284575,-1.8939039957035324,-0.7794127052042433,0.27450685346703374,0.649788536876703,0.3092221061018761,-0.6086681246922193,-0.03400563952835668,1.5840899535164192,-1.126578880734486,-0.2483450898361846,-0.5189054201357838,-0.6144639271431286,-0.2896273749386409,-0.5075910886562857,-0.5972371724478597,LR
0.5346154282302682,-1.4072704698882244,0.12635705338870012,0.05267518085996921,0.21634532547777544,0.014230713355838028,-1.904620116909622,-0.7367906052432495,0.26453318870358955,-1.8958957510182695,-0.7479495639066793,0.26624048121304855,0.6757204783553823,0.3075133918954281,-0.6326273536926962,1.045748458867969,1.4180592540306487,-0.6505975756547815,-0.24767805448087626,-0.5186964242848577,-0.6147493914646741,-0.251414644264367,-0.5538335199617282,-0.6211301565121587,LR
0.5547155867097306,-1.3930374887607735,0.11448319286968206,-0.8751890006183699,0.5017790508333638,0.014230713355838028,-1.9055871435182712,-0.736789731763844,0.26448433519340897,-1.9165765806400672,-0.7592948919530372,0.26093179922713533,0.6878221926687716,0.301533067138476,-0.6252113017203329,-0.03400563952835668,1.521828950977076,-0.2539466324253163,-0.24831268326021802,-0.5185503300978026,-0.6147731801581362,-0.2796839806835076,-0.5641466672419104,-0.6124382036863841,LR
0.5587355086316766,-1.4235367935213903,0.12522617644478817,-0.21251040053347262,0.5017790508333638,-1.080550182076681,-1.906014534742629,-0.7370142159710501,0.2642710547261065,-1.9160708884386177,-0.772182702205667,0.2642325514682584,0.6878221926687716,0.3143478987899884,-0.6195067901461409,0.3476932698481828,1.0237349493865666,-0.3861637289713688,-0.24843420792009216,-0.5186484025844831,-0.6148789076846342,-0.26744689134366484,-0.5553650290558779,-0.6153487029037499,LR
0.5949159036686557,-1.3971041737722036,0.12013734599453685,-0.14395748319336785,0.8091691059742496,-0.9918165905984984,-1.9066137458733454,-0.7374710457001118,0.2641077444206459,-1.928520220641593,-0.7952491471645,0.26487770863122706,0.6947376603097639,0.3228911198909966,-0.6120909718311698,0.6226846995497087,1.521828950977076,-0.3861637289713688,-0.24834846552118123,-0.5183102215959295,-0.6149819920229703,-0.267985393455344,-0.554554230123681,-0.6149822541798249,LR
0.5962556946860601,-1.4042206643359294,0.10939459401413561,-0.14395748319336785,1.248298002714953,-0.6664599593550817,-1.9076144457299753,-0.7375016174793033,0.26385258951604557,-1.9486049020463492,-0.7964805111467306,0.25740252479437714,0.6549747835490999,0.30495049555137216,-0.6354796094797923,0.2630803517204127,1.3765519190044198,-0.14817288590673572,-0.24809461400944452,-0.5177468120689994,-0.6151141514310929,-0.24589533502699124,-0.53422980017406,-0.6192794586402468,LR
0.5868755109550312,-1.437769358236286,0.11222167057656307,-0.966593089970452,1.1165591611151358,-1.731263638298635,-1.9093611375418476,-0.7377339630011588,0.26335763366718756,-1.9548291374049045,-0.7973491951767784,0.2551961709027045,0.6325005758909168,0.3006788850008679,-0.6360499671742545,1.066901965506775,1.9576614062758995,-0.2010595513208105,-0.24728782529528137,-0.5162513757376156,-0.6151537992535295,-0.24746630359339433,-0.5119482925365243,-0.6141280859312495,LR
0.6150160621481182,-1.3716884334821526,0.1150487471389904,-0.5781263089199304,1.1604722521297468,0.014230713355838028,-1.9103851496470776,-0.7380117294520988,0.2634148620648276,-1.9340871422868497,-0.8051944432026722,0.26505495267254375,0.7033816408026571,0.3032417813449241,-0.6326273536926962,1.3207401656763587,1.7916293474092737,-0.4390504636671821,-0.24667210035191978,-0.5163886772189683,-0.6154049021289628,-0.265332696962848,-0.5856200651642715,-0.6220924139526832,LR
0.5841959289202223,-1.3950708312664886,0.12296442255696431,-0.6695302485980557,1.0946028313298382,0.014230713355838028,-1.9111518636010771,-0.7379610676465814,0.2635030775460678,-1.9184020691832897,-0.786111360224682,0.26663537870761705,0.7016524198340616,0.31349371665238035,-0.6195067901461409,1.088055056485286,1.9161527118688155,-0.3068333671211295,-0.24637233952423052,-0.5161377469254617,-0.6155132728436232,-0.272152374081435,-0.5709766061740729,-0.6166457732071415,LR
0.5681156923627058,-1.381854729598173,0.09865161043902948,-0.7380831659381605,-0.029907099200566903,0.014230713355838028,-1.912425403108004,-0.7384982574809464,0.26330794266826074,-1.9416294510154533,-0.7652367256756676,0.25258906711887213,0.6567040045176954,0.3254540162350527,-0.6371909162205714,1.1515146065276818,1.9161527118688155,-0.8092579529465675,-0.24475066045191243,-0.5151570220586563,-0.616063055981414,-0.20525732040613134,-0.5296177929809668,-0.6337106839263527,LR
0.5761555362065977,-1.3889712201618984,0.10204400967606041,-0.7837852106142014,-0.029907099200566903,0.014230713355838028,-1.9137041231146192,-0.7392083962375948,0.2631465865032076,-1.9435186895125207,-0.7744304439816054,0.2540920185572697,0.731042095133237,0.3006788850008679,-0.616654534359045,1.2572806156339627,1.5840899535164192,-0.4390504636671821,-0.24514831614450006,-0.5159652746212993,-0.616044553664277,-0.3080511652307101,-0.6063082117161467,-0.609786064000995,LR
0.6257360368965518,-1.3808382665515928,0.08451622762689244,-0.7380831659381605,1.2922108061002202,-1.8791530865856867,-1.9158505768191745,-0.7395525471233506,0.26243304609165596,-1.9899140106523157,-0.8119280553269356,0.24503780211334386,0.7223981146403439,0.3100762882394842,-0.6155135853127282,1.2149741565700776,1.750122012383045,-0.7299279375050207,-0.24516789511747974,-0.5162777538547227,-0.6161740698842371,-0.29113895981353033,-0.5925132006964559,-0.613600821580278,LR
0.5654355614581642,-1.3727048965287325,0.11731026943210952,-1.1265497973147252,-0.029907099200566903,0.014230713355838028,-1.9166889543522085,-0.7400250994817107,0.26251288668543676,-1.9081409110717658,-0.7636051028546423,0.26525672104662107,0.5737212252925659,0.31093047037709226,-0.6337680690816209,0.6649910200601621,1.314289557084221,-0.7563713914551005,-0.24414303715254262,-0.5138929015234431,-0.6162348632119733,-0.21930156344907836,-0.4429234869231592,-0.6101024226115782,LR
0.5962556946860601,-1.3828711926447532,0.09638985655120562,0.05267518085996921,1.0946028313298382,0.014230713355838028,-1.9175264684686273,-0.7399945277025193,0.262318868459291,-1.958824708836459,-0.7890879576153685,0.25166522435634925,0.7137541341474509,0.29897017079441984,-0.6160841766645828,0.7919101201449539,1.5425826184901903,-0.8092579529465675,-0.2448721851117866,-0.5143744712511434,-0.6162137177066737,-0.3084850710675647,-0.5874131006138311,-0.6060082149262798,LR
0.6136757222609811,-1.3950708312664886,0.11052523936334266,-1.629270941685565,1.1604722521297468,-2.1749315956895474,-1.919519234015737,-0.7403771116821158,0.2618532247165411,-1.950856826091645,-0.8091577048488157,0.25951774849499576,0.7154833551160463,0.3075133918954281,-0.626922608461112,0.8130633496768964,1.3350432245973356,-0.888588488001153,-0.24479049353487128,-0.5150427168845253,-0.6165309002861682,-0.27144651793003555,-0.5935095556031853,-0.6212883358174504,LR
0.6297559588184977,-1.3960877107256238,0.12239909988236072,-1.99488699974598,1.248298002714953,-2.500288420668085,-1.9216674145535215,-0.7409169219546973,0.26145011346682273,-1.940442323496547,-0.8249006365563407,0.26715596340758496,0.7673472380734048,0.3152020809275963,-0.6172251257108996,0.9611359564004941,1.3350432245973356,-1.0736923192430188,-0.24493564798972078,-0.5166720728873762,-0.6169379512631862,-0.2879497856533837,-0.6419584894753526,-0.624106563773396,LR
0.5841959289202223,-1.3788049240458777,0.115614069813594,-1.99488699974598,1.2263413853003116,-2.4115557978655078,-1.9234080624490901,-0.7405858732600236,0.2610090360606211,-1.9222072522391702,-0.7808284679091501,0.2639145711991668,0.6947376603097639,0.301533067138476,-0.6172251257108996,0.5169186904434279,1.2520280107925357,-1.0736923192430188,-0.24560673416702478,-0.5168702469466686,-0.6169617399566484,-0.29718327486905993,-0.5662402226937022,-0.6061927574491202,LR
0.6096558003390352,-1.4042206643359294,0.10939459401413561,-1.9034841077855527,1.2922108061002202,-1.96788687179899,-1.9255786918188609,-0.7408199657406899,0.26057410023855637,-1.9547929549986687,-0.8078363263242359,0.25768873490511973,0.6999239069821608,0.29042694969341165,-0.6326273536926962,0.6438379290816514,1.2105199960758795,-0.5448242794675011,-0.2459605059546579,-0.5174383910074386,-0.6170331060370348,-0.2879038982553958,-0.586483976132657,-0.6136693659459043,LR
0.6203763239572012,-1.4072704698882244,0.10939459401413561,-1.8806318880558772,1.2702544763149226,-1.7904194951075043,-1.9279228679282205,-0.7411877005703935,0.26015479753974924,-1.961064572079677,-0.8176793728337205,0.25757112958210765,0.6722627445348861,0.3100762882394842,-0.6257818930721876,0.9188293587831774,0.8784576455377396,-1.0472485188842466,-0.2455405707410935,-0.5173883402211326,-0.617265706595331,-0.2593659855950919,-0.5442834380115987,-0.6162028711523253,LR
0.6029557475125478,-1.3940543682199087,0.10487108623848787,-1.8577811650657705,1.3800367005000984,-1.7016857098942006,-1.930061550883242,-0.7410750217270875,0.2597287949309747,-1.9540598305294463,-0.7989213909213013,0.2558678031976306,0.6964661731616646,0.301533067138476,-0.6172251257108996,1.066901965506775,-0.07454092474708618,-0.015056789521927549,-0.24578699574583793,-0.5185165119989472,-0.6170648242949838,-0.2975773666400133,-0.5681462052581949,-0.6064168447982833,LR
0.5975960345731972,-1.4052371273825093,0.11674494675750592,-1.8577811650657705,1.5337323033292294,-1.908731014990121,-1.931845369609553,-0.7408287005347446,0.25938821617428753,-1.938534132310499,-0.7990122793912461,0.26189633008719343,0.7223981146403439,0.31093047037709226,-0.6394725806558129,1.0034422769109475,-0.07454092474708618,-0.7034846567592872,-0.24500788764864576,-0.5204299400321831,-0.6175934619274749,-0.24184307289586954,-0.6082888200530057,-0.6353662939884053,LR
0.6056358784170892,-1.4143869604519497,0.10204400967606041,-1.4921651070053557,1.9069917792700242,0.014230713355838028,-1.9337975545757633,-0.74050551315472,0.25926091788490274,-1.9685784517748086,-0.8058236710715198,0.2518753532984131,0.6981946860135653,0.29897017079441984,-0.6240703526740161,0.4957655994649171,0.940719463705596,-0.2010595513208105,-0.24550208793213318,-0.5209060988640666,-0.6175247390352511,-0.2889653817412003,-0.5756921482225212,-0.6111727692440511,LR
0.5721356142846517,-1.4204865715565402,0.08677774992001143,-1.4921651070053557,2.082642705181749,0.014230713355838028,-1.935995813277211,-0.7393350507513883,0.25891754749906193,-1.9784097284408069,-0.7766895468162869,0.24096509076145498,0.7258558484608401,0.29042694969341165,-0.6417544787484466,0.8976761292512347,0.5879030378400851,0.08981799179876666,-0.24547238190416415,-0.5225692729657728,-0.6176674711960238,-0.2754515430338168,-0.6206908166551908,-0.6249238235174028,LR
0.5654355614581642,-1.3950708312664886,0.07038084481475526,-1.1494009693267024,1.5776446752704807,-1.7904194951075043,-1.937992032490779,-0.7384397343607798,0.25807084637690403,-1.988460684001813,-0.7619586232644915,0.23329454831931712,0.6791782121758785,0.2981156387255799,-0.610950022784853,0.3053866722308661,0.048301456534793466,-0.4126071829214486,-0.24656340329503254,-0.5230589590371985,-0.6173476454283667,-0.3124644532136469,-0.5460220168164586,-0.5963619136252463,LR
0.6284161678010932,-1.4052371273825093,0.10882903974482726,-1.332208699008996,1.248298002714953,-1.731263638298635,-1.9396964168885227,-0.7389987611802816,0.25771519282278926,-1.964709518765082,-0.8239192158664578,0.25761711270603405,0.7137541341474509,0.27675758597305905,-0.5995409996364691,0.009242096129456579,-0.13848375328022175,0.6451294162426258,-0.2492524739632437,-0.524452264710039,-0.6164093136306951,-0.382790264703209,-0.5846472409064863,-0.5770666747014227,LR
0.6418162734540681,-1.3960877107256238,0.11787582370141786,-0.6695302485980557,1.358080083085457,-1.672107781489766,-1.9405667408363072,-0.7396599850902236,0.25751922045623643,-1.9528382435760305,-0.834457908742057,0.2645906624636859,0.7344998289537332,0.2964069245191318,-0.6177954834053618,0.5592250109538812,0.11056311157694723,0.2484784730131605,-0.25015175644631105,-0.5262040422307465,-0.6162137177066737,-0.31432424246150226,-0.6124376096140228,-0.6085496290979656,LR
0.6096558003390352,-1.4123536179462346,0.10656751745170814,-0.32676536254961835,1.2702544763149226,-1.849574964446131,-1.9413040986254018,-0.7399630824439223,0.2571236466052317,-1.9626833040158327,-0.8094146395619283,0.25500917286540353,0.7102964003269546,0.3032417813449241,-0.6514521951560515,0.7919101201449539,0.15207099035551813,0.30136503450462754,-0.24915187855034776,-0.5277461475385504,-0.6166260550600168,-0.23005068642770213,-0.6057186008840267,-0.6393550488035087,LR
0.5855357199376268,-1.4194701085099601,0.09356277998877816,-0.37246740722565946,1.1604722521297468,-1.672107781489766,-1.942318613147869,-0.7398678731887259,0.25655890002754395,-1.9741841402838904,-0.7887943179432398,0.24559600936925163,0.6791782121758785,0.3006788850008679,-0.6155135853127282,0.6226846995497087,0.08980930812574726,0.03693089337382626,-0.2496960389717834,-0.5281546701727232,-0.6163405907384713,-0.2986017353186215,-0.5482338978172278,-0.6020827318332928,LR
0.6243962458791472,-1.3757551184935828,0.08225447373906856,-0.16680835585743156,0.37004049686289037,-1.2875952934374806,-1.9434522791631874,-0.7409116810782643,0.25607594818404483,-1.990503266982454,-0.8091673180523674,0.24414740162276743,0.6895507055206723,0.2895724176245715,-0.6246409440258707,0.580378101932392,-0.2007454626976097,-0.9679188498513923,-0.2503164898741402,-0.5291989730653766,-0.6163405907384713,-0.30299680330529805,-0.5701012660333429,-0.6047348715186827,LR
0.6324360897230392,-1.4113371548996545,0.08790862686392337,-0.28106331787357736,-0.13495766248158245,-1.2875952934374806,-1.9448872775770925,-0.742692705586021,0.25558015484644103,-2.0012020599122677,-0.8256941628131649,0.24392668262792033,0.7154833551160463,0.29042694969341165,-0.6115203804793155,0.7496039381879324,0.33885617298291626,-0.9943617841884335,-0.25141831345699694,-0.5302168978409227,-0.6161846426368864,-0.33374945773318576,-0.5894246349464456,-0.596752089244965,LR
0.6337764296101763,-1.3889712201618984,0.10091313273214847,0.17595633561486188,0.743299685174341,-0.6960376940243953,-1.9453224395509852,-0.7436054915647389,0.2554333151529838,-1.9721251890718563,-0.8232934837079928,0.25461427537083464,0.7102964003269546,0.31691079513404435,-0.6183658410998241,0.47461250848640635,0.2765944907531454,-0.14817288590673572,-0.25142033886799503,-0.531040030367062,-0.6162877269752226,-0.27004357821802877,-0.5784990184894546,-0.6189156462380759,LR
0.6324360897230392,-1.3971041737722036,0.10600196318239981,0.1988072531811126,0.6554740784038068,-0.28194747130279624,-1.945633269532336,-0.7446108663604366,0.2554221486363711,-1.9672913918958206,-0.8249181151082531,0.2568554649624519,0.7068386665064584,0.29128113183101956,-0.6297748642482082,0.6226846995497087,0.4011178552126871,-0.12172955319969832,-0.2518179945605826,-0.5320464569889973,-0.6162533655291104,-0.2935271289529206,-0.5918113150536585,-0.612556838165353,LR
0.6002756166080061,-1.3737217759878677,0.10147868700145694,-0.48672221956784845,0.699387025603746,-0.5185705110680303,-1.94612023650312,-0.7449218250287845,0.25535124125588055,-1.9489021146690069,-0.7909948676290146,0.255982621664647,0.7275843613127408,0.3152020809275963,-0.626922608461112,0.8130633496768964,0.006793604943839655,-0.5448242794675011,-0.25136632790805113,-0.5335452751302667,-0.6166181254955291,-0.2598950403013034,-0.6041050706706997,-0.6277104156122906,LR
0.6310962987056348,-1.3940543682199087,0.12070290026384532,0.38161513253736307,0.5017790508333638,0.01383140027947626,-1.945767962524256,-0.7460451195442209,0.25559495048095277,-1.9427459366936102,-0.8252825429156272,0.26636115207765554,0.7431438094466263,0.30238724927608385,-0.6229296372850914,-0.18113677568322178,-0.32526893590761985,-0.2010595513208105,-0.2523358246390454,-0.5356426736212758,-0.61670535070489,-0.2948585383092409,-0.6232348159582032,-0.6180034789108947,LR
0.6150160621481182,-1.4001539793244993,0.07264236710787438,0.15310522347246724,0.8750385267741584,0.1025650554965136,-1.9469914238675194,-0.7464242096061956,0.25522813041022535,-2.01131073502608,-0.8058236710715198,0.23519797096427444,0.7033816408026571,0.2981156387255799,-0.6132319208774866,0.009242096129456579,0.08980930812574726,-0.09528622049266094,-0.2535220403468155,-0.5364096681033151,-0.6164383887004823,-0.31346587819326127,-0.5743266982794931,-0.6015712854128501,LR
0.6029557475125478,-1.41540342349853,0.0799927198512447,-0.0754045359184718,0.6554740784038068,0.1025650554965136,-1.9481786217129593,-0.7468845332528792,0.2549230053437832,-2.001066806631812,-0.8004796038242944,0.23791209001833566,0.7051101536545578,0.30836757403303616,-0.6126613295256322,0.05154837507388038,0.6501647200698562,-0.6770408564005149,-0.2543078998140005,-0.5367045619253339,-0.6164304591359946,-0.2961616054491567,-0.5719931302084689,-0.607708642458165,LR
0.6056358784170892,-1.4184536454633798,0.10543664050779622,0.17595633561486188,0.2822146024630121,-0.5777261741417782,-1.948410017365743,-0.7478069275050572,0.2547929154252452,-1.9652281332544723,-0.8073478007982835,0.25353576210055906,0.7206696017884432,0.30580467768898,-0.6223590459332371,0.47461250848640635,0.6709185235210561,0.010487560666788872,-0.25454892372275023,-0.5374776436651674,-0.6164489614531324,-0.28484428851309723,-0.5967782988936837,-0.6168171341212072,LR
0.5788356671111391,-1.4072704698882244,0.08790862686392337,0.26736017052121736,-0.6179993769890202,-0.6960376940243953,-1.9487372522627766,-0.7489503120468195,0.2544344702419776,-1.9741281437028106,-0.7791688794050651,0.24326173878738336,0.731042095133237,0.2929898460374676,-0.6303454556000625,1.1938210655915666,0.048301456534793466,-0.6505975756547815,-0.25446318132383927,-0.5391184978216291,-0.6166234118718542,-0.294533277635269,-0.6180594177989566,-0.6171598559493392,LR
0.6136757222609811,-1.4245532565679704,0.09356277998877816,0.4273171772134041,-1.079084459700349,-0.7256156224288297,-1.9492337168163245,-0.7511768110513666,0.2541243202430597,-1.9896038757417158,-0.8138646788788328,0.2456210910732116,0.6947376603097639,0.2827379107300113,-0.6149432276182659,0.36884636082669364,-0.3875306181373907,-1.6025607054272293,-0.2558195315554323,-0.5400985463264573,-0.616488609275569,-0.3360208839335782,-0.5717618575445587,-0.5924627937498073,LR
0.6699568246471553,-1.3910045626676135,0.09582453387660203,0.13025430590621653,-0.8814766287446391,0.28003239344097547,-1.950134260345629,-0.7539326385756293,0.2541558656524907,-1.997476133555762,-0.8539386287760551,0.2519335985887203,0.6895507055206723,0.30580467768898,-0.59782969289569,0.09385465401830416,-0.470546239756447,-0.9679188498513923,-0.25715495254004755,-0.5406024359994019,-0.6162005017658617,-0.3274392656951979,-0.545283154439606,-0.5905066430077011,LR
0.5640952215710271,-1.3991375162779187,0.09582453387660203,0.13025430590621653,-0.9034331023446085,0.4870775048017749,-1.9500936797647297,-0.7549415072889492,0.2541717779386637,-1.9516597309157524,-0.7658283746579033,0.24880089376412803,0.6895507055206723,0.3075133918954281,-0.6229296372850914,-0.5618942144910287,-0.3460227393588198,-0.5448242794675011,-0.25785641988232005,-0.5413457578122428,-0.616298299727872,-0.27363494192524385,-0.5622326170263512,-0.6143600822456774,LR
0.6552163791070432,-1.3747382390344476,0.12013734599453685,-0.32676536254961835,-0.13495766248158245,0.8420120644496261,-1.9503242120008994,-0.7567487361788698,0.25466226718087676,-1.9458309175682105,-0.8410674231477421,0.2687570121770255,0.7293135822813364,0.3032417813449241,-0.6052455112106612,-0.07537078043228404,0.048301456534793466,-0.888588488001153,-0.2592485523748758,-0.5424610787124923,-0.6162031449540243,-0.3262407948301071,-0.5958081638529208,-0.6008436606085085,LR
0.6511964571850972,-1.3655884059650072,0.09130125769565917,-0.28106331787357736,0.2602581288630426,0.546233361610644,-1.9512903751929336,-0.7579663664700973,0.254736245353436,-1.9846787610642262,-0.8310041468841609,0.2515679630821048,0.7241273356089394,0.30580467768898,-0.6160841766645828,0.1784675721460743,0.5463951590615143,-1.2059094157890715,-0.2598703535512311,-0.5432023714394018,-0.6163960976898831,-0.2982501568722741,-0.5963870178169519,-0.6116341255511519,LR
0.6176961930526598,-1.3950708312664886,0.11787582370141786,-0.9437419179584745,0.391996826648188,0.1912986857217203,-1.9519327571543936,-0.7586957217736661,0.25498637532556057,-1.9414631842439374,-0.8137099936944078,0.2641938141699203,0.7102964003269546,0.30409596348253193,-0.6138022785719491,0.11500816065711021,0.46337953744245797,-1.2059094157890715,-0.2606258318534475,-0.5436879993389646,-0.616470106958432,-0.30290705295335174,-0.5801307009176817,-0.6067252944436017,LR
0.6042960873996848,-1.4194701085099601,0.10826371707022367,-0.7837852106142014,0.0406937955444285,0.04340929555520508,-1.9527668176043531,-0.7595919116436798,0.2550187582237374,-1.9607759743156474,-0.8068977280865385,0.2551538106915723,0.6860936798168707,0.30580467768898,-0.6337680690816209,0.1573143426141318,0.02754753073931656,-0.6770408564005149,-0.26028893849079693,-0.544144543673512,-0.6168348669248508,-0.25460989175660026,-0.5665743579087121,-0.6224430447460794,LR
0.5547155867097306,-1.4042206643359294,0.13314208345746684,-0.6009771815839942,-0.04713189751490898,-0.16363587392613074,-1.9524274948747113,-0.7597185661574731,0.25530908765566734,-1.8936696715488566,-0.7651834160923346,0.27124344509625054,0.6999239069821608,0.301533067138476,-0.6217886882387745,0.07270150761842069,-0.0762220397846912,-0.7034846567592872,-0.2607858393222815,-0.5448783964186731,-0.6168877306880994,-0.28921776243013275,-0.5750857297840123,-0.6109565908601529,LR
0.6324360897230392,-1.3930374887607735,0.09808605616972114,-0.37246740722565946,-0.06908835673341135,0.01383140027947626,-1.9532874578231165,-0.7610052013217329,0.25527279647667606,-1.9776369756218966,-0.8227219350604564,0.25235302041604946,0.7016524198340616,0.31605661299643645,-0.6172251257108996,-0.2869027847895027,0.1728249297448036,-0.22750283206654398,-0.26118484528886765,-0.5452815081570289,-0.6169405944513487,-0.27197287337754195,-0.5684346237838271,-0.6162134164393444,LR
0.5868755109550312,-1.3950708312664886,0.09412833425808663,-0.5781263089199304,0.08460671398143323,-0.10448011398482224,-1.9540161814460635,-0.7613510991662995,0.25513879827732394,-1.9632243171376562,-0.7838496356072135,0.2486805015851207,0.7673472380734048,0.2964069245191318,-0.6400431720076672,-0.3503621962784668,0.2558404154257744,-0.4126071829214486,-0.26171212728532073,-0.5475162081293907,-0.6173555749928544,-0.2765238235544415,-0.6628651349102825,-0.6322659796046892,LR
0.5855357199376268,-1.4032037848767942,0.0799927198512447,-0.34961638488763885,-0.09104481595191372,-0.19321368608949263,-1.9550211983857666,-0.7618227780452543,0.2547920779364994,-1.9874191475937169,-0.7826069105662399,0.238881915904785,0.731042095133237,0.3032417813449241,-0.6280635575074288,0.11500816065711021,0.42187165866388704,-0.5977108409589682,-0.26197273016705064,-0.5485794491574031,-0.6175881755511499,-0.28037971461476235,-0.6129398208929209,-0.6215888764975047,LR
0.6203763239572012,-1.4062540068416445,0.09243190304486622,-0.1211066105293042,0.06265025476293086,-0.16363587392613074,-1.9557939562560709,-0.7627914667059222,0.2546229052098168,-1.9864663442294868,-0.8148618302654369,0.2470780593876823,0.7137541341474509,0.29555274238152374,-0.6246409440258707,-0.09652392683216751,0.11056311157694723,-0.7563713914551005,-0.26272280737327286,-0.5494769815010242,-0.6176516120670493,-0.2975193325778521,-0.5944117879141374,-0.6115339453244669,LR
0.5801754581285435,-1.4123536179462346,0.11617939248819759,0.01599932892267505,0.19438885187780588,-0.13405800364223255,-1.9553941943633877,-0.76304652269232,0.25472982460638366,-1.9345394223648076,-0.7859820189405299,0.26036105111924757,0.6878221926687716,0.3032417813449241,-0.6274931998129666,0.1784675721460743,-0.055468104473548316,-0.17461623593420772,-0.26275116312724334,-0.5498882095831052,-0.6176621848196988,-0.2720383304011417,-0.5650852039826623,-0.6155306091048353,LR
0.6056358784170892,-1.3879543407027635,0.09638985655120562,-0.23536142287149311,0.4139533002481576,-0.015746483759615536,-1.955835400253584,-0.7633478730872078,0.25467762114121933,-1.9654934709002072,-0.798361203332508,0.25129457250894177,0.7223981146403439,0.2964069245191318,-0.6292045065537457,-0.540741123512518,0.1728249297448036,-0.04239912206772053,-0.26362816608933387,-0.5509595669548429,-0.6176780439486733,-0.2887298714191751,-0.6066215054992343,-0.6172125823844367,LR
0.6257360368965518,-1.41540342349853,0.08281979641367203,-0.6466792262600352,0.940907947574067,0.1025650554965136,-1.957460350322761,-0.7636107903882546,0.25442888698367144,-2.0075710248957703,-0.8202452242544652,0.24015105012515617,0.708567887475054,0.3006788850008679,-0.6149432276182659,0.19962066312458512,-0.3045149965183344,-0.7034846567592872,-0.2643120798696243,-0.5518286920954255,-0.6176013914919626,-0.3064876196257461,-0.5802698678985811,-0.605386042992133,LR
0.6230559059920101,-1.3899876832084785,0.08621242724540784,-1.1494009693267024,1.0067772245593039,-0.31152520597210964,-1.9591293346392953,-0.7636474765232845,0.25419439013480444,-1.9900768314803805,-0.8121745029089008,0.24503334314375116,0.7483300561190231,0.31349371665238035,-0.6052455112106612,-0.5830477211298347,0.5879030378400851,-0.49193719836299543,-0.2656184699632696,-0.5527248717150923,-0.6175643868576877,-0.3115399571071296,-0.6133405142292304,-0.60978342767924,LR
0.5828555890330852,-1.385921414609603,0.0850815503014959,-0.5095733915798257,0.1724325220925083,-0.4002589911854132,-1.9598053898487344,-0.7637313305462097,0.2539300228539989,-1.9708855109153214,-0.7766930425266694,0.24392612525672103,0.7448723222985271,0.31947369147810045,-0.6183658410998241,-0.6253540416402881,-0.11772981389093629,-0.22750283206654398,-0.2661808590836863,-0.5541425264191089,-0.6177784850988469,-0.2728804991171519,-0.6160673802897533,-0.6250345490311069,LR
0.5788356671111391,-1.4042206643359294,0.08621242724540784,-0.39531842956367996,0.37004049686289037,-0.7256156224288297,-1.960490942640938,-0.7636535908791227,0.2535682277157472,-1.9753290549955194,-0.7781306534214666,0.24253381200134688,0.6930084393411684,0.3032417813449241,-0.6571567067302432,-0.054217647887743727,-0.8441166050112432,-0.3068333671211295,-0.2651755800917289,-0.5555554465892856,-0.6183494137419372,-0.21551315385638636,-0.5908526091852401,-0.6420098248106528,LR
0.6029557475125478,-1.3991375162779187,0.11617939248819759,-0.006851588643575686,-0.11300127517041608,-0.37068106278097873,-1.9601084490805527,-0.7644851432731317,0.2536854761401805,-1.9391311420134023,-0.8019469282573428,0.26235421052726143,0.6981946860135653,0.301533067138476,-0.6189364324516786,-0.011911036415083733,-0.3667766787481052,-0.49193719836299543,-0.2657413448971418,-0.556195961381606,-0.6182701180970632,-0.29453665170865057,-0.5712287202699052,-0.6081779077305299,LR
0.6029557475125478,-1.4703015890900628,0.1099599166887392,0.17595633561486188,-0.06908835673341135,0.1025650554965136,-1.9603925131468427,-0.7655909682004587,0.25366425975861634,-1.9797622612453647,-0.8184624119593974,0.2505298592237643,0.7396860756261301,0.30409596348253193,-0.6052455112106612,-0.26574969381099195,-0.2007454626976097,0.2484784730131605,-0.2671274011567043,-0.5574235583700553,-0.6179159308832946,-0.3270127828197829,-0.6070921184781214,-0.6026943584804205,LR
0.5788356671111391,-1.3544056468024066,0.06020318391425273,0.3359132375352789,0.19438885187780588,0.014230713355838028,-1.9607888213730666,-0.7652948586820039,0.2532441195710638,-1.9923873365643456,-0.7612157848082132,0.23154328801171692,0.6688057188310848,0.3152020809275963,-0.5995409996364691,0.136161251635621,-0.11772981389093629,-0.12172955319969832,-0.267687089729124,-0.5568067162469336,-0.617500950341789,-0.3015203087935758,-0.5196219733094055,-0.5951913867660876,LR
0.5828555890330852,-1.4021873218302143,0.12296442255696431,-0.16680835585743156,0.2602581288630426,-0.015746483759615536,-1.960172341910052,-0.7654564523720161,0.2535123951326838,-1.9209873882574806,-0.7867650580662068,0.26579124002656673,0.7016524198340616,0.31263918458354034,-0.6177954834053618,0.09385465401830416,0.048301456534793466,-0.4390504636671821,-0.26777890836102863,-0.5570961991731356,-0.6175564572932009,-0.27715679972080154,-0.5701093336844095,-0.6145709879860665,LR
0.6243962458791472,-1.385921414609603,0.100347810057545,-0.23536142287149311,0.3041710760629817,-0.015746483759615536,-1.9605539720538223,-0.7661290315142292,0.25354701133418306,-1.9673051756696256,-0.8144528321506861,0.2544066545991668,0.7327713161018325,0.31947369147810045,-0.6086681246922193,0.05154837507388038,0.5048874162210288,-0.5712675602132347,-0.26815428453263945,-0.557566270747225,-0.6176436825025617,-0.289912146732035,-0.5959775845253201,-0.6147318036131131,LR
0.6243962458791472,-1.4082873493473596,0.12126822293844879,-0.48672221956784845,0.7872127761889521,-0.6073041025462128,-1.9606990260451203,-0.7665317055201515,0.2536664930619392,-1.9451934180297572,-0.823151907437502,0.2649365112927331,0.7431438094466263,0.29897017079441984,-0.6115203804793155,0.07270150761842069,0.44262559805317253,-0.015056789521927549,-0.2691960209225587,-0.5584955921037701,-0.6174190115087531,-0.3243290448521773,-0.6169810417730497,-0.6055837671237474,LR
0.6230559059920101,-1.4184536454633798,0.09073570342635082,-0.39531842956367996,0.5237355244333334,-0.7847712855025777,-1.9617731163140124,-0.7670950997366808,0.25334098910267877,-1.9956127396345775,-0.8198912835782384,0.24472010052985188,0.7448723222985271,0.30836757403303616,-0.6189364324516786,0.2207737541030959,0.7954420239186832,-0.5712675602132347,-0.2694816038732625,-0.559259204775924,-0.6175723164221754,-0.2923023403154543,-0.6204091211721141,-0.6184490172874659,LR
0.5801754581285435,-1.4042206643359294,0.10374020929457593,-0.6238280542480579,0.5237355244333334,-0.6664599593550817,-1.962060634046763,-0.7669230242938029,0.25323323221736616,-1.9496464384544452,-0.7819829262629662,0.25352879496056996,0.7241273356089394,0.28871823548696357,-0.6217886882387745,-0.054217647887743727,-0.2837610571290489,-0.04239912206772053,-0.27046055252224754,-0.5604725981628541,-0.6173661477455038,-0.3179743150455545,-0.6063962835736241,-0.6060161238915447,LR
0.5895556418595727,-1.4093038123939394,0.08564687297609949,0.0388504350781114,-0.003219050985240245,-0.5481484394724647,-1.962497522853885,-0.7673213309026978,0.25290884490976734,-1.9835235085222445,-0.7884281422806745,0.2418465733128456,0.7431438094466263,0.3075133918954281,-0.6200773814979955,0.07270150761842069,-0.6988391652243304,-0.12172955319969832,-0.2707933950629024,-0.5622297865793783,-0.6174348706377276,-0.2911942946169859,-0.6195438655952176,-0.6187100131411968,LR
0.5882158508421682,-1.3767715815401627,0.09695541082051395,0.0388504350781114,0.12851957489256918,-0.4002589911854132,-1.9622825321167827,-0.767440124101842,0.25283654171470016,-1.9514512513369606,-0.7807742843982216,0.2525324939421629,0.6878221926687716,0.30495049555137216,-0.6183658410998241,-0.11767705937670783,-0.678085225835045,-0.06884245477475792,-0.2711721469195094,-0.5627005345154449,-0.617284208912468,-0.28704755843118385,-0.5581194595908783,-0.6084468125495257,LR
0.5815157980156807,-1.41540342349853,0.09978248738294142,-0.4410203245657642,-0.003219050985240245,-0.4002589911854132,-1.962674523259932,-0.7677650584406774,0.25271175589155326,-1.961171396326661,-0.7853265732438138,0.24984122710726522,0.7102964003269546,0.3066588598265881,-0.6297748642482082,0.136161251635621,-0.11772981389093629,-0.4390504636671821,-0.27094530088774466,-0.5633951582659338,-0.6175035935299515,-0.26621872863281704,-0.5900384487317654,-0.6226091330166358,LR
0.5788356671111391,-1.385921414609603,0.10600196318239981,-0.3039144898855547,0.08460671398143323,-0.34110313437654416,-1.9624664398557496,-0.7678305693960877,0.25274469711556047,-1.937447798637539,-0.7765540880389655,0.2569725129142647,0.717211867967947,0.3092221061018761,-0.6029636131180275,0.6226846995497087,-0.2837610571290489,-0.5183804791087289,-0.27139224158128095,-0.5639639786886809,-0.617302711229605,-0.31709840559573016,-0.5784721263192326,-0.6009912946267804,LR
0.6150160621481182,-1.3879543407027635,0.09525897960729368,-0.32676536254961835,0.19438885187780588,-0.9622388559291849,-1.962966358075756,-0.7683887227361843,0.252521645946222,-1.9716108820117788,-0.8061811074581289,0.2507829057481597,0.7051101536545578,0.29897017079441984,-0.6155135853127282,0.1573143426141318,-0.2007454626976097,-0.7828150186095265,-0.27198433672966676,-0.5644340502627703,-0.617223415584731,-0.30768474086148484,-0.5774744268039921,-0.6043868770470409,LR
0.5962556946860601,-1.4042206643359294,0.11844114637602145,-0.34961638488763885,0.15047604849253873,-1.1692839672899846,-1.9627168306740603,-0.7688193480830817,0.25252136678330656,-1.9348934930544082,-0.7978910302860636,0.26303838367416743,0.7258558484608401,0.2972614565879718,-0.6223590459332371,0.030395228673996886,-0.32526893590761985,-0.3597201018169428,-0.27252579660310533,-0.5655581638687223,-0.6172154860202441,-0.3016411006206317,-0.6055928799882383,-0.6120954818582529,LR
0.5868755109550312,-1.4032037848767942,0.10204400967606041,-0.0754045359184718,0.45786624744809673,-1.0213943252678117,-1.962663298843939,-0.7687416084159948,0.25232930269756826,-1.9548920258728875,-0.787136477294346,0.2527272951762511,0.7033816408026571,0.3100762882394842,-0.6354796094797923,0.32653976320937683,-0.2837610571290489,0.40713885030494656,-0.2717554652869044,-0.5662169404344246,-0.6173714341218289,-0.24719502809352548,-0.5850882724981291,-0.6288783061496935,LR
0.6109961402261722,-1.3950708312664886,0.09243190304486622,-0.21251040053347262,0.238301799077745,-1.1101279167459943,-1.9631735780633244,-0.7692010585832728,0.2520300400523477,-1.977167465826684,-0.804102907635741,0.248126753298806,0.6999239069821608,0.2972614565879718,-0.6571567067302432,0.07270150761842069,-0.3460227393588198,0.010487560666788872,-0.2707927199259029,-0.5672152507126346,-0.6178207761094461,-0.22777791059795713,-0.6003576467502476,-0.6391915968547072,LR
0.5975960345731972,-1.3930374887607735,0.1099599166887392,-0.21251040053347262,0.8969950003741279,-1.080550182076681,-1.962997441073891,-0.7688787446826537,0.251961645138095,-1.9433903281189666,-0.7949065675470163,0.25904983537334375,0.7189403808198478,0.29128113183101956,-0.6366203248687168,-0.03400563952835668,-0.15923759751284733,-0.09528622049266094,-0.2710222665056648,-0.5682379100220205,-0.6179027149424818,-0.28257353712738126,-0.6095312383172675,-0.6201098999930277,LR
0.6176961930526598,-1.4133704974053696,0.11448319286968206,-0.7380831659381605,0.9848206071446624,-0.6960376940243953,-1.9634533250465398,-0.7690001583200143,0.25200519455288445,-1.9547731408238247,-0.8176811206889117,0.2599948582414332,0.7068386665064584,0.3066588598265881,-0.6337680690816209,0.580378101932392,0.3596099764341162,-0.015955784510961447,-0.2703072964234063,-0.568449611320855,-0.6180771653612044,-0.2575770518882475,-0.5889432650994696,-0.6256804478610482,LR
0.6230559059920101,-1.3991375162779187,0.08960482648243889,-0.39531842956367996,0.7872127761889521,-0.6368820309506472,-1.9643383270767778,-0.769180968556947,0.25177293100734033,-1.9889121025939076,-0.8149570883733597,0.2461503150267656,0.7275843613127408,0.3237453020286047,-0.6292045065537457,-0.7522728646182164,0.2558404154257744,0.5657994008010789,-0.2701999496405176,-0.5690082863139455,-0.618307122731338,-0.239516986706698,-0.6025957476169833,-0.6351659335350351,LR
0.5895556418595727,-1.3971041737722036,0.09921693311363308,-0.6238280542480579,0.940907947574067,-0.5185705110680303,-1.9647752158838985,-0.7686708565841515,0.2516816447340315,-1.9577125305876162,-0.7874301169664747,0.2516992239994946,0.7154833551160463,0.28871823548696357,-0.6229296372850914,-0.22344309619367508,-0.49130017914573254,-0.22750283206654398,-0.2712011778104794,-0.5700025384202929,-0.6181247427481287,-0.3137675203535627,-0.5976549836429248,-0.6059581248129373,LR
0.6243962458791472,-1.3920210257141936,0.10543664050779622,-0.09825543851732682,0.2602581288630426,-0.6664599593550817,-1.964846879462933,-0.769364399232096,0.25166517412202766,-1.962215517192345,-0.8167399006684275,0.2569078578551681,0.6912799264892677,0.31178500244593227,-0.6320567623408418,1.088055056485286,0.44262559805317253,-0.7563713914551005,-0.26998390580074166,-0.5697401099731755,-0.6184419253276232,-0.24813504493759758,-0.5688702769414254,-0.6253509076416902,LR
0.6766568774736428,-1.3930374887607735,0.08960482648243889,-0.0754045359184718,0.5237355244333334,-1.080550182076681,-1.965870891568163,-0.7706912144490072,0.25139689856040764,-2.011085887215896,-0.8592521085574336,0.2479244275535294,0.6912799264892677,0.301533067138476,-0.6155135853127282,0.8342167177622707,0.2765944907531454,0.40713885030494656,-0.26995284949877413,-0.5694256016538206,-0.618079808549367,-0.2998285484001163,-0.5612436574664329,-0.6041996982024455,LR
0.5922357727641142,-1.4103202754405195,0.08790862686392337,0.01599932892267505,0.8311257233888912,-0.7551935508332643,-1.9662171216307236,-0.7703261000575201,0.25109289014562675,-1.981841888118106,-0.7913016162150778,0.24320823115226894,0.7120256212955501,0.2921353139686276,-0.653734093248685,0.7284507086559897,0.712426402299627,0.8302335938931841,-0.2689603981098031,-0.569876058730574,-0.6182516157799262,-0.2461193734995192,-0.6129001549418434,-0.6346175786100248,LR
