xa_S1,ya_S1,za_S1,xgb_S1,ybg_S1,zbg_S1,tilt_x_S1,tilt_y_S1,tilt_z_S1,tilt_accx_S1,tilt_accy_S1,tilt_accz_S1,xa_S2,ya_S2,za_S2,xgb_S2,ybg_S2,zbg_S2,tilt_x_S2,tilt_y_S2,tilt_z_S2,tilt_accx_S2,tilt_accy_S2,tilt_accz_S2,State_S2
-0.154541,0.2275391,1.092041,0.0,0.0,0.0,0.2331378,0.1577513,-0.2827462,11.6569,7.887572,-14.13732,-0.05053711,0.1264648,-0.4484863,1.893809,0.7621221,-0.7028093,0.6227981,0.2591692,-6.494089,15.6533,6.189785,-163.1084,Unknown
-0.1750488,0.2312012,1.088135,0.7541222,-0.4699924,0.5799466,0.4772511,0.3260787,-0.5664527,11.84758,8.942605,-14.92276,-0.05664063,0.1191406,-0.4489746,-2.640542,-0.3371145,0.5338321,0.8691103,0.388402,-9.629402,14.74983,6.952064,-163.626,Unknown
-0.168457,0.2272949,1.088623,0.0,-0.7753359,0.0,0.7008765,0.481189,-0.8464825,11.65854,8.613496,-14.56794,-0.05297852,0.1203613,-0.4594727,2.825107,0.01403052,-0.5348701,1.184989,0.5081285,-12.72524,14.58662,6.364431,-164.0284,Unknown
-0.1564941,0.2216797,1.086914,0.6930535,-0.7142672,-0.1223435,0.9253067,0.6216669,-1.111703,11.41301,8.030065,-14.0176,-0.06176758,0.1289063,-0.4501953,-1.480237,0.3651755,0.6559694,1.456277,0.6536139,-15.70878,15.83739,7.514002,-162.3849,Unknown
-0.1665039,0.2368164,1.09668,0.0,0.0,-0.3513512,1.147826,0.7780605,-1.390377,12.05132,8.44136,-14.78714,-0.05639648,0.1162109,-0.4604492,-0.6710763,0.2125039,-0.09212208,1.699224,0.7789087,-18.68245,14.06395,6.772582,-164.3293,Unknown
-0.1530762,0.2160645,1.083252,-0.3451145,-0.8058702,0.4272748,1.343574,0.9092409,-1.631431,11.17197,7.889907,-13.73625,-0.04638672,0.1257324,-0.4504395,0.0,-0.0470382,-0.1531909,1.9756,0.8759309,-21.57968,15.51808,5.664601,-163.431,Unknown
-0.1552734,0.2285156,1.102783,0.0,0.4918396,-0.09180916,1.548618,1.055286,-1.881446,11.59575,7.85002,-14.06468,-0.05712891,0.1164551,-0.4477539,-1.480237,-0.902,0.3353589,2.20366,0.98594,-24.42003,14.4666,7.039353,-163.8438,Unknown
-0.1486816,0.2282715,1.08667,0.1892367,0.0,0.6868168,1.755565,1.186712,-2.115195,11.75691,7.626583,-14.07371,-0.04931641,0.1330566,-0.4506836,1.02358,0.0,0.06054974,2.501753,1.086044,-27.18118,16.35596,5.991122,-162.5229,Unknown
-0.1674805,0.2316895,1.103027,-0.2687786,-0.4547252,0.442542,1.951138,1.325333,-2.356991,11.73178,8.451989,-14.53027,-0.05517578,0.1171875,-0.4492188,-1.144359,0.0,0.3811603,2.726346,1.199878,-29.91064,14.51644,6.777733,-163.9157,Unknown
-0.1645508,0.2219238,1.094238,0.479313,0.003290057,0.4730763,2.145503,1.466548,-2.586758,11.34057,8.383832,-14.16992,-0.05078125,0.121582,-0.4477539,0.7335038,0.7010534,-0.3821983,2.984588,1.311109,-32.59008,15.09932,6.246162,-163.6024,Unknown
-0.1547852,0.2331543,1.094238,0.0,0.0,0.2593359,2.340857,1.594753,-2.818133,11.91323,7.876812,-14.34612,-0.04418945,0.1262207,-0.4538574,-0.3962674,-0.3981832,0.1979542,3.22851,1.386212,-35.20701,15.47196,5.358902,-163.582,Unknown
-0.1557617,0.2277832,1.087402,-0.4214504,0.0,0.0,2.522139,1.722474,-3.046555,11.71473,7.980798,-14.23922,-0.05322266,0.1176758,-0.4575195,-0.1061909,0.1972366,0.2284887,3.449111,1.489752,-37.78446,14.33143,6.427945,-164.2363,Unknown
-0.1538086,0.2348633,1.075684,0.0,-0.6531985,0.4730763,2.715623,1.838112,-3.271682,12.19631,7.952517,-14.62746,-0.0534668,0.1210938,-0.4499512,0.1838853,-0.2760458,0.1674199,3.681899,1.587085,-40.29861,14.96242,6.545786,-163.6065,Unknown
-0.1486816,0.2319336,1.082764,0.4335115,0.2780993,-0.2139466,2.906882,1.958114,-3.494692,11.98121,7.647418,-14.27543,-0.0480957,0.1181641,-0.4538574,-0.02985501,-0.3065802,0.2132213,3.898132,1.667944,-42.77549,14.51545,5.855338,-164.2996,Unknown
-0.157959,0.2250977,1.084229,-2.085573,0.8124504,-0.7024961,3.050276,2.09326,-3.719759,11.60943,8.118256,-14.23173,-0.04858398,0.1225586,-0.442627,-0.1672597,0.9147939,0.3200917,4.125487,1.768801,-45.18355,15.38883,6.038443,-163.4138,Unknown
-0.1723633,0.2282715,1.102295,-2.42145,0.7971831,-0.3055496,3.184939,2.237222,-3.940793,11.5632,8.70545,-14.54695,-0.04858398,0.1123047,-0.4516602,-0.01458788,-0.07757253,0.3811603,4.320505,1.85155,-47.57148,13.88637,5.959463,-164.8414,Unknown
-0.1552734,0.2207031,1.098633,-1.520687,-0.5615954,0.6410153,3.325376,2.342551,-4.129183,11.24998,7.888955,-13.80006,-0.05615234,0.1191406,-0.4536133,0.0,0.02929771,-0.428,4.526286,1.951498,-49.90252,14.60955,6.827422,-163.8089,Unknown
-0.1416016,0.2270508,1.092529,0.6167176,0.0,0.7326183,3.500843,2.440341,-4.311074,11.64545,7.232041,-13.76223,-0.05322266,0.1252441,-0.4404297,0.0,0.04456491,0.1216183,4.751063,2.045723,-52.15928,15.76513,6.629982,-162.8299,Unknown
-0.1520996,0.234375,1.090576,2.570916,-0.6684657,0.5036107,3.708939,2.537,-4.504848,12.01604,7.764619,-14.36995,-0.05151367,0.1271973,-0.4511719,0.3060229,-0.2760458,-0.06158781,4.973198,2.126447,-54.37857,15.6479,6.271279,-163.0818,Unknown
-0.1503906,0.2304688,1.075928,3.563282,0.0,-0.2139466,3.923194,2.641916,-4.704633,11.97729,7.782801,-14.3473,-0.05493164,0.1196289,-0.4562988,0.4128931,0.2888396,0.1674199,5.171602,2.221007,-56.5667,14.58993,6.642159,-163.9076,Unknown
-0.1577148,0.2287598,1.081055,4.98313,-0.1493817,-0.7788321,4.15451,2.74934,-4.910278,11.82637,8.122919,-14.41443,-0.0324707,0.1225586,-0.4501953,-0.06038928,-0.2149771,0.06054974,5.371106,2.253046,-58.7199,15.19119,3.980971,-164.2714,Unknown
-0.1604004,0.2270508,1.087646,-1.826031,1.163595,-0.2597481,4.277951,2.87575,-5.102639,11.66871,8.214624,-14.33738,-0.04736328,0.123291,-0.453125,0.1686182,0.07509923,-0.1379237,5.568847,2.324202,-60.82239,15.14248,5.759322,-163.7498,Unknown
-0.1589355,0.2253418,1.096436,-3.474885,2.827718,-0.1223435,4.374654,3.018658,-5.284606,11.49692,8.081341,-14.11705,-0.05908203,0.1171875,-0.4575195,0.4128931,-0.2760458,-0.0310533,5.748603,2.416269,-62.88629,14.25321,7.130497,-163.9946,Unknown
-0.1484375,0.220459,1.101563,-2.360382,1.51474,-0.1528779,4.476833,3.131091,-5.452451,11.21847,7.526981,-13.56452,-0.04663086,0.1220703,-0.4602051,0.0,0.3957099,-0.1226563,5.929297,2.485634,-64.91333,14.78336,5.593673,-164.1483,Unknown
-0.15625,0.229248,1.092529,0.05183208,0.5376411,-0.9162367,4.622749,3.23573,-5.641837,11.73454,7.967844,-14.24829,-0.0456543,0.1235352,-0.4558105,0.0,-0.4134504,0.3658931,6.112554,2.54028,-66.88736,15.09215,5.521801,-163.8839,Unknown
-0.1577148,0.2287598,1.092041,0.0,0.5834427,-0.763565,4.764555,3.340505,-5.825731,11.71307,8.045682,-14.27537,-0.04760742,0.1242676,-0.4431152,0.4739618,0.1209008,0.04528236,6.308413,2.609254,-68.81467,15.58039,5.906074,-163.2841,Unknown
-0.1577148,0.2272949,1.086426,0.7235878,-0.3020534,-0.3513512,4.91314,3.431293,-5.999766,11.69743,8.087143,-14.28646,-0.05151367,0.1176758,-0.4501953,0.1838853,-0.1844428,-0.1379237,6.476104,2.680703,-70.72189,14.55778,6.317246,-164.0746,Unknown
-0.1547852,0.2258301,1.084717,-1.490153,0.858252,-1.038374,5.025889,3.53434,-6.178348,11.64586,7.952801,-14.16566,-0.05053711,0.1196289,-0.4545898,-0.8542824,-0.01650381,0.1521528,6.628004,2.749589,-72.5865,14.65719,6.136324,-164.0566,Unknown
-0.1547852,0.2236328,1.087402,-2.787863,1.575809,-1.145244,5.11729,3.64402,-6.351342,11.50843,7.93735,-14.04238,-0.04980469,0.1230469,-0.4501953,0.32129,0.3651755,0.03001523,6.804132,2.82179,-74.40575,15.19827,6.091259,-163.5714,Unknown
-0.1635742,0.2285156,1.101563,-4.360382,2.537641,-1.282649,5.182765,3.773897,-6.529406,11.59595,8.272682,-14.31181,-0.05712891,0.1193848,-0.4509277,0.2449541,0.07509923,0.1063511,6.965982,2.906106,-76.18893,14.71656,6.982374,-163.6427,Unknown
-0.1621094,0.2270508,1.09375,-2.955801,1.636878,-0.6261602,5.267743,3.887624,-6.694209,11.60415,8.257144,-14.30933,-0.04223633,0.1203613,-0.4396973,0.1991527,-0.01650381,-0.3974657,7.134236,2.953624,-77.94704,15.24207,5.2933,-163.8225,Unknown
-0.1584473,0.2192383,1.097656,-0.1924427,-0.2104504,0.5036107,5.383394,3.968123,-6.830292,11.18229,8.056952,-13.84386,-0.05615234,0.1179199,-0.4558105,0.06174803,-0.001236677,0.1063511,7.280466,3.030559,-79.66676,14.40034,6.801302,-164.011,Unknown
-0.154541,0.2243652,1.097656,1.181603,0.04909158,0.5799466,5.521945,4.046558,-6.963943,11.44251,7.853799,-13.93914,-0.04370117,0.1208496,-0.4541016,-0.1214581,-0.07757253,0.07581687,7.429814,3.075071,-81.35629,14.83715,5.3132,-164.1988,Unknown
-0.1555176,0.2248535,1.087158,3.074733,-0.3325878,0.1066641,5.688125,4.120225,-7.105413,11.57097,7.974374,-14.11585,-0.05273438,0.1154785,-0.4516602,0.03121376,-0.2760458,0.1216183,7.566658,3.138587,-83.01339,14.24908,6.453752,-164.3007,Unknown
-0.1494141,0.2192383,1.078613,1.212137,-0.1188473,0.06086259,5.819852,4.190685,-7.238789,11.38356,7.730557,-13.81895,-0.04760742,0.1164551,-0.4536133,0.7182367,0.1056336,-0.0310533,7.71164,3.193354,-84.64352,14.32305,5.804465,-164.4986,Unknown
-0.1552734,0.2189941,1.087158,-1.062672,1.010924,-0.3818855,5.914427,4.280147,-7.376667,11.27762,7.970323,-13.87074,-0.04907227,0.1245117,-0.4438477,-0.04512215,0.1056336,-0.09212208,7.868345,3.252566,-86.21641,15.58001,6.07635,-163.2204,Unknown
-0.1682129,0.2243652,1.094482,-2.070305,2.049092,-0.1986794,5.994787,4.39591,-7.519469,11.45407,8.562183,-14.37075,-0.05273438,0.1235352,-0.4450684,0.0,-0.3676488,0.5185649,8.01918,3.312376,-87.74857,15.41014,6.513238,-163.2064,Unknown
-0.1638184,0.2258301,1.10083,-1.413817,-0.02724427,0.7478855,6.083512,4.473471,-7.642514,11.4702,8.294018,-14.2214,-0.05444336,0.1218262,-0.4519043,0.0,0.5483816,-0.1989923,8.158476,3.386351,-89.26731,14.98393,6.634977,-163.5492,Unknown
-0.1589355,0.2250977,1.083252,-0.4977863,-0.4852595,-0.6261602,6.187371,4.540839,-7.783693,11.61794,8.174734,-14.27196,-0.04931641,0.126709,-0.4406738,0.2144198,-0.1691756,-0.01578617,8.317405,3.438913,-90.73925,15.94733,6.138768,-162.8526,Unknown
-0.1682129,0.2246094,1.09375,0.4182443,0.873519,-0.06127481,6.299242,4.634207,-7.916712,11.4735,8.567232,-14.38958,-0.05566406,0.1208496,-0.4445801,0.0,-0.550855,0.2284887,8.452952,3.49982,-92.18788,15.09477,6.889179,-163.3387,Unknown
-0.1618652,0.2207031,1.092773,0.7846565,-0.2867863,0.6410153,6.410754,4.70253,-8.030177,11.29815,8.261146,-14.06111,-0.03662109,0.1157227,-0.4489746,0.9319771,0.6247175,-0.168458,8.584829,3.528717,-93.64387,14.40749,4.516109,-164.8719,Unknown
-0.1625977,0.2226563,1.107178,0.3419085,0.2475649,-0.4429542,6.512291,4.775733,-8.155315,11.25309,8.192876,-13.98322,-0.04931641,0.1186523,-0.4553223,0.3823588,-0.2302443,0.2742901,8.709244,3.574426,-95.05177,14.52454,5.983367,-164.2408,Unknown
-0.154541,0.2329102,1.087402,0.5861833,-0.3936565,0.1219313,6.630116,4.832664,-8.278732,11.9727,7.91158,-14.41582,-0.05175781,0.1225586,-0.4504395,0.1380839,0.2735725,-0.0005190372,8.839474,3.633226,-96.42165,15.12603,6.32679,-163.5452,Unknown
-0.1633301,0.2160645,1.093506,-0.3145801,0.4155039,0.2135344,6.714347,4.908436,-8.38846,11.05744,8.336267,-13.91166,-0.04858398,0.121582,-0.4587402,-0.3657329,-0.2760458,0.259023,8.952611,3.673407,-97.77083,14.76514,5.845172,-164.0706,Unknown
-0.1633301,0.2268066,1.095947,-0.6046565,0.3239008,-0.1528779,6.802533,4.98109,-8.509078,11.56806,8.303049,-14.30699,-0.05273438,0.1181641,-0.453125,0.7945726,0.4567786,-0.3974657,9.0749,3.73471,-99.1021,14.52202,6.425191,-164.0624,Unknown
-0.1601563,0.2294922,1.103271,0.9678626,-0.2715191,0.1066641,6.912402,5.03952,-8.622097,11.63202,8.08886,-14.23321,-0.04980469,0.1230469,-0.4399414,-0.5794735,-0.6729923,0.4269619,9.195511,3.774563,-100.378,15.53136,6.222017,-163.2098,Unknown
-0.1645508,0.2250977,1.076416,0.0,-0.5157939,0.183,7.007743,5.101351,-8.737413,11.67946,8.510166,-14.52242,-0.04589844,0.1196289,-0.4519043,0.5197632,0.7315878,0.1368854,9.313827,3.821261,-101.6519,14.75476,5.607595,-164.17,Unknown
-0.04956055,0.125,-0.4421387,0.3823588,-0.123374,-0.1837251,13.3226,2.690332,-105.2558,15.69309,6.156399,-163.084,-0.1572266,0.2275391,1.089111,0.0,-0.1646488,0.2593359,7.279331,5.963476,-7.253094,11.68287,8.043279,-14.24886,Unknown
-0.05322266,0.1188965,-0.4526367,-0.1061909,0.05983204,0.07581687,13.34712,2.767108,-106.4285,14.62133,6.488121,-163.9446,-0.1552734,0.2321777,1.095459,0.4945802,0.171229,-0.01547329,7.377559,6.004445,-7.394327,11.85144,7.894442,-14.30418,Unknown
-0.04418945,0.1186523,-0.4543457,0.6571679,0.1056336,0.1063511,13.38124,2.820837,-107.587,14.57011,5.375905,-164.4283,-0.157959,0.2282715,1.085205,-0.1008396,0.5071069,-0.1528779,7.463696,6.053944,-7.535659,11.75851,8.10666,-14.34855,Unknown
-0.04492188,0.119873,-0.4389648,-0.6558094,0.01403052,0.1368854,13.40794,2.877387,-108.7081,15.19831,5.638036,-163.7419,-0.1542969,0.2268066,1.091309,-0.2535114,0.07962596,-0.1070763,7.543259,6.091661,-7.668715,11.62819,7.881311,-14.10975,Unknown
-0.04760742,0.1201172,-0.4458008,0.2449541,0.04456491,-0.0310533,13.44335,2.938238,-109.8111,14.99833,5.887158,-163.8367,-0.1516113,0.220459,1.095703,-1.093206,0.5376411,-0.1070763,7.601756,6.132233,-7.791364,11.2716,7.725046,-13.72251,Unknown
-0.0480957,0.1203613,-0.4455566,0.2754886,0.3804427,0.182687,13.47893,3.003679,-110.888,15.03354,5.949311,-163.78,-0.1569824,0.2216797,1.098633,-1.215344,0.3086336,0.1066641,7.658967,6.173289,-7.911828,11.2961,7.973317,-13.88774,Unknown
-0.05371094,0.119873,-0.4521484,0.03121376,-0.3371145,0.0147481,13.5048,3.069654,-111.946,14.74945,6.550225,-163.8006,-0.1503906,0.2329102,1.081787,-0.4214504,0.5223741,-0.01547329,7.740353,6.212291,-8.04131,12.03803,7.739439,-14.37459,Unknown
-0.04931641,0.1237793,-0.4501953,-0.2130611,-0.0470382,0.0147481,13.5373,3.12816,-112.9771,15.28623,6.0295,-163.5131,-0.1518555,0.2275391,1.089844,-0.3756489,0.9956565,-0.7482977,7.813687,6.25802,-8.173295,11.68317,7.766981,-14.09052,Unknown
-0.04956055,0.1291504,-0.4587402,0.7029693,-0.1386412,-0.0005190372,13.58963,3.182299,-113.982,15.63714,5.937046,-163.2193,-0.1608887,0.2211914,1.079102,-0.2382443,0.0,0.0,7.883123,6.299055,-8.29429,11.46061,8.309761,-14.223,Unknown
-0.0300293,0.1186523,-0.4538574,-0.4420686,0.487313,0.2284887,13.60375,3.19907,-114.9971,14.62039,3.66269,-164.9079,-0.1694336,0.2185059,1.074219,-0.9558016,0.6597786,-0.2597481,7.938628,6.358498,-8.42091,11.36089,8.786233,-14.43442,Unknown
-0.05639648,0.1171875,-0.4438477,0.3976259,0.9453281,-0.2295268,13.63145,3.289989,-115.9742,14.67724,7.003852,-163.6689,-0.1481934,0.2253418,1.123779,-0.1161069,-3.905107,3.312771,8.002912,6.317441,-8.470459,11.24382,7.367283,-13.49558,Unknown
-0.05517578,0.1347656,-0.4423828,1.466328,-0.382916,-0.6264734,13.71533,3.355012,-116.8989,16.81973,6.803835,-161.7795,-0.1479492,0.2424316,1.080322,1.838092,-2.393656,2.381473,8.118768,6.310473,-8.562965,12.53478,7.611113,-14.72944,Unknown
-0.06469727,0.1164551,-0.451416,-2.06039,2.99113,0.5490992,13.69725,3.489899,-117.824,14.32534,7.90088,-163.5578,-0.1376953,0.230957,1.083496,3.410611,-1.615031,0.4578092,8.245323,6.302225,-8.663724,11.93978,7.085067,-13.93739,Unknown
-0.04907227,0.1203613,-0.4501953,1.802206,1.189603,-0.3058627,13.74747,3.557814,-118.7499,14.88394,6.011302,-163.8955,-0.1621094,0.2333984,1.085693,0.4182443,1.377336,0.0,8.326633,6.362533,-8.783804,12.00344,8.305319,-14.66774,Unknown
-0.04272461,0.1223145,-0.449707,-0.9458857,-0.291313,0.4727633,13.76163,3.587134,-119.6465,15.15057,5.23795,-163.9282,-0.157959,0.2265625,1.101074,0.0,1.89642,-0.7024961,8.390351,6.423131,-8.900083,11.51251,7.998558,-14.08142,Unknown
-0.05004883,0.1162109,-0.458252,0.01594663,0.07509923,-0.4432673,13.7696,3.637285,-120.5509,14.14927,6.043149,-164.5644,-0.1538086,0.2307129,1.089844,0.03656495,-1.019611,0.8547558,8.459821,6.437901,-8.995845,11.83872,7.861083,-14.27456,Unknown
-0.05444336,0.1210938,-0.447998,0.5197632,-0.2760458,-0.04632068,13.80276,3.694033,-121.4105,15.02012,6.691114,-163.4922,-0.152832,0.2272949,1.101074,0.0,-0.01197708,0.9310915,8.521744,6.463778,-9.080711,11.55597,7.741139,-13.96914,Unknown
-0.05322266,0.119873,-0.4511719,0.4281602,0.227771,-0.07685494,13.82821,3.753361,-122.2591,14.78134,6.5042,-163.7907,-0.1564941,0.2250977,1.085449,-0.2687786,-0.1188473,0.4120076,8.579604,6.49358,-9.17694,11.59915,8.035399,-14.17476,Unknown
-0.05151367,0.1228027,-0.4511719,-0.5184045,0.319374,0.350626,13.84667,3.808727,-123.0799,15.13249,6.28689,-163.5553,-0.1616211,0.2246094,1.092041,0.9373282,0.9193206,-0.4734885,8.651802,6.54219,-9.284741,11.50055,8.248401,-14.219,Unknown
-0.04370117,0.1201172,-0.4431152,0.1991527,-0.4134504,0.1674199,13.87461,3.835223,-123.894,15.09706,5.43745,-163.9094,-0.1538086,0.2287598,1.088379,1.639618,-0.07304579,-0.1528779,8.737995,6.56775,-9.385549,11.75636,7.8739,-14.21272,Unknown
-0.04370117,0.1228027,-0.4455566,0.4128931,0.227771,0.091084,13.90996,3.8699,-124.6887,15.33897,5.401626,-163.6932,-0.1474609,0.2277832,1.080811,1.395344,0.03382444,0.4883435,8.819644,6.588976,-9.472528,11.79488,7.604186,-14.09339,Unknown
-0.05175781,0.1210938,-0.4465332,-0.6100078,-0.4592519,0.1368854,13.92433,3.913413,-125.4643,15.07661,6.383124,-163.5682,-0.1557617,0.2312012,1.088623,0.2045038,0.2933664,0.4883435,8.883715,6.620857,-9.563172,11.87286,7.96735,-14.36367,Unknown
-0.04907227,0.1228027,-0.453125,0.3670917,0.6094504,0.0147481,13.95247,3.962852,-126.2294,15.07953,5.967274,-163.7301,-0.154541,0.2280273,1.09668,-0.1619084,0.1864962,0.3204046,8.936502,6.648105,-9.649508,11.63411,7.855301,-14.09977,Unknown
-0.04516602,0.1220703,-0.4470215,0.1533511,-0.3676488,-0.0005190372,13.97967,3.98953,-126.9801,15.19987,5.566971,-163.7662,-0.1557617,0.2275391,1.087402,-0.7878625,0.9956565,0.1524656,8.98024,6.689402,-9.738861,11.70252,7.981153,-14.22925,Unknown
-0.05419922,0.1218262,-0.4521484,-0.07565641,0.2735725,-0.04632068,13.99851,4.045805,-127.7126,14.97723,6.602192,-163.5692,-0.1503906,0.2253418,1.092041,-0.5435878,0.2170305,0.04559542,9.023708,6.712431,-9.822071,11.55322,7.681338,-13.93285,Unknown
-0.05078125,0.119873,-0.4477539,0.1533511,0.02929771,-0.09212208,14.01873,4.090362,-128.4355,14.89658,6.252111,-163.7881,-0.1574707,0.2285156,1.091797,-0.3451145,0.690313,0.1524656,9.072237,6.749039,-9.908622,11.70377,8.035444,-14.26169,Unknown
-0.04711914,0.1242676,-0.4492188,-0.01458788,-0.07757253,-0.0310533,14.04579,4.122868,-129.1376,15.3827,5.772676,-163.5192,-0.1496582,0.2246094,1.085938,0.5251145,0.4002366,-0.1528779,9.130101,6.773663,-9.991849,11.57951,7.686095,-13.95763,Unknown
-0.05078125,0.1235352,-0.449707,0.2602212,-0.01650381,0.1521528,14.07406,4.164454,-129.8218,15.26788,6.214288,-163.4583,-0.1564941,0.2319336,1.097168,0.5098474,0.339168,-0.3666183,9.191394,6.802063,-10.08353,11.81998,7.944357,-14.30625,Unknown
-0.0559082,0.123291,-0.4594727,0.1838853,-0.2607787,0.1674199,14.09359,4.211387,-130.4945,14.91538,6.702753,-163.5834,-0.1520996,0.2258301,1.094971,-1.322214,0.9956565,-0.6719618,9.219042,6.835602,-10.17101,11.54562,7.747198,-13.96393,Unknown
-0.04614258,0.1213379,-0.4414063,0.1533511,0.2735725,-0.01578617,14.11979,4.246296,-131.1571,15.29097,5.755771,-163.6117,-0.1638184,0.2275391,1.081299,-1.71916,1.606344,-0.7330306,9.244452,6.891162,-10.2691,11.75312,8.432936,-14.53638,Unknown
-0.05664063,0.1169434,-0.449707,-0.3351984,-0.4439847,0.1979542,14.12181,4.29384,-131.8087,14.4671,6.949841,-163.8839,-0.1547852,0.2253418,1.105225,-2.009237,2.064359,-0.8857023,9.258337,6.939957,-10.3546,11.41552,7.813635,-13.89345,Unknown
-0.05151367,0.1228027,-0.449707,0.6266336,0.1819695,-0.0005190372,14.15155,4.336576,-132.4427,15.1789,6.305796,-163.5046,-0.1555176,0.2316895,1.088135,-1.535954,2.858252,-1.450588,9.290151,6.999527,-10.45508,11.90266,7.957676,-14.38314,Unknown
-0.01489258,0.1184082,-0.4570313,0.1686182,-0.3065802,0.442229,14.16135,4.281473,-133.0946,14.51751,1.806739,-165.3656,-0.1848145,0.2285156,1.0979,-0.833664,4.430771,-2.870435,9.324072,7.111836,-10.58789,11.59893,9.358371,-14.98617,Unknown
-0.04248047,0.1152344,-0.4533691,-0.6710763,0.2888396,0.182687,14.15228,4.303867,-133.7269,14.2014,5.188912,-164.8427,-0.1577148,0.2131348,1.104004,-0.08557248,-3.157015,3.633382,9.352726,7.082883,-10.59282,10.81966,7.984621,-13.50463,Unknown
-0.0559082,0.1396484,-0.4370117,2.443428,1.143802,-0.6417403,14.2569,4.373562,-134.2819,17.58704,6.947934,-161.006,-0.1525879,0.2329102,1.0979,2.464046,-3.279153,3.953992,9.439222,7.047867,-10.60746,11.86646,7.742232,-14.23094,Unknown
-0.0703125,0.1262207,-0.4450684,-3.388634,-2.520321,0.8544428,14.23492,4.421885,-134.824,15.64885,8.642102,-162.0149,-0.1391602,0.2402344,1.065186,6.296107,-3.874573,1.236435,9.595106,6.995209,-10.6693,12.60579,7.262797,-14.60853,Unknown
-0.05249023,0.1132813,-0.4543457,2.641901,1.036931,0.0,14.26728,4.47661,-135.4202,13.91112,6.396016,-164.6347,-0.1572266,0.2248535,1.094971,0.1129008,1.331534,-2.62616,9.63466,7.035006,-10.77586,11.48977,8.0064,-14.06717,Unknown
-0.03149414,0.1269531,-0.4475098,0.3518243,0.8537251,0.6254351,14.30278,4.476256,-135.9774,15.80088,3.873285,-163.707,-0.170166,0.2163086,1.0979,-5.597023,5.728481,-2.931504,9.585524,7.145833,-10.88202,11.01741,8.646661,-14.07281,Unknown
-0.06079102,0.1120605,-0.4509277,-2.442069,-0.1539084,0.1979542,14.25754,4.533546,-136.5392,13.83564,7.453882,-164.2132,-0.1611328,0.2233887,1.098145,-2.711527,-0.1188473,0.6257481,9.58155,7.164815,-10.9368,11.37981,8.182306,-14.08054,Unknown
-0.06665039,0.1208496,-0.4538574,1.481595,-0.07757253,0.0,14.28935,4.603271,-137.0701,14.75903,8.076833,-163.0863,-0.1513672,0.2270508,1.113281,-3.688626,0.0,1.847122,9.564195,7.173287,-10.96636,11.42492,7.588402,-13.77248,Unknown
-0.06225586,0.1132813,-0.4477539,1.588466,-0.5050534,-0.1531909,14.30827,4.657318,-137.6089,14.06796,7.676816,-163.8972,-0.151123,0.2312012,1.096191,-1.352748,0.430771,-3.725397,9.589054,7.189804,-11.08464,11.80143,7.682495,-14.14257,Unknown
-0.04492188,0.1281738,-0.4453125,-1.419168,-0.4439847,0.6559694,14.32085,4.668386,-138.1079,15.98042,5.537037,-163.0386,-0.159668,0.2312012,1.077637,3.105267,2.537641,-2.366618,9.68256,7.248171,-11.19001,11.98198,8.242999,-14.6136,Unknown
-0.03735352,0.1162109,-0.4521484,0.3976259,0.1056336,0.3353589,14.32723,4.66796,-138.639,14.36723,4.574654,-164.892,-0.1643066,0.2182617,1.107422,0.1892367,4.201764,-2.656695,9.712141,7.326501,-11.27982,11.03177,8.282274,-13.8578,Unknown
-0.06518555,0.1132813,-0.4606934,0.0,0.0,-0.0005190372,14.31436,4.731072,-139.1494,13.68345,7.823538,-164.1615,-0.1555176,0.2148438,1.091064,2.296107,-3.340221,3.037962,9.772271,7.290095,-11.28282,11.03099,7.961289,-13.66286,Unknown
-0.04345703,0.1337891,-0.4438477,-0.8542824,-0.3065802,-0.2905953,14.34949,4.739053,-139.619,16.69901,5.355461,-162.4149,-0.1586914,0.2421875,1.080811,1.19687,1.652145,-0.8857023,9.844428,7.331649,-11.37013,12.50043,8.15347,-14.99729,Unknown
-0.04443359,0.1181641,-0.4487305,-1.037488,-0.7035267,0.6559694,14.34093,4.743326,-140.1027,14.68408,5.469756,-164.287,-0.1652832,0.2231445,1.102295,-2.680992,1.804817,0.0,9.834546,7.378758,-11.42552,11.32085,8.360542,-14.13975,Unknown
-0.05688477,0.1176758,-0.4511719,2.947244,0.0,-0.5959387,14.38761,4.787574,-140.5863,14.50839,6.955755,-163.8438,-0.1413574,0.2089844,1.105713,-2.20771,0.09489316,0.0,9.817771,7.375776,-11.45409,10.61846,7.15992,-12.85371,Unknown
-0.04833984,0.1188965,-0.4453125,-1.19016,0.0,0.5185649,14.37967,4.811567,-141.0454,14.86558,5.987222,-163.922,-0.1533203,0.2414551,1.083252,2.326641,0.0,-0.8093664,9.90453,7.38557,-11.53272,12.4456,7.865448,-14.79075,Unknown
-0.05273438,0.1281738,-0.4501953,-0.9306183,0.4720459,0.3353589,14.3951,4.850368,-141.4777,15.78951,6.427818,-162.8884,-0.1643066,0.2387695,1.097656,0.8151909,0.3086336,-0.5803587,9.960443,7.408524,-11.60586,12.14099,8.321533,-14.79157,Unknown
-0.05444336,0.1203613,-0.449707,0.672435,0.1819695,0.091084,14.41468,4.889442,-141.9194,14.8799,6.670317,-163.6298,-0.1628418,0.2324219,1.103271,-0.558855,-0.6379313,0.0,9.988467,7.415342,-11.66224,11.7724,8.218338,-14.42529,Unknown
-0.04125977,0.1140137,-0.454834,0.4281602,-0.6729923,0.07581687,14.41302,4.882332,-142.3813,14.01715,5.02859,-165.0732,-0.1611328,0.2258301,1.071289,0.0,-0.2257175,-0.8857023,10.0242,7.431166,-11.73239,11.7751,8.37244,-14.51844,Unknown
-0.04492188,0.1188965,-0.4492188,-0.3657329,0.7773893,-0.2142596,14.41448,4.906548,-142.8209,14.75441,5.521699,-164.2019,-0.1625977,0.2060547,1.09082,-0.8641985,0.3086336,0.1219313,10.02267,7.453736,-11.76654,10.58282,8.332842,-13.52973,Unknown
-0.04711914,0.1230469,-0.447998,0.0,-0.7493282,-0.06158781,14.43174,4.907351,-143.2381,15.2778,5.791203,-163.6109,-0.1594238,0.2468262,1.102051,-2.787863,0.0,0.4120076,10.00934,7.465362,-11.82051,12.49825,8.034999,-14.92923,Unknown
-0.05419922,0.1154785,-0.447998,-0.1061909,-0.4897862,0.07581687,14.42873,4.936121,-143.6544,14.35395,6.681832,-164.106,-0.1506348,0.2270508,1.086182,1.944962,-0.4089237,-0.1070763,10.0698,7.465055,-11.86722,11.69802,7.730574,-14.08241,Unknown
-0.04882813,0.1164551,-0.4543457,-0.2435954,0.01403052,0.1674199,14.34766,4.980386,-144.4023,14.29728,5.943303,-164.4677,-0.1604004,0.2241211,1.078613,1.227405,-0.4241909,0.3509389,10.65019,7.323081,-11.82235,11.61405,8.284048,-14.33345,Unknown
-0.05273438,0.1247559,-0.4553223,-0.2435954,-0.1844428,0.3658931,14.36188,5.005719,-144.7779,15.22568,6.373559,-163.434,-0.1577148,0.2265625,1.086182,0.7999237,-0.5615954,0.1982672,10.68143,7.330713,-11.86838,11.66327,8.089939,-14.25975,Unknown
-0.04956055,0.1228027,-0.4592285,0.1991527,0.2888396,-0.04632068,14.37534,5.028891,-145.1613,14.88864,5.95204,-163.9142,-0.1621094,0.2243652,1.089111,-0.009236574,-0.607397,0.2440687,10.69801,7.341058,-11.91262,11.51708,8.29439,-14.26002,Unknown
-0.04736328,0.1208496,-0.4570313,-0.381,-0.1539084,0.2132213,14.37695,5.040477,-145.5379,14.73588,5.721318,-164.1451,-0.1652832,0.2263184,1.081299,-1.566489,0.06435877,-0.03074045,10.69481,7.365366,-11.96542,11.68951,8.509146,-14.53001,Unknown
-0.04174805,0.1203613,-0.4550781,0.07701516,0.9605954,0.2284887,14.38565,5.055153,-145.911,14.75541,5.068224,-164.3608,-0.1574707,0.223877,1.101563,-2.222977,0.781916,0.1219313,10.67575,7.389044,-12.0034,11.37551,7.974569,-13.95401,Unknown
-0.04956055,0.1203613,-0.4631348,0.1228168,-0.4134504,0.1521528,14.38952,5.066234,-146.2765,14.48878,5.913078,-164.3018,-0.1711426,0.2226563,1.0979,-1.200076,0.858252,-0.1834122,10.67121,7.4276,-12.05299,11.33097,8.686014,-14.34796,Unknown
-0.05175781,0.1171875,-0.4536133,0.4281602,0.3804427,0.07581687,14.39594,5.096585,-146.6345,14.39573,6.30414,-164.2294,-0.15625,0.2243652,1.092041,0.2503054,-0.3325878,0.1066641,10.69139,7.433723,-12.09148,11.49622,7.97822,-14.05605,Unknown
-0.04785156,0.1225586,-0.4609375,0.229687,0.1514351,0.2895572,14.40745,5.111314,-146.9792,14.81377,5.72918,-164.0693,-0.1638184,0.2224121,1.10376,0.6319848,-0.1188473,-0.09180916,10.71168,7.448981,-12.13192,11.2725,8.278111,-14.05046,Unknown
-0.04785156,0.1237793,-0.4519043,-0.5489388,0.04456491,-0.1226563,14.41596,5.126368,-147.3141,15.23677,5.831227,-163.6345,-0.1611328,0.2302246,1.094482,0.7235878,-0.1493817,0.2593359,10.7432,7.461769,-12.17347,11.75586,8.198192,-14.39979,Unknown
-0.04711914,0.1203613,-0.4511719,0.2144198,-0.2455115,0.1063511,14.428,5.135473,-147.6465,14.85999,5.762108,-164.0136,-0.1564941,0.230957,1.091309,0.3419085,0.1254275,-0.01547329,10.77,7.474099,-12.21702,11.83179,7.98608,-14.34002,Unknown
-0.0480957,0.1176758,-0.4445801,-0.09092379,0.05983204,0.2284887,14.43306,5.152992,-147.9713,14.74337,5.970337,-164.0424,-0.1540527,0.2260742,1.094971,0.2045038,-0.2104504,0.1677328,10.7885,7.478631,-12.25094,11.55502,7.845107,-14.02785,Unknown
-0.04711914,0.1201172,-0.4575195,0.5044961,0.1972366,0.2437558,14.44454,5.166604,-148.2933,14.63638,5.688608,-164.2506,-0.1564941,0.2294922,1.0896,-0.8947329,0.6445115,-0.01547329,10.79511,7.498534,-12.29218,11.77641,8.000059,-14.30178,Unknown
-0.04516602,0.1257324,-0.4470215,-0.381,-0.0470382,-0.01578617,14.46272,5.173687,-148.5949,15.63387,5.555319,-163.3605,-0.1611328,0.2163086,1.092773,-0.8183969,-0.08831299,0.2593359,10.78877,7.511877,-12.31983,11.07986,8.230551,-13.86511,Unknown
-0.04980469,0.1228027,-0.4555664,0.2754886,0.07509923,0.06054974,14.47754,5.19183,-148.8977,15.00079,6.025655,-163.781,-0.1618652,0.2299805,1.10498,0.03656495,0.1559618,0.3356718,10.80626,7.527158,-12.35408,11.63642,8.161349,-14.27935,Unknown
-0.04467773,0.1213379,-0.4438477,-0.3351984,-0.3218473,0.4269619,14.48739,5.19418,-149.1886,15.21647,5.545872,-163.7581,-0.1538086,0.2255859,1.093262,0.9831298,-0.3936565,0.0,10.83556,7.52773,-12.38745,11.54827,7.845109,-14.02223,Unknown
-0.05541992,0.1191406,-0.4680176,0.8861756,0.2430381,0.07581687,14.49441,5.224795,-149.4901,14.18704,6.546304,-164.3175,-0.157959,0.2255859,1.097412,0.0,-0.6226641,0.2135344,10.84886,7.528527,-12.4183,11.50069,8.02522,-14.08722,Unknown
-0.04833984,0.1225586,-0.4526367,-0.2741299,-0.4287176,0.3353589,14.50186,5.231707,-149.7708,15.06871,5.8855,-163.7715,-0.1577148,0.2270508,1.081299,0.4487787,0.04909158,-0.168145,10.87324,7.541153,-12.45924,11.73796,8.123743,-14.34143,Unknown
-0.04516602,0.1230469,-0.4440918,0.5197632,0.5483816,-0.0310533,14.52769,5.247089,-150.0469,15.41105,5.597771,-163.5559,-0.1584473,0.2226563,1.085205,-0.558855,-0.07304579,0.4120076,10.87709,7.552049,-12.48669,11.47631,8.139658,-14.13447,Unknown
-0.04833984,0.1179199,-0.4445801,-0.3504658,-0.01650381,0.2437558,14.52776,5.261913,-150.3227,14.77179,5.999613,-164.0045,-0.1564941,0.220459,1.088379,0.0,-0.607397,0.534145,10.88629,7.553106,-12.50863,11.33721,8.021554,-13.95008,Unknown
-0.04711914,0.1381836,-0.4555664,0.5502977,0.8231909,0.03001523,14.58108,5.281827,-150.5605,16.78925,5.652543,-162.2308,-0.1604004,0.2285156,1.083984,0.0,-0.3783893,0.06086259,10.90415,7.561254,-12.54642,11.77964,8.238637,-14.44319,Unknown
-0.05224609,0.1223145,-0.4465332,-0.4878702,-0.123374,0.4880307,14.58668,5.303145,-150.8103,15.21975,6.438409,-163.4132,-0.1628418,0.2255859,1.094727,0.00603056,-0.3631221,-0.06127481,10.91657,7.570473,-12.58159,11.52041,8.289105,-14.25959,Unknown
-0.05053711,0.1376953,-0.4545898,0.489229,0.01403052,-0.1989923,14.63722,5.318753,-151.0394,16.75418,6.073251,-162.1174,-0.1540527,0.2277832,1.09375,0.7541222,-0.1188473,0.07612977,10.94237,7.574336,-12.61109,11.65238,7.850989,-14.11258,Unknown
-0.04614258,0.1237793,-0.449707,-0.04512215,-0.001236677,0.3048244,14.65007,5.325354,-151.2867,15.31267,5.649714,-163.63,-0.157959,0.2233887,1.099854,0.4335115,-0.2867863,0.3662061,10.95725,7.578862,-12.63286,11.36748,8.011442,-13.96907,Unknown
-0.04858398,0.1210938,-0.4460449,-0.1825268,0.07509923,-0.06158781,14.65646,5.339964,-151.5358,15.10354,6.000716,-163.6948,-0.1547852,0.2285156,1.093262,-0.4214504,-0.179916,0.4120076,10.96576,7.582443,-12.65753,11.69274,7.890137,-14.16875,Unknown
-0.05078125,0.1228027,-0.447998,-0.06038928,-0.1081069,0.2742901,14.66716,5.35635,-151.7706,15.23608,6.238734,-163.4782,-0.1621094,0.2199707,1.09375,-1.032137,-0.01197708,0.06086259,10.95631,7.595967,-12.68402,11.25168,8.26749,-14.02709,Unknown
-0.04785156,0.1228027,-0.4526367,0.2144198,0.578916,0.03001523,14.67895,5.374247,-152.0101,15.09899,5.825674,-163.7658,-0.1611328,0.2175293,1.094727,-1.535954,0.6597786,-0.06127481,10.93704,7.618044,-12.70904,11.12186,8.21489,-13.88967,Unknown
-0.046875,0.119873,-0.451416,0.672435,-0.4134504,-0.260061,14.69116,5.375306,-152.2554,14.79557,5.731107,-164.0856,-0.1569824,0.2226563,1.096436,-1.139008,0.0,-0.168145,10.92888,7.625425,-12.7364,11.36627,7.987105,-13.95375,Unknown
-0.05224609,0.119873,-0.4438477,-0.4726033,0.7010534,0.2284887,14.69069,5.407771,-152.4786,15.01475,6.483289,-163.5843,-0.1608887,0.2194824,1.102295,-0.5893893,0.262832,0.04559542,10.92456,7.639709,-12.75836,11.14602,8.146425,-13.86792,Unknown
-0.05126953,0.1291504,-0.4536133,0.9167099,-0.3981832,-0.1531909,14.72629,5.417841,-152.6907,15.79692,6.203958,-162.9687,-0.1584473,0.2248535,1.089111,0.0,-0.2257175,0.06086259,10.93701,7.645773,-12.78579,11.54692,8.108828,-14.17451,Unknown
-0.05395508,0.1171875,-0.453125,-0.4115343,0.09036642,0.4574962,14.71417,5.442245,-152.9127,14.4027,6.576053,-164.1075,-0.1599121,0.2316895,1.094971,0.9525955,-0.05777865,-0.1376107,10.96784,7.654692,-12.82033,11.82538,8.131324,-14.41848,Unknown
-0.05249023,0.1210938,-0.4475098,-0.06038928,-0.123374,-0.01578617,14.71986,5.46078,-153.1261,15.04292,6.459641,-163.568,-0.1557617,0.2297363,1.091553,-0.02450383,0.2780993,0.2593359,10.98352,7.664671,-12.84545,11.76958,7.949275,-14.26689,Unknown
-0.0324707,0.1220703,-0.4414063,-0.1061909,-0.06230533,-0.0310533,14.73218,5.431697,-153.3447,15.41904,4.055523,-164.0307,-0.1577148,0.2255859,1.10083,0.0,0.6750459,-0.2444809,10.99319,7.681751,-12.87314,11.46698,7.98941,-14.03836,Unknown
-0.04931641,0.1162109,-0.4523926,0.4434273,0.4109771,-0.3058627,14.73012,5.449246,-153.5701,14.32534,6.027211,-164.408,-0.1650391,0.2246094,1.094971,-0.5130534,0.3697023,0.0,10.99561,7.701169,-12.90131,11.46615,8.399053,-14.28132,Unknown
-0.05322266,0.119873,-0.4501953,-0.2435954,0.09036642,-0.0005190372,14.72817,5.471935,-153.7739,14.81157,6.517262,-163.7574,-0.1645508,0.2233887,1.087646,-0.2687786,0.5681756,0.1066641,11.00133,7.724092,-12.92793,11.47931,8.42972,-14.31059,Unknown
-0.0534668,0.1223145,-0.4506836,0.3823588,-0.1997099,-0.2295268,14.7409,5.490191,-153.9718,15.08328,6.531536,-163.501,-0.1633301,0.2302246,1.080566,0.5861833,0.4765725,-0.1528779,11.02785,7.744803,-12.96442,11.89633,8.409362,-14.64022,Unknown
-0.05273438,0.1166992,-0.451416,-0.2741299,0.07509923,0.2437558,14.73033,5.510474,-154.1723,14.40084,6.452825,-164.162,-0.1577148,0.2199707,1.09375,0.8457253,0.3544351,0.2135344,11.04405,7.755697,-12.98019,11.25799,8.046347,-13.89961,Unknown
-0.05322266,0.1154785,-0.4516602,0.6113663,-0.4134504,0.06054974,14.72966,5.524447,-154.3735,14.24737,6.512998,-164.2768,-0.1594238,0.21875,1.088867,0.7541222,0.339168,0.3662061,11.05911,7.768943,-12.99441,11.24257,8.168695,-13.9601,Unknown
-0.04663086,0.1240234,-0.4501953,-0.1672597,0.02929771,-0.0005190372,14.73909,5.528441,-154.558,15.32415,5.702601,-163.6,-0.1630859,0.2265625,1.093506,-0.4672519,0.5529084,0.0,11.06268,7.787865,-13.02094,11.58087,8.308674,-14.32086,Unknown
-0.04663086,0.1201172,-0.4494629,-0.3504658,0.2583054,0.3658931,14.73688,5.536143,-154.7416,14.88608,5.723664,-164.0036,-0.1618652,0.2282715,1.096191,-0.3145801,0.09489316,0.04559542,11.06961,7.798017,-13.04626,11.64047,8.225715,-14.32063,Unknown
-0.04760742,0.1169434,-0.4506836,0.6571679,-0.1539084,-0.09212208,14.74119,5.539918,-154.9351,14.46921,5.838073,-164.3494,-0.1577148,0.2258301,1.101074,-0.5130534,0.262832,-0.1223435,11.0702,7.805668,-13.06804,11.47663,7.987389,-14.04517,Unknown
-0.04711914,0.1206055,-0.4538574,0.5197632,0.02929771,0.2742901,14.7496,5.544116,-155.1142,14.80547,5.729712,-164.0768,-0.1584473,0.2124023,1.092529,0.6625191,-0.179916,0.1524656,11.0757,7.809133,-13.07726,10.89066,8.102325,-13.63371,Unknown
-0.04638672,0.1186523,-0.4460449,-0.2435954,0.227771,0.2132213,14.74743,5.551362,-155.2899,14.8199,5.738991,-164.0598,-0.1669922,0.2265625,1.096924,-0.4825191,0.09489316,0.09139694,11.07791,7.823941,-13.10219,11.54063,8.479762,-14.39083,Unknown
-0.05029297,0.1247559,-0.4526367,-0.3046641,0.07509923,0.3200917,14.75439,5.563719,-155.4484,15.31948,6.114035,-163.4494,-0.1633301,0.2270508,1.092041,0.1434351,0.1864962,0.03032825,11.09085,7.836819,-13.12701,11.6196,8.330758,-14.36582,Unknown
-0.05029297,0.1181641,-0.4533691,0.5350306,-0.3523817,0.3658931,14.75763,5.569805,-155.6178,14.52303,6.126981,-164.1847,-0.1518555,0.2207031,1.083496,1.273206,-0.02724427,0.1066641,11.11585,7.836075,-13.14067,11.40487,7.81969,-13.88809,Unknown
-0.05419922,0.1181641,-0.4526367,0.0006792545,-0.1844428,-0.01578617,14.75312,5.587872,-155.7852,14.53157,6.608723,-163.9755,-0.1625977,0.2272949,1.092773,1.105267,-0.8058702,0.2440687,11.14229,7.833273,-13.16117,11.62544,8.288302,-14.34534,Unknown
-0.046875,0.1179199,-0.4377441,0.1686182,0.4109771,-0.2295268,14.76043,5.600221,-155.9495,14.99468,5.903247,-163.834,-0.1650391,0.2312012,1.090088,-0.3756489,0.2017633,-0.01547329,11.15079,7.848065,-13.19029,11.84355,8.424563,-14.60574,Unknown
-0.05029297,0.1264648,-0.4506836,-0.5642061,-0.1691756,0.4269619,14.76913,5.608545,-156.0886,15.58249,6.132491,-163.1966,-0.1635742,0.2312012,1.079834,-0.2687786,0.3086336,0.4120076,11.16314,7.86385,-13.21476,11.95265,8.425603,-14.6963,Unknown
-0.04638672,0.1223145,-0.4516602,0.6877022,0.1361679,0.1368854,14.7854,5.611602,-156.2417,15.0772,5.661344,-163.8473,-0.152832,0.222168,1.095947,-0.03977096,0.003290057,0.03032825,11.16634,7.862271,-13.22648,11.35262,7.782514,-13.82312,Unknown
-0.04956055,0.1193848,-0.4516602,0.06174803,0.1667023,-0.09212208,14.78503,5.622934,-156.3988,14.72155,6.055648,-164.0291,-0.1625977,0.2285156,1.080078,-0.02450383,-0.2715191,0.3204046,11.17899,7.868603,-13.24836,11.81674,8.37841,-14.55627,Unknown
-0.05126953,0.1235352,-0.4475098,-0.01458788,0.4262443,0.1521528,14.79585,5.64278,-156.5358,15.33662,6.301964,-163.3596,-0.1647949,0.2312012,1.083008,-0.9710688,0.4918396,0.03032825,11.17949,7.887744,-13.27675,11.91745,8.464125,-14.69008,Unknown
-0.05029297,0.125,-0.4467773,-0.5184045,-0.1081069,0.2895572,14.80305,5.652075,-156.6652,15.53728,6.18701,-163.2178,-0.1660156,0.2219238,1.097412,-0.7573281,0.3086336,0.3356718,11.17091,7.903211,-13.28975,11.30716,8.434233,-14.17353,Unknown
-0.05200195,0.1218262,-0.4506836,0.5350306,0.1514351,-0.260061,14.81968,5.669563,-156.8102,15.03118,6.355797,-163.6214,-0.1574707,0.2253418,1.091064,0.02129769,0.171229,-0.0002061129,11.17903,7.909909,-13.30681,11.553,8.045147,-14.14219,Unknown
-0.05053711,0.1203613,-0.4494629,0.03121376,0.01403052,-0.07685494,14.82178,5.680352,-156.9512,14.90176,6.198709,-163.8047,-0.1689453,0.2270508,1.083008,0.7083206,-0.1341145,0.1524656,11.19992,7.923354,-13.33133,11.70291,8.680724,-14.64495,Unknown
-0.05200195,0.126709,-0.454834,-0.4878702,-0.1844428,-0.1226563,14.82759,5.689735,-157.0788,15.47101,6.285098,-163.2413,-0.1594238,0.230957,1.09082,-0.2840458,-0.1035802,0.0,11.2084,7.926105,-13.35325,11.83246,8.137041,-14.42769,Unknown
-0.03393555,0.1169434,-0.4453125,0.1838853,-0.0470382,0.1521528,14.82703,5.659605,-157.2293,14.67348,4.215474,-164.7067,-0.1542969,0.2258301,1.092529,0.1129008,0.339168,0.07612977,11.21712,7.929723,-13.36624,11.56714,7.874356,-14.0548,Unknown
-0.04858398,0.1176758,-0.4511719,-0.1214581,-0.1539084,0.06054974,14.81946,5.663123,-157.3687,14.53789,5.948644,-164.2421,-0.1557617,0.2224121,1.084961,-0.02450383,0.03382444,0.3204046,11.22182,7.931737,-13.37522,11.47044,8.005555,-14.05067,Unknown
-0.05053711,0.1154785,-0.4533691,0.489229,0.3499084,0.1979542,14.81438,5.678309,-157.5076,14.20566,6.165246,-164.4622,-0.1630859,0.2199707,1.087158,-0.1008396,-0.02724427,-0.09180916,11.22221,7.939989,-13.39182,11.31526,8.364366,-14.13752,Unknown
-0.05102539,0.1223145,-0.4384766,-0.5031376,-0.3065802,0.1674199,14.82044,5.688148,-157.6186,15.48717,6.395603,-163.1824,-0.1586914,0.2243652,1.089844,0.479313,-0.2104504,0.0,11.23511,7.94043,-13.40703,11.51477,8.116698,-14.15261,Unknown
-0.05151367,0.123291,-0.4558105,0.1533511,-0.01650381,0.0147481,14.82717,5.698664,-157.7393,15.04421,6.226066,-163.6616,-0.1574707,0.2287598,1.09668,0.5709161,0.03382444,0.2746031,11.25212,7.942143,-13.41907,11.66623,8.001253,-14.21064,Unknown
-0.05737305,0.1203613,-0.4448242,0.1991527,0.01403052,-0.1837251,14.83399,5.726835,-157.8535,15.0219,7.096918,-163.3139,-0.1577148,0.2224121,1.091064,0.128168,0.2170305,0.2746031,11.25709,7.947724,-13.42727,11.40641,8.061663,-14.03078,Unknown
-0.05224609,0.121582,-0.4475098,-0.06038928,0.1972366,0.2437558,14.83845,5.74376,-157.9634,15.10172,6.428091,-163.5266,-0.1611328,0.2321777,1.08252,0.38771,-0.179916,0.0,11.2772,7.951738,-13.45135,11.97726,8.280684,-14.63162,Unknown
-0.05249023,0.1188965,-0.4589844,-0.1061909,-0.3065802,0.03001523,14.82888,5.751026,-158.0875,14.43271,6.317354,-164.1898,-0.1584473,0.2241211,1.082764,0.4945802,-0.1493817,0.1371985,11.28993,7.953752,-13.46493,11.5746,8.154876,-14.22448,Unknown
-0.04541016,0.1220703,-0.4453125,0.0006792545,-0.06230533,-0.01578617,14.8374,5.747424,-158.1999,15.25412,5.616726,-163.6971,-0.1623535,0.2258301,1.091797,-0.6657251,0.1254275,0.09139694,11.2856,7.962224,-13.48013,11.56274,8.285208,-14.29198,Unknown
-0.05444336,0.121582,-0.4499512,0.07701516,0.4567786,-0.0005190372,14.84211,5.772439,-158.3061,15.01635,6.662477,-163.5078,-0.1640625,0.2189941,1.079834,-0.6809924,0.3697023,0.2898702,11.27663,7.977799,-13.49066,11.33762,8.46922,-14.21959,Unknown
-0.04345703,0.123291,-0.449707,0.0922823,-0.4439847,-0.04632068,14.8519,5.756949,-158.4165,15.26366,5.324308,-163.7914,-0.1611328,0.2243652,1.095459,0.128168,0.1406947,0.03032825,11.28208,7.98431,-13.50345,11.45495,8.199889,-14.15266,Unknown
-0.05175781,0.1130371,-0.4592285,0.0922823,-0.2607787,0.03001523,14.83119,5.762633,-158.5447,13.74452,6.245561,-164.8519,-0.1606445,0.230957,1.087158,0.0,-0.6379313,-0.1223435,11.29381,7.979112,-13.52547,11.86851,8.224567,-14.50859,Unknown
-0.05126953,0.119873,-0.442627,0.2602212,0.02929771,-0.06158781,14.83929,5.775369,-158.6464,15.0574,6.379325,-163.5875,-0.1630859,0.2268066,1.081299,0.8915268,-0.3020534,0.0,11.31451,7.983324,-13.54468,11.71747,8.396899,-14.48562,Unknown
-0.0324707,0.1157227,-0.4484863,-0.1825268,0.2735725,0.1521528,14.82846,5.744086,-158.7712,14.43221,4.010131,-164.9976,-0.1662598,0.2229004,1.084961,-0.1771755,0.1101603,0.1524656,11.3152,7.996009,-13.55905,11.47924,8.536663,-14.37555,Unknown
-0.04980469,0.1240234,-0.4589844,-0.09092379,0.1667023,0.07581687,14.83129,5.751257,-158.8699,15.0367,5.980135,-163.7652,-0.1569824,0.2250977,1.096436,-0.9863358,0.3697023,0.1371985,11.30415,8.001197,-13.5669,11.48761,7.983665,-14.05209,Unknown
-0.05249023,0.1210938,-0.4482422,0.2449541,-0.123374,-0.2753282,14.83866,5.763417,-158.9684,15.01977,6.449888,-163.5934,-0.1523438,0.2263184,1.089111,-0.4672519,0.2322977,0.1982672,11.30378,8.000555,-13.5739,11.62896,7.798332,-14.06289,Unknown
-0.05053711,0.1179199,-0.4470215,0.4586947,0.1819695,0.1368854,14.84194,5.775414,-159.0669,14.68796,6.238439,-163.9868,-0.161377,0.2263184,1.093018,-0.05503809,-0.08831299,0.0,11.30847,8.003865,-13.58779,11.57621,8.226637,-14.26823,Unknown
-0.04833984,0.1210938,-0.4482422,-0.07565641,0.1667023,0.1063511,14.84468,5.78123,-159.1597,15.03452,5.943702,-163.7812,-0.1635742,0.2243652,1.086182,0.5403817,-0.02724427,0.2898702,11.32113,8.011179,-13.59856,11.54443,8.389623,-14.33952,Unknown
-0.04858398,0.1174316,-0.463623,0.1228168,-0.2760458,-0.0005190372,14.83238,5.777557,-159.2699,14.13929,5.800437,-164.671,-0.1608887,0.2246094,1.103516,0.3113741,-0.08831299,0.3051374,11.32704,8.012271,-13.60323,11.38762,8.130661,-14.05619,Unknown
-0.04980469,0.1213379,-0.4506836,0.06174803,0.01403052,0.1216183,14.83627,5.784031,-159.3582,14.98142,6.09095,-163.7735,-0.152832,0.2287598,1.087158,0.2961069,-0.1341145,0.2440687,11.34026,8.006711,-13.6116,11.77036,7.832838,-14.20111,Unknown
-0.05224609,0.1208496,-0.4550781,-0.2741299,-0.07757253,0.259023,14.8311,5.793844,-159.4445,14.7793,6.331694,-163.8642,-0.1623535,0.2365723,1.092529,0.08236647,-0.08831299,0.2288015,11.35645,8.010552,-13.6303,12.0892,8.263709,-14.7149,Unknown
-0.03369141,0.1203613,-0.442627,0.2602212,0.04456491,0.1216183,14.84171,5.762639,-159.5384,15.17047,4.200819,-164.2315,-0.1538086,0.2272949,1.101074,-0.2077099,0.1864962,0.06086259,11.35736,8.008883,-13.63672,11.55461,7.789998,-13.9959,Unknown
-0.0534668,0.1223145,-0.4553223,0.01594663,0.02929771,0.06054974,14.84388,5.777217,-159.6199,14.93853,6.470024,-163.6601,-0.1538086,0.222168,1.092529,-0.08557248,-0.01197708,0.1524656,11.35666,8.005627,-13.63959,11.38518,7.854862,-13.89212,Unknown
-0.05322266,0.1169434,-0.4519043,-0.4268017,0.04456491,-0.0310533,14.82899,5.792421,-159.7106,14.41324,6.504679,-164.1285,-0.1582031,0.2285156,1.094971,0.2045038,0.01855725,0.03032825,11.36594,8.006791,-13.6512,11.67038,8.050201,-14.2425,Unknown
-0.04931641,0.125,-0.4462891,0.1686182,0.07509923,0.1368854,14.84603,5.799154,-159.7792,15.55683,6.073889,-163.243,-0.1601563,0.2316895,1.088867,0.8457253,-0.1035802,0.1371985,11.38881,8.008865,-13.66621,11.88805,8.186656,-14.50274,Unknown
-0.05371094,0.1184082,-0.4614258,-0.1825268,-0.1997099,0.1216183,14.83242,5.808893,-159.8671,14.29978,6.432875,-164.2632,-0.1523438,0.2241211,1.103516,0.7846565,-0.2715191,0.1677328,11.40008,7.998793,-13.66637,11.37543,7.704823,-13.79739,Unknown
-0.05688477,0.1225586,-0.4453125,0.5350306,0.02929771,-0.1837251,14.84903,5.833572,-159.9349,15.26971,7.021297,-163.1212,-0.1638184,0.2255859,1.087891,0.2503054,-0.2409847,-0.01547329,11.40751,8.003027,-13.68075,11.58783,8.387647,-14.37381,Unknown
-0.04833984,0.1169434,-0.4492188,-0.2588627,0.01403052,-0.168458,14.83848,5.836011,-160.024,14.5115,5.945229,-164.268,-0.1599121,0.2268066,1.098877,-0.1619084,0.06435877,0.2593359,11.40786,8.006135,-13.68678,11.54373,8.111125,-14.17323,Unknown
-0.05175781,0.1213379,-0.4575195,-0.01458788,0.1819695,0.06054974,14.83676,5.846773,-160.101,14.76335,6.240322,-163.9162,-0.1616211,0.2243652,1.092041,-0.6351909,0.1864962,0.03032825,11.40013,8.013728,-13.69679,11.48838,8.248759,-14.20923,Unknown
-0.0480957,0.1149902,-0.4504395,0.1075497,0.09036642,0.0147481,14.82647,5.849298,-160.1894,14.24322,5.906642,-164.5324,-0.1599121,0.2226563,1.099121,-0.131374,0.2475649,0.09139694,11.39691,8.0194,-13.7016,11.33561,8.115353,-14.00437,Unknown
-0.05493164,0.1220703,-0.4458008,-0.3199313,-0.2149771,0.07581687,14.82932,5.864703,-160.2502,15.20391,6.777541,-163.2866,-0.1606445,0.2307129,1.088135,0.3266413,0.1101603,-0.01547329,11.4107,8.024991,-13.71752,11.8462,8.217971,-14.48623,Unknown
-0.04638672,0.1191406,-0.4536133,0.1533511,0.04456491,0.3353589,14.82785,5.861034,-160.3255,14.64318,5.648521,-164.2593,-0.1530762,0.2246094,1.097168,0.7235878,-0.2867863,0.0,11.42235,8.01594,-13.72145,11.46155,7.783218,-13.91428,Unknown
-0.0546875,0.1203613,-0.451416,-0.2588627,0.1972366,0.1216183,14.824,5.880243,-160.3907,14.82591,6.676493,-163.6767,-0.1589355,0.2265625,1.092041,0.5251145,-0.2562519,0.3356718,11.43366,8.014062,-13.7265,11.60184,8.110347,-14.22081,Unknown
-0.04980469,0.1186523,-0.4553223,0.01594663,-0.3065802,0.0,14.8182,5.879276,-160.4673,14.52294,6.042173,-164.2189,-0.1550293,0.2258301,1.080566,0.5403817,0.07962596,0.1066641,11.44616,8.014755,-13.735,11.68813,7.994121,-14.22475,Unknown
-0.05004883,0.1220703,-0.4553223,0.0006792545,-0.1539084,0.1521528,14.82029,5.880636,-160.5325,14.92204,6.060404,-163.8408,-0.1635742,0.2250977,1.091553,-0.7725954,0.3849695,0.1219313,11.43642,8.027109,-13.74453,11.52687,8.349487,-14.30104,Unknown
-0.04833984,0.1184082,-0.451416,0.0006792545,0.1361679,-0.06158781,14.81625,5.883297,-160.6064,14.61783,5.913655,-164.1815,-0.1606445,0.2214355,1.106934,-0.5130534,0.4002366,0.2135344,11.42411,8.034433,-13.74414,11.19806,8.099168,-13.88202,Unknown
-0.04931641,0.1206055,-0.4528809,0.06174803,-0.1081069,0.1368854,14.81734,5.884288,-160.6714,14.82843,6.006982,-163.9489,-0.1640625,0.2268066,1.088135,-0.3451145,0.2322977,0.03032825,11.42381,8.044858,-13.75738,11.64596,8.396337,-14.42662,Unknown
-0.04882813,0.1220703,-0.4519043,-0.3046641,0.1209008,-0.0005190372,14.81717,5.88748,-160.7336,15.03271,5.955047,-163.7785,-0.1647949,0.2280273,1.091309,-0.07030535,0.07962596,0.1677328,11.42777,8.053296,-13.76889,11.67342,8.408257,-14.45626,Unknown
-0.05395508,0.1228027,-0.4560547,0.6113663,0.1209008,-0.1837251,14.82983,5.90197,-160.794,14.97101,6.517173,-163.6105,-0.1535645,0.2299805,1.099854,0.5861833,-0.2562519,0.06086259,11.44241,8.043857,-13.77483,11.70012,7.782221,-14.1134,Unknown
-0.05151367,0.1240234,-0.4523926,0.1075497,-0.031771,-0.04632068,14.83945,5.908834,-160.848,15.23712,6.266956,-163.4661,-0.157959,0.2246094,1.096924,0.0976336,-0.1646488,0.1371985,11.44404,8.04132,-13.77853,11.45708,8.029992,-14.05396,Unknown
-0.04833984,0.123291,-0.4460449,0.1075497,0.1972366,0.091084,14.85156,5.912824,-160.899,15.36562,5.963344,-163.4641,-0.1594238,0.2294922,1.088867,-0.1466411,0.04909158,0.0,11.4486,8.044275,-13.79082,11.77958,8.15301,-14.39304,Unknown
-0.05126953,0.1213379,-0.4519043,0.2602212,-0.031771,0.1368854,14.85712,5.919161,-160.954,14.93812,6.253023,-163.7492,-0.157959,0.2255859,1.090332,-0.4977863,0.07962596,0.2288015,11.44375,8.046051,-13.79514,11.57187,8.074542,-14.17502,Unknown
-0.04589844,0.1164551,-0.453125,0.04648089,0.1667023,0.1216183,14.84752,5.91529,-161.0243,14.34298,5.603069,-164.5574,-0.1599121,0.2277832,1.089111,-0.8489313,0.3697023,0.1982672,11.43621,8.054134,-13.80301,11.69106,8.178459,-14.33458,Unknown
-0.05249023,0.1193848,-0.4492188,-0.09092379,-0.07757253,-0.07685494,14.84497,5.924704,-161.0811,14.7868,6.442995,-163.8112,-0.159668,0.2336426,1.092773,-0.4061831,0.3849695,0.2746031,11.44043,8.061342,-13.81329,11.94539,8.131569,-14.5186,Unknown
-0.04980469,0.1259766,-0.4545898,0.06174803,-0.123374,0.1674199,14.857,5.924936,-161.1252,15.40144,6.026989,-163.4063,-0.1623535,0.2282715,1.094238,0.647252,-0.179916,-0.01547329,11.45432,8.062753,-13.82443,11.65952,8.264106,-14.35903,Unknown
-0.04858398,0.125,-0.4443359,-0.3199313,-0.291313,0.1368854,14.86763,5.922326,-161.1647,15.62375,6.008544,-163.2051,-0.1645508,0.2319336,1.0896,0.7693894,-0.07304579,0.1219313,11.47426,8.068472,-13.8387,11.88583,8.402414,-14.62744,Unknown
-0.04907227,0.1188965,-0.4501953,0.1380839,-0.123374,0.2132213,14.86639,5.922509,-161.2196,14.7107,6.016123,-164.0548,-0.1586914,0.2277832,1.086182,0.9373282,-0.08831299,0.1219313,11.4921,8.068643,-13.84699,11.72291,8.137554,-14.33701,Unknown
-0.04638672,0.1223145,-0.4484863,0.1686182,0.04456491,-0.0310533,14.8751,5.918682,-161.2705,15.17791,5.698399,-163.739,-0.151123,0.2297363,1.092529,0.7846565,-0.05777865,0.2593359,11.50911,8.060598,-13.84879,11.76624,7.70891,-14.12767,Unknown
-0.05419922,0.1220703,-0.4487305,0.0,-0.1997099,0.06054974,14.87987,5.930327,-161.3127,15.11342,6.647716,-163.4247,-0.1589355,0.2255859,1.08667,0.08236647,0.07962596,0.06086259,11.51229,8.06355,-13.85589,11.60758,8.149693,-14.24866,Unknown
-0.05371094,0.1259766,-0.4499512,0.1380839,0.1667023,0.04528236,14.89516,5.945482,-161.3471,15.53617,6.557382,-163.0717,-0.15625,0.2375488,1.091553,-0.4367175,-0.1493817,0.2898702,11.51835,8.059184,-13.86623,12.15736,7.962353,-14.60008,Unknown
-0.05273438,0.1208496,-0.449707,-0.2283282,-0.2760458,0.2284887,14.89121,5.949841,-161.3885,14.94394,6.460995,-163.6588,-0.1608887,0.2290039,1.082031,-0.222977,0.3697023,0.09139694,11.51965,8.071506,-13.87698,11.82362,8.276708,-14.50194,Unknown
-0.04345703,0.1164551,-0.4553223,0.6877022,-0.001236677,0.04528236,14.88918,5.936483,-161.4546,14.28441,5.282885,-164.7308,-0.1601563,0.2329102,1.092773,0.03656495,-0.02724427,0.0,11.52796,8.072819,-13.88949,11.90828,8.157203,-14.50248,Unknown
-0.04907227,0.1210938,-0.4453125,-0.6863437,0.04456491,0.350626,14.88314,5.939848,-161.493,15.12525,6.069791,-163.6478,-0.1669922,0.2233887,1.083008,0.0,0.430771,0.1066641,11.52784,8.089869,-13.89885,11.5223,8.587571,-14.44156,Unknown
-0.046875,0.123291,-0.4487305,0.7182367,0.5178473,0.06054974,14.90102,5.943194,-161.5347,15.28396,5.751918,-163.6197,-0.1567383,0.223877,1.089844,-0.9252671,0.3697023,0.0,11.51445,8.093519,-13.90242,11.49322,8.018807,-14.07729,Unknown
-0.05053711,0.1181641,-0.4399414,-0.1519923,-0.3523817,0.04528236,14.89957,5.945761,-161.5776,14.94046,6.330529,-163.7156,-0.1625977,0.2253418,1.107178,-0.3145801,0.5681756,0.01506107,11.50725,8.103783,-13.90593,11.38529,8.189067,-14.08907,Unknown
-0.05541992,0.1247559,-0.4475098,0.2602212,0.5331145,0.0147481,14.9147,5.970738,-161.6066,15.46488,6.802775,-163.0358,-0.1547852,0.2263184,1.087158,0.5251145,-0.2409847,0.1371985,11.51773,8.096869,-13.9089,11.64537,7.935198,-14.15509,Unknown
-0.05151367,0.1225586,-0.4516602,-0.09092379,-0.1997099,0.1368854,14.91684,5.974017,-161.6444,15.0884,6.281464,-163.5984,-0.157959,0.2224121,1.091553,0.38771,-0.05777865,0.04559542,11.5211,8.095492,-13.91069,11.40119,8.070555,-14.03174,Unknown
-0.04760742,0.1218262,-0.4570313,0.01594663,-0.0470382,0.3200917,14.91571,5.968796,-161.6874,14.84894,5.747586,-164.0294,-0.1625977,0.2285156,1.080078,0.3266413,-0.1188473,0.04559542,11.53181,8.099404,-13.92293,11.81674,8.37841,-14.55627,Unknown
-0.0480957,0.1213379,-0.4533691,0.06174803,-0.06230533,0.259023,14.91638,5.965528,-161.7286,14.90338,5.851151,-163.9392,-0.1569824,0.2246094,1.092285,-0.5893893,0.4765725,0.2288015,11.52261,8.104684,-13.92278,11.50489,8.013088,-14.0836,Unknown
-0.0480957,0.1223145,-0.4431152,0.2449541,-0.031771,0.1063511,14.92856,5.965209,-161.762,15.34542,5.97296,-163.4793,-0.1572266,0.2248535,1.098145,-0.742061,0.171229,0.2440687,11.51041,8.104796,-13.9213,11.45809,7.984478,-14.02812,Unknown
-0.05126953,0.1240234,-0.4558105,0.4281602,0.02929771,-0.1989923,14.93847,5.970193,-161.8014,15.13036,6.194292,-163.5942,-0.1584473,0.2231445,1.088623,-0.9405342,0.171229,0.1677328,11.49663,8.107345,-13.9228,11.46639,8.11475,-14.11157,Unknown
-0.05200195,0.1228027,-0.4460449,-0.01458788,0.1972366,0.1063511,14.94537,5.981954,-161.8309,15.29432,6.413265,-163.3543,-0.1662598,0.2282715,1.094482,-0.4977863,0.2017633,0.1982672,11.4924,8.11733,-13.93079,11.6511,8.458315,-14.46802,Unknown
-0.04907227,0.1196289,-0.4475098,-0.09092379,-0.1997099,0.03001523,14.94275,5.980323,-161.8715,14.88122,6.047158,-163.884,-0.1665039,0.2253418,1.100098,-0.009236574,0.2170305,0.3662061,11.4914,8.126855,-13.93257,11.44932,8.434081,-14.28883,Unknown
-0.0612793,0.1235352,-0.4492188,0.1075497,-0.001236677,0.2132213,14.95031,6.010561,-161.8896,15.24174,7.493112,-162.9348,-0.1408691,0.2351074,1.088135,0.7693894,0.03382444,0.2135344,11.51477,8.109052,-13.93353,12.09425,7.211839,-14.13759,Unknown
-0.05029297,0.1208496,-0.4570313,0.1380839,-0.3218473,0.1368854,14.94786,6.007071,-161.9302,14.72634,6.072646,-164.0179,-0.1599121,0.2312012,1.0896,0.906794,-0.2867863,0.06086259,11.53493,8.106052,-13.9433,11.8565,8.169894,-14.46676,Unknown
-0.05151367,0.1201172,-0.4501953,-0.1672597,0.1361679,0.1521528,14.94354,6.014976,-161.9657,14.84659,6.308863,-163.8113,-0.1630859,0.2270508,1.084717,0.3266413,-0.01197708,0.09139694,11.54261,8.111197,-13.95222,11.69459,8.371537,-14.4517,Unknown
-0.05004883,0.1196289,-0.4526367,0.07701516,-0.031771,0.091084,14.94018,6.016245,-162.0053,14.71862,6.101813,-164.0135,-0.1604004,0.2287598,1.088135,-0.4977863,0.04909158,0.01506107,11.53942,8.113867,-13.96095,11.74908,8.208588,-14.40027,Unknown
-0.05175781,0.1191406,-0.4504395,-0.2283282,0.227771,0.0147481,14.93225,6.026267,-162.0433,14.72276,6.338719,-163.9135,-0.1643066,0.2253418,1.102539,0.0,0.339168,0.2746031,11.5372,8.123045,-13.96133,11.42844,8.306905,-14.19499,Unknown
-0.05322266,0.1228027,-0.4550781,0.1838853,0.227771,0.1368854,14.9362,6.03771,-162.0727,15.00395,6.442203,-163.6112,-0.1611328,0.2263184,1.094727,-0.3145801,0.3086336,0.1371985,11.53333,8.128863,-13.96502,11.55936,8.202232,-14.2399,Unknown
-0.05395508,0.1274414,-0.4592285,0.1686182,0.05983204,0.1979542,14.94814,6.047017,-162.093,15.40907,6.459076,-163.2294,-0.1538086,0.2263184,1.094238,0.2045038,-0.07304579,0.1066641,11.53717,8.121962,-13.96495,11.57489,7.837451,-14.04005,Unknown
-0.05078125,0.1196289,-0.4494629,0.04648089,-0.001236677,-0.0310533,14.94614,6.050677,-162.129,14.81422,6.23093,-163.8729,-0.1582031,0.2275391,1.091309,0.2808397,-0.1951832,0.2593359,11.54373,8.118196,-13.96681,11.65902,8.077169,-14.24877,Unknown
-0.05029297,0.1210938,-0.4492188,-0.07565641,0.09036642,0.07581687,14.94605,6.054384,-162.1599,14.99692,6.169597,-163.728,-0.1589355,0.2258301,1.089844,0.1739695,0.003290057,0.2440687,11.54716,8.118419,-13.96827,11.58757,8.126884,-14.21871,Unknown
-0.05078125,0.1191406,-0.4379883,0.01594663,-0.1386412,0.07581687,14.94977,6.058929,-162.1861,15.12067,6.383524,-163.5273,-0.1530762,0.2231445,1.086182,-0.131374,0.03382444,0.3662061,11.54427,8.113745,-13.96331,11.49873,7.85986,-13.98943,Unknown
-0.04785156,0.1103516,-0.4570313,0.3670917,0.2430381,-0.04632068,14.92624,6.057549,-162.2482,13.50334,5.811332,-165.2554,-0.1606445,0.2277832,1.094482,-0.6809924,-0.01197708,0.0,11.53608,8.114841,-13.9698,11.63534,8.177292,-14.28783,Unknown
-0.04931641,0.125,-0.4519043,-0.3199313,0.1514351,0.3658931,14.93051,6.058711,-162.2666,15.3749,6.004327,-163.4398,-0.1650391,0.2275391,1.082031,-0.8641985,0.3544351,0.0,11.52752,8.127542,-13.98165,11.74364,8.489433,-14.56243,Unknown
-0.06103516,0.1193848,-0.4472656,0.1380839,0.1209008,-0.0310533,14.93021,6.089533,-162.288,14.81386,7.510944,-163.3122,-0.1535645,0.229248,1.087891,-0.02450383,0.2017633,0.0,11.53234,8.125241,-13.98666,11.78615,7.864192,-14.23217,Unknown
-0.04956055,0.1254883,-0.4506836,0.0922823,-0.2607787,0.0147481,14.94237,6.084853,-162.3087,15.47057,6.047219,-163.3339,-0.1523438,0.2302246,1.087646,0.5556489,-0.2257175,0.07612977,11.54664,8.115473,-13.99065,11.83925,7.802709,-14.24199,Unknown
-0.05371094,0.1196289,-0.4528809,-0.1214581,-0.07757253,0.1368854,14.9357,6.092842,-162.3375,14.69826,6.541275,-163.8514,-0.1623535,0.2297363,1.082031,0.8457253,-0.3173206,0.06086259,11.5653,8.115496,-14.00141,11.85808,8.349876,-14.5735,Unknown
-0.04663086,0.121582,-0.4536133,0.04648089,0.1819695,0.1216183,14.93626,6.08707,-162.3687,14.92919,5.670535,-163.983,-0.157959,0.2258301,1.085205,0.2808397,-0.05777865,0.1524656,11.57085,8.114541,-14.00412,11.63619,8.110268,-14.24919,Unknown
-0.0456543,0.1193848,-0.4489746,0.1533511,0.01403052,0.1521528,14.93614,6.077785,-162.4012,14.81766,5.612486,-164.1091,-0.1652832,0.2260742,1.095459,-0.6046565,0.09489316,0.0,11.56122,8.121757,-14.01085,11.53367,8.405567,-14.34032,Unknown
-0.04516602,0.1166992,-0.4506836,-0.2130611,0.1667023,0.1674199,14.92345,6.069343,-162.4405,14.4479,5.541322,-164.4824,-0.1589355,0.2270508,1.091797,-0.9099999,0.4002366,0.0,11.55008,8.127039,-14.0155,11.62864,8.111349,-14.24358,Unknown
-0.05151367,0.1162109,-0.4418945,-0.2283282,-0.031771,-0.01578617,14.91441,6.076138,-162.471,14.63938,6.432431,-163.9514,-0.1618652,0.2282715,1.09082,-0.574122,0.07962596,0.2135344,11.54454,8.130948,-14.01982,11.69502,8.263988,-14.38822,Unknown
-0.04882813,0.121582,-0.451416,0.2907557,0.1209008,0.1216183,14.92021,6.075644,-162.4961,14.99057,5.962617,-163.815,-0.1640625,0.2304688,1.097412,0.2350382,0.01855725,0.3356718,11.55178,8.135077,-14.0236,11.73366,8.323764,-14.45545,Unknown
-0.04882813,0.1218262,-0.4553223,-0.01458788,-0.06230533,0.1979542,14.91954,6.071504,-162.5216,14.89762,5.914436,-163.9203,-0.1557617,0.2250977,1.094727,0.5709161,-0.1341145,0.1371985,11.55927,8.129086,-14.02188,11.50646,7.93409,-14.03886,Unknown
-0.04907227,0.1210938,-0.4511719,-0.1214581,-0.291313,0.3964274,14.91817,6.065728,-162.5424,14.93987,5.99683,-163.849,-0.1518555,0.2275391,1.087402,0.3571756,-0.1188473,0.0,11.56749,8.120427,-14.02386,11.70819,7.783484,-14.1209,Unknown
-0.046875,0.1203613,-0.4475098,0.1228168,0.1514351,-0.01578617,14.921,6.062009,-162.5697,14.97569,5.775915,-163.9,-0.1601563,0.2268066,1.090576,-0.1466411,-0.07304579,0.2593359,11.56667,8.120653,-14.0255,11.62705,8.18182,-14.28366,Unknown
-0.05078125,0.1206055,-0.4396973,-0.04512215,0.3041069,0.259023,14.92676,6.072345,-162.583,15.24198,6.355272,-163.4262,-0.1638184,0.2275391,1.093018,-0.6809924,0.1864962,0.1524656,11.55799,8.127932,-14.03049,11.63327,8.347525,-14.38703,Unknown
-0.04980469,0.1228027,-0.4414063,0.1228168,0.09036642,0.04528236,14.9391,6.076304,-162.5965,15.45366,6.203889,-163.2893,-0.1557617,0.2246094,1.100586,0.0,0.2780993,0.1066641,11.55531,8.127356,-14.02726,11.42382,7.894742,-13.94737,Unknown
-0.05224609,0.1228027,-0.4482422,-0.02985501,0.1056336,-0.1226563,14.94434,6.084611,-162.6148,15.22288,6.413994,-163.4202,-0.1577148,0.2270508,1.093994,-0.7573281,0.2933664,0.09139694,11.54524,8.129812,-14.02901,11.60818,8.034574,-14.18176,Unknown
-0.05078125,0.1218262,-0.4523926,-0.04512215,0.1972366,0.442229,14.94447,6.089346,-162.6311,14.98199,6.186086,-163.7353,-0.1560059,0.2277832,1.092529,0.4182443,0.09489316,0.0,11.55331,8.127671,-14.03207,11.66197,7.957664,-14.1819,Unknown
-0.05053711,0.109375,-0.4536133,0.3365571,-0.001236677,0.3353589,14.92005,6.091169,-162.676,13.47606,6.181394,-165.1249,-0.1677246,0.2287598,1.099121,0.998397,-0.347855,0.1371985,11.56944,8.129945,-14.03883,11.62625,8.496993,-14.47103,Unknown
-0.04711914,0.1210938,-0.4477539,0.1533511,-0.01650381,-0.07685494,14.92499,6.085113,-162.7,15.05412,5.800492,-163.8173,-0.1572266,0.2280273,1.087646,0.5556489,-0.2715191,0.3051374,11.58067,8.124411,-14.03931,11.72226,8.052806,-14.28714,Unknown
-0.04956055,0.1257324,-0.4462891,-0.02985501,0.1209008,0.1368854,14.9389,6.08721,-162.707,15.64264,6.101144,-163.1523,-0.1604004,0.2331543,1.08667,-0.299313,0.2322977,0.06086259,11.58433,8.129585,-14.04957,11.98367,8.212376,-14.59724,Unknown
-0.05102539,0.1228027,-0.4484863,-0.01458788,0.2583054,0.1368854,14.9443,6.094507,-162.7206,15.21957,6.262193,-163.4843,-0.1416016,0.2268066,1.101074,-0.9405342,0.262832,0.3814733,11.56975,8.114439,-14.03596,11.54686,7.17909,-13.64927,Unknown
-0.05517578,0.1162109,-0.4604492,0.9930458,-0.1691756,0.1674199,14.94138,6.102676,-162.7515,14.06823,6.627307,-164.3902,-0.1337891,0.1896973,1.093506,0.3113741,3.560542,-0.2292137,11.53834,8.141965,-13.99831,9.770077,6.873741,-11.98489,Unknown
-0.04663086,0.1213379,-0.4584961,-0.381,0.0,-0.168458,14.93196,6.092927,-162.7823,14.75038,5.615232,-164.1712,-0.1748047,0.2404785,1.070068,4.067099,-1.248618,0.4730763,11.61746,8.141888,-14.02193,12.50532,9.055818,-15.52697,Unknown
-0.06079102,0.1147461,-0.4560547,-1.800848,0.0,0.7628398,14.88692,6.118383,-162.7976,14.00389,7.365705,-164.1065,-0.1374512,0.1882324,1.073242,1.441145,-1.88984,0.0,11.60367,8.095061,-13.98654,9.868741,7.18963,-12.25265,Unknown
-0.04223633,0.1218262,-0.4560547,3.771672,-0.0470382,-0.7638779,14.93884,6.097628,-162.8364,14.89534,5.112925,-164.2128,-0.1762695,0.2329102,1.094482,0.5861833,0.1406947,0.0,11.61694,8.11413,-14.00566,11.86508,8.951987,-14.94269,Unknown
-0.05566406,0.1271973,-0.4404297,-2.915351,0.4567786,0.9613131,14.91697,6.120853,-162.8156,15.98824,6.923159,-162.5027,-0.1567383,0.2302246,1.093018,-1.597023,-0.5005267,0.0,11.59668,8.104242,-14.01146,11.7774,7.987628,-14.29546,Unknown
-0.05712891,0.119873,-0.4648438,0.5502977,-0.2760458,-0.168458,14.91385,6.130111,-162.8429,14.35678,6.786613,-164.0571,-0.1618652,0.2272949,1.098389,-3.352748,0.0,-0.763565,11.54686,8.106389,-14.02754,11.56994,8.211589,-14.25416,Unknown
-0.04418945,0.1228027,-0.4553223,0.7335038,0.0,0.06054974,14.92689,6.114572,-162.8653,15.02644,5.353141,-164.0058,-0.1560059,0.2302246,1.104004,-2.085573,-0.5921298,-0.1528779,11.5186,8.093076,-14.03201,11.66674,7.875929,-14.13886,Unknown
-0.05175781,0.1259766,-0.451416,0.5960991,0.2125039,0.1063511,14.94645,6.121236,-162.8707,15.49621,6.302023,-163.2112,-0.1533203,0.2236328,1.076416,-0.131374,-0.5005267,0.7784199,11.51887,8.08313,-14.02346,11.62256,7.939151,-14.13837,Unknown
-0.04760742,0.119873,-0.4489746,0.0,0.1209008,0.2742901,14.94491,6.117577,-162.8887,14.86923,5.849389,-163.9718,-0.1750488,0.2312012,1.091309,0.2045038,0.1254275,-0.07654199,11.5278,8.101673,-14.04174,11.81493,8.918118,-14.88129,Unknown
-0.0456543,0.1174316,-0.4538574,0.9319771,0.0,-0.1531909,14.94845,6.106469,-162.9229,14.43685,5.562193,-164.485,-0.1628418,0.2248535,1.096191,0.9525955,-0.2715191,0.5494123,11.54064,8.101242,-14.03707,11.46939,8.279702,-14.21216,Unknown
-0.046875,0.123291,-0.4523926,0.3060229,-0.902,-0.0005190372,14.95972,6.078186,-162.9394,15.16722,5.708875,-163.7452,-0.1623535,0.2241211,1.097168,0.0,0.5681756,-0.1376107,11.5383,8.11701,-14.04257,11.42404,8.24933,-14.15684,Unknown
-0.05200195,0.121582,-0.4628906,1.115183,0.3346412,-0.2905953,14.96949,6.085566,-162.966,14.62874,6.201215,-164.0567,-0.1599121,0.2321777,1.087158,-0.3756489,0.5223741,-0.1986794,11.54063,8.126063,-14.05539,11.93057,8.185732,-14.53758,Unknown
-0.05639648,0.1274414,-0.4475098,3.573198,-0.031771,0.6254351,15.03467,6.101634,-162.9521,15.77733,6.910765,-162.7025,-0.1567383,0.230957,1.096436,0.0,0.0,-0.1070763,11.54539,8.122803,-14.0614,11.77874,7.96303,-14.28244,Unknown
-0.04736328,0.1210938,-0.4458008,-0.1367252,-0.001236677,0.3048244,15.03428,6.096662,-162.9634,15.11554,5.853966,-163.7396,-0.1630859,0.2346191,1.090088,-0.650458,0.4460382,0.1219313,11.54525,8.133325,-14.07214,12.01666,8.321012,-14.68787,Unknown
-0.05200195,0.1174316,-0.4494629,0.5655649,0.5025801,0.1674199,15.0329,6.109859,-162.9827,14.54951,6.387122,-164.0531,-0.1564941,0.2182617,1.090332,-0.6657251,-0.3325878,0.5188779,11.52872,8.125989,-14.05982,11.2079,8.01101,-13.83748,Unknown
-0.04736328,0.1188965,-0.4521484,-0.09092379,0.2583054,0.4116948,15.02412,6.106901,-163.0013,14.65619,5.78476,-164.1955,-0.1608887,0.2280273,1.095947,0.0,-0.3936565,-0.2292137,11.53079,8.121645,-14.06749,11.63228,8.178842,-14.28622,Unknown
-0.05151367,0.1191406,-0.4494629,0.4739618,-0.2302443,-0.1989923,15.02568,6.107814,-163.0221,14.75382,6.321767,-163.8918,-0.1601563,0.2241211,1.089844,0.7846565,0.4918396,0.3051374,11.54172,8.130261,-14.06535,11.50042,8.190969,-14.18473,Unknown
-0.05151367,0.1235352,-0.4465332,0.04648089,0.1361679,-0.2905953,15.03319,6.114549,-163.0322,15.36725,6.344489,-163.3142,-0.1872559,0.2265625,1.092529,-0.1924427,0.0,0.2898702,11.53909,8.158195,-14.08095,11.55179,9.52694,-15.05813,Unknown
-0.0625,0.1171875,-0.4492188,0.7640381,0.0,-0.428,15.03351,6.145605,-163.0484,14.48728,7.667347,-163.5296,-0.1560059,0.2294922,1.094727,0.8151909,-0.3936565,0.4578092,11.55478,8.148046,-14.07708,11.72458,7.940103,-14.22402,Unknown
-0.05224609,0.1220703,-0.4489746,-0.01458788,0.2888396,0.04528236,15.0349,6.154795,-163.0573,15.11302,6.40697,-163.5248,-0.152832,0.2321777,1.094482,0.6319848,-0.9432748,0.1066641,11.56966,8.127711,-14.07907,11.86506,7.778399,-14.25006,Unknown
-0.05004883,0.1235352,-0.4526367,0.3670917,-0.1081069,0.07581687,15.04314,6.151884,-163.0669,15.17738,6.088733,-163.5918,-0.1591797,0.2268066,1.087402,0.998397,-0.439458,0.1982672,11.58616,8.121798,-14.08049,11.66083,8.155044,-14.29583,Unknown
-0.05029297,0.119873,-0.4475098,-0.4573359,-0.09283972,0.2437558,15.03368,6.151394,-163.078,14.90598,6.195591,-163.8021,-0.1589355,0.2248535,1.097168,-0.1771755,0.06435877,0.1982672,11.58114,8.121846,-14.07774,11.46537,8.076931,-14.08841,Unknown
-0.05297852,0.1174316,-0.46875,0.8556412,0.1361679,-0.4127328,15.02516,6.155498,-163.1152,13.97885,6.256514,-164.6325,-0.1662598,0.2426758,1.073486,-0.1466411,0.0,0.07612977,11.59922,8.131219,-14.10155,12.59308,8.590508,-15.32451,Unknown
-0.04907227,0.1206055,-0.4553223,-0.8848166,0.02929771,0.4116948,15.00673,6.151773,-163.1276,14.75409,5.947731,-164.0413,-0.1564941,0.2275391,1.09082,-0.742061,0.0,0.6104809,11.58966,8.128483,-14.09469,11.6665,7.994432,-14.20692,Unknown
-0.04858398,0.1191406,-0.4609375,0.4586947,0.746855,-0.428,15.0012,6.155521,-163.159,14.41582,5.826792,-164.4035,-0.1474609,0.2260742,1.093262,0.02129769,0.3544351,0.1677328,11.58979,8.121265,-14.08786,11.58144,7.524473,-13.86841,Unknown
-0.05004883,0.1257324,-0.4453125,0.2449541,-0.6729923,0.2284887,15.01824,6.145981,-163.1544,15.67306,6.173211,-163.0963,-0.1623535,0.2277832,1.091064,-0.3451145,-0.179916,0.3051374,11.58627,8.121946,-14.08921,11.66746,8.287552,-14.37947,Unknown
-0.05419922,0.1208496,-0.4472656,-0.4420686,0.8537251,-0.01578617,15.01212,6.168222,-163.1616,15.01524,6.67236,-163.5046,-0.1577148,0.2272949,1.086914,0.0976336,-0.179916,0.5494123,11.58973,8.118713,-14.08549,11.69242,8.083708,-14.28031,Unknown
-0.05102539,0.1230469,-0.4440918,0.2907557,-0.7035267,-0.0310533,15.02395,6.160884,-163.1649,15.39033,6.318429,-163.3032,-0.1628418,0.2304688,1.092529,-0.6809924,0.1559618,0.1371985,11.58363,8.124583,-14.09142,11.78539,8.297556,-14.48262,Unknown
-0.05102539,0.114502,-0.4528809,0.3060229,0.8231909,0.1979542,15.01004,6.174443,-163.1893,14.10312,6.23378,-164.528,-0.1633301,0.2285156,1.091064,-0.1771755,0.01855725,-0.1528779,11.5834,8.129076,-14.10057,11.70246,8.335598,-14.43678,Unknown
-0.0456543,0.1188965,-0.4489746,-0.1825268,-0.6729923,0.2895572,15.00235,6.153341,-163.2045,14.75971,5.613989,-164.163,-0.1552734,0.2226563,1.090088,0.8304581,-0.3325878,0.1219313,11.59258,8.120502,-14.09643,11.43186,7.944868,-13.98325,Unknown
-0.05200195,0.1162109,-0.4543457,0.0006792545,0.1514351,-0.04632068,14.98747,6.1589,-163.2279,14.25806,6.327389,-164.3462,-0.1616211,0.2229004,1.100342,-0.009236574,0.2475649,0.07612977,11.58727,8.125327,-14.09442,11.33325,8.191938,-14.04817,Unknown
-0.04541016,0.1201172,-0.454834,0.229687,0.1667023,-0.0310533,14.98579,6.148609,-163.2485,14.72351,5.513651,-164.2339,-0.1601563,0.2358398,1.080078,0.4335115,-0.1951832,0.2593359,11.60608,8.12462,-14.10418,12.18824,8.243021,-14.78566,Unknown
-0.05126953,0.1201172,-0.447998,-0.4726033,-0.4134504,0.1979542,14.97791,6.146118,-163.2558,14.91614,6.307708,-163.7474,-0.1572266,0.2263184,1.107422,0.7541222,-0.1188473,0.1371985,11.61308,8.118878,-14.09969,11.43857,7.919043,-13.97375,Unknown
-0.05297852,0.1206055,-0.4558105,0.5197632,0.3957099,-0.0005190372,14.98051,6.157233,-163.2683,14.72579,6.411006,-163.8808,-0.1525879,0.2277832,1.099609,0.3571756,-0.3631221,0.183,11.61797,8.105924,-14.09501,11.59519,7.738004,-14.00024,Unknown
-0.04736328,0.1230469,-0.4519043,0.1533511,0.05983204,0.04528236,14.98605,6.150399,-163.277,15.15239,5.774491,-163.7348,-0.1618652,0.2297363,1.087646,-0.9099999,0.6292443,0.1219313,11.60914,8.118129,-14.10119,11.80063,8.284548,-14.48754,Unknown
-0.04858398,0.1174316,-0.4470215,-0.3657329,0.2125039,0.1674199,14.97369,6.150529,-163.2916,14.63646,6.000735,-164.1299,-0.159668,0.2299805,1.081055,-0.6657251,0.5071069,0.1524656,11.60487,8.127626,-14.10731,11.88469,8.220287,-14.51953,Unknown
-0.05126953,0.1386719,-0.4506836,0.9319771,-0.2302443,-0.1837251,15.0279,6.148241,-163.2652,16.99946,6.205332,-161.838,-0.152832,0.220459,1.088623,-0.390916,-1.737168,0.6715496,11.59382,8.096229,-14.09215,11.33996,7.834536,-13.84277,Unknown
-0.05029297,0.1166992,-0.454834,-0.2283282,0.319374,-0.0005190372,15.01012,6.152238,-163.2878,14.30669,6.113365,-164.3903,-0.1625977,0.2297363,1.085205,0.0,-1.553962,0.8700229,11.59844,8.078244,-14.08831,11.82474,8.339177,-14.53966,Unknown
-0.0534668,0.1252441,-0.465332,-0.3046641,-0.2149771,0.182687,15.00484,6.152656,-163.2931,14.97014,6.331175,-163.6879,-0.1567383,0.2307129,1.089844,0.738855,-0.8211374,0.5799466,11.61402,8.064787,-14.08513,11.8344,8.008892,-14.3553,Unknown
-0.0324707,0.1201172,-0.4416504,-0.1367252,0.2430381,0.182687,15.00639,6.114098,-163.31,15.17585,4.058006,-164.2656,-0.1652832,0.2207031,1.091797,-0.9099999,-0.9890764,0.8547558,11.59531,8.058725,-14.07517,11.30274,8.440248,-14.17363,Unknown
-0.05419922,0.1210938,-0.442627,-0.07565641,0.5331145,-0.01578617,15.00899,6.134371,-163.3103,15.1924,6.735927,-163.3148,-0.1435547,0.2294922,1.090332,-0.6809924,0.06435877,0.534145,11.58914,8.045325,-14.06467,11.78723,7.341459,-13.94272,Unknown
-0.05126953,0.1257324,-0.4492188,0.580832,-0.5355878,-0.2753282,15.02816,6.129251,-163.3118,15.5405,6.272011,-163.1817,-0.1582031,0.2319336,1.08667,-1.948168,0.0,0.4120076,11.56724,8.046483,-14.06704,11.92609,8.103218,-14.48614,Unknown
-0.05175781,0.125,-0.4560547,-0.5184045,0.0,0.4574962,15.02467,6.131593,-163.3084,15.23455,6.246356,-163.4766,-0.171875,0.2275391,1.093994,-2.345115,0.59871,0.3814733,11.53364,8.069244,-14.07228,11.61091,8.744474,-14.6095,Unknown
-0.05322266,0.1179199,-0.4465332,0.32129,-0.5050534,0.04528236,15.02245,6.133507,-163.3184,14.69344,6.573781,-163.8421,-0.151123,0.2250977,1.099121,-0.9252671,0.6445115,0.3814733,11.51965,8.070131,-14.06274,11.46901,7.671492,-13.85662,Unknown
-0.05322266,0.1201172,-0.4558105,0.6571679,-0.123374,-0.1531909,15.02502,6.137863,-163.3327,14.66788,6.441991,-163.9212,-0.1584473,0.2312012,1.088135,0.5403817,-0.179916,0.2898702,11.53468,8.068211,-14.06611,11.8739,8.106341,-14.44441,Unknown
-0.04980469,0.1223145,-0.442627,-0.7626796,-0.06230533,0.259023,15.02041,6.137988,-163.33,15.35519,6.18987,-163.3866,-0.1655273,0.2319336,1.102539,0.0,-0.9280076,0.1524656,11.53902,8.060364,-14.07236,11.75173,8.357949,-14.4906,Unknown
-0.04541016,0.119873,-0.4470215,0.5655649,0.05983204,0.1216183,15.02708,6.128183,-163.3416,14.93783,5.603769,-163.9995,-0.1582031,0.2192383,1.0896,0.0,-0.3936565,0.0,11.53347,8.055392,-14.06961,11.26155,8.101121,-13.93516,Unknown
-0.04956055,0.1157227,-0.4558105,-0.02985501,-0.3371145,0.1063511,15.00943,6.121315,-163.3645,14.16536,6.016033,-164.5606,-0.1496582,0.2229004,1.089844,0.38771,0.1406947,0.1219313,11.53721,8.04946,-14.06333,11.4544,7.662323,-13.83916,Unknown
-0.05053711,0.1254883,-0.4423828,0.5044961,0.1972366,0.182687,15.03145,6.127223,-163.3545,15.7395,6.271766,-162.9962,-0.1599121,0.2277832,1.098389,-0.6046565,0.4002366,0.2440687,11.52952,8.056617,-14.06285,11.597,8.113126,-14.21843,Unknown
-0.05664063,0.1191406,-0.4606934,-0.6252747,-0.1539084,0.2895572,15.01016,6.138327,-163.3638,14.39583,6.788008,-164.021,-0.1655273,0.2270508,1.092773,-0.574122,0.2322977,0.01506107,11.52322,8.067389,-14.06978,11.60884,8.435882,-14.41998,Unknown
-0.0456543,0.1213379,-0.4501953,0.5197632,0.1361679,0.0147481,15.01781,6.129409,-163.375,15.0106,5.59234,-163.9352,-0.1496582,0.2253418,1.095459,0.6167176,0.04909158,-0.0002061129,11.53222,8.059198,-14.06581,11.5198,7.621761,-13.87106,Unknown
-0.0546875,0.1218262,-0.4536133,0.4281602,-0.2302443,-0.2295268,15.02234,6.136261,-163.3828,14.92986,6.641257,-163.5963,-0.1555176,0.2265625,1.095947,0.9373282,-0.1188473,0.0,11.5467,8.054496,-14.06602,11.56737,7.911389,-14.07636,Unknown
-0.05053711,0.1257324,-0.4550781,-0.3504658,-0.1386412,0.04528236,15.02384,6.133693,-163.3829,15.35492,6.109741,-163.418,-0.1594238,0.2341309,1.093262,-0.131374,0.09489316,0.1219313,11.55314,8.057104,-14.07342,11.96492,8.115148,-14.52544,Unknown
-0.05664063,0.1252441,-0.4587402,0.1228168,0.227771,0.2132213,15.02839,6.150218,-163.3785,15.16083,6.792529,-163.3197,-0.1630859,0.234375,1.0979,0.0,-0.1341145,0.3051374,11.56054,8.059302,-14.07902,11.92335,8.265552,-14.57803,Unknown
-0.06152344,0.1240234,-0.456543,0.3823588,-0.031771,0.2284887,15.03443,6.174967,-163.3704,15.06814,7.409515,-163.1303,-0.1555176,0.2248535,1.084717,-0.742061,0.04909158,0.2135344,11.55106,8.058618,-14.07744,11.5958,7.991361,-14.14635,Unknown
-0.0534668,0.1162109,-0.4504395,0.3823588,0.04456491,0.0147481,15.02676,6.183254,-163.3857,14.36988,6.556559,-164.1459,-0.15625,0.222168,1.093262,-0.009236574,-0.02724427,0.3814733,11.5474,8.056502,-14.06933,11.37446,7.972882,-13.95215,Unknown
-0.04541016,0.1240234,-0.4550781,0.1838853,-0.06230533,0.2437558,15.03238,6.168656,-163.3907,15.17286,5.499153,-163.8159,-0.1645508,0.2272949,1.090576,0.1892367,0.06435877,0.1066641,11.55212,8.064366,-14.07496,11.64475,8.402417,-14.42927,Unknown
-0.05395508,0.1228027,-0.4545898,-0.197794,0.227771,0.2895572,15.02916,6.179363,-163.3898,15.01644,6.536578,-163.5606,-0.1638184,0.2233887,1.081787,0.7235878,-0.3936565,-0.06127481,11.56251,8.066007,-14.08163,11.53959,8.435712,-14.36334,Unknown
-0.05639648,0.1142578,-0.449707,0.2602212,-0.031771,0.1521528,15.01538,6.19391,-163.4034,14.14927,6.93005,-164.1806,-0.1484375,0.2229004,1.087891,0.0,-0.4547252,0.1219313,11.56077,8.050273,-14.07479,11.47573,7.613502,-13.82936,Unknown
-0.05541992,0.1208496,-0.4521484,0.06174803,-0.031771,0.1979542,15.01314,6.204628,-163.4047,14.85793,6.75315,-163.6144,-0.1462402,0.2255859,1.091309,0.2503054,-0.01197708,0.2593359,11.56481,8.038616,-14.06626,11.57853,7.476209,-13.83908,Unknown
-0.05224609,0.1186523,-0.453125,0.2907557,0.3041069,-0.1531909,15.00878,6.212296,-163.4195,14.58119,6.364525,-164.0334,-0.1608887,0.2290039,1.091064,-0.6199236,0.1101603,0.1066641,11.55901,8.043703,-14.07111,11.73048,8.211983,-14.38687,Unknown
-0.04907227,0.1228027,-0.4499512,-0.2283282,0.02929771,0.2895572,15.00907,6.208575,-163.4196,15.17982,6.006171,-163.6215,-0.1582031,0.223877,1.09668,-0.9558016,0.2933664,0.2746031,11.54317,8.047754,-14.06661,11.42278,8.044977,-14.03445,Unknown
-0.04736328,0.1149902,-0.4606934,0.3976259,-0.1539084,-0.0005190372,14.99361,6.196068,-163.4491,13.9442,5.69632,-164.8933,-0.1611328,0.2302246,1.096191,-0.1161069,0.2933664,0.2440687,11.54537,8.054833,-14.06925,11.73842,8.186116,-14.37827,Unknown
-0.0534668,0.1186523,-0.4511719,0.2907557,0.1361679,0.04528236,14.99074,6.20491,-163.4576,14.63643,6.538109,-163.9096,-0.1577148,0.2229004,1.093506,0.6014504,0.6139771,0.01506107,11.55143,8.063641,-14.06805,11.40645,8.043913,-14.02035,Unknown
-0.04541016,0.1191406,-0.4470215,-0.3962674,-0.3065802,0.1674199,14.97901,6.186022,-163.4663,14.8506,5.606047,-164.0806,-0.1564941,0.2236328,1.085449,0.0,-0.1951832,0.0,11.55092,8.058719,-14.06899,11.5257,8.03752,-14.11513,Unknown
-0.05249023,0.1174316,-0.4592285,0.2449541,-0.07757253,-0.06158781,14.96789,6.187618,-163.4849,14.25501,6.319054,-164.3525,-0.1552734,0.2424316,1.100098,0.4029771,-0.08831299,0.3356718,11.57162,8.053294,-14.07631,12.30956,7.848073,-14.66534,Unknown
-0.05151367,0.1196289,-0.4494629,-0.4420686,-0.1386412,0.182687,14.95783,6.188094,-163.4891,14.81163,6.320077,-163.8391,-0.1530762,0.2336426,1.094482,-0.1466411,0.171229,0.2288015,11.57664,8.050685,-14.07754,11.93743,7.788576,-14.31684,Unknown
-0.05883789,0.1203613,-0.4545898,0.0006792545,0.05983204,0.091084,14.95294,6.207788,-163.4896,14.71253,7.131752,-163.5791,-0.1589355,0.2329102,1.095215,0.0,0.2170305,-0.07654199,11.5828,8.054225,-14.08579,11.88486,8.078819,-14.43767,Unknown
-0.05395508,0.121582,-0.4526367,0.3365571,0.1514351,-0.1531909,14.95784,6.217347,-163.4947,14.93428,6.56704,-163.6235,-0.1550293,0.2243652,1.100342,-0.4977863,0.3239008,0.0,11.57164,8.055421,-14.08247,11.41517,7.860073,-13.92005,Unknown
-0.04931641,0.1196289,-0.4487305,-0.197794,0.04456491,0.0147481,14.95281,6.214846,-163.5029,14.84215,6.0617,-163.9146,-0.1711426,0.2197266,1.090332,-0.222977,0.06435877,0.1066641,11.56234,8.070147,-14.08595,11.25952,8.747518,-14.32916,Unknown
-0.04638672,0.1235352,-0.4528809,0.1991527,-0.2455115,0.1521528,14.96032,6.199808,-163.5057,15.182,5.643394,-163.7553,-0.1594238,0.229248,1.105957,-0.2382443,0.1864962,0.09139694,11.55948,8.072169,-14.08628,11.59415,8.034203,-14.16991,Unknown
-0.05004883,0.1208496,-0.4567871,0.1380839,0.1667023,0.091084,14.95784,6.19919,-163.5147,14.73459,6.046382,-164.0207,-0.1552734,0.2255859,1.089355,0.4182443,-0.1493817,0.1677328,11.56615,8.067445,-14.08432,11.58567,7.945765,-14.11148,Unknown
-0.05078125,0.1206055,-0.4489746,0.2449541,-0.09283972,0.1063511,14.96118,6.198518,-163.5178,14.94509,6.233848,-163.7504,-0.08349609,0.1914063,1.085205,0.4640458,0.2933664,-0.06127481,11.54113,7.99707,-14.02138,9.973948,4.333069,-10.89224,Unknown
-0.04785156,0.1206055,-0.4492188,0.07701516,0.02929771,-0.1073892,14.96204,6.192455,-163.5268,14.94753,5.873837,-163.8893,-0.1574707,0.2336426,1.07959,-0.1619084,0.0,0.03032825,11.54967,7.999398,-14.03304,12.08742,8.113487,-14.62698,Unknown
-0.04931641,0.1247559,-0.4575195,0.0,0.7773893,0.1979542,14.96618,6.198776,-163.5266,15.16875,5.937074,-163.6583,-0.1503906,0.2294922,1.087646,0.6319848,0.1864962,0.0,11.56408,7.99625,-14.03555,11.80546,7.70492,-14.15853,Unknown
-0.04907227,0.1210938,-0.4458008,0.04648089,-0.6271908,-0.3211298,14.96973,6.186853,-163.534,15.10963,6.063646,-163.6647,-0.161377,0.232666,1.092285,-0.5130534,0.5071069,-0.1070763,11.56324,8.008226,-14.04708,11.89934,8.222366,-14.53291,Unknown
-0.04980469,0.1235352,-0.4567871,-0.3657329,0.0,0.3811603,14.96592,6.183283,-163.5326,15.04816,6.008345,-163.7436,-0.1506348,0.2229004,1.092773,-0.390916,0.7055801,0.0,11.5547,8.012277,-14.04274,11.42371,7.692112,-13.83045,Unknown
-0.03344727,0.1254883,-0.4499512,0.5502977,-0.2760458,0.04528236,14.98501,6.137742,-163.5393,15.54262,4.095547,-163.9003,-0.15625,0.2219238,1.0896,0.2655725,0.04909158,0.2440687,11.55523,8.012677,-14.03829,11.39873,7.998625,-13.98732,Unknown
-0.05126953,0.1206055,-0.4499512,0.01594663,0.07509923,-0.0310533,14.9838,6.141704,-163.5442,14.91276,6.28067,-163.7615,-0.1550293,0.223877,1.091553,0.8304581,0.1864962,0.0,11.5659,8.013579,-14.03768,11.47851,7.920728,-14.00788,Unknown
-0.03271484,0.1208496,-0.4494629,0.1380839,-0.1386412,0.1674199,14.98638,6.097246,-163.5596,15.0116,4.020712,-164.4346,-0.1540527,0.2243652,1.102295,0.7235878,0.03382444,0.3204046,11.57316,8.009766,-14.0296,11.39721,7.798049,-13.8692,Unknown
-0.05126953,0.1228027,-0.4465332,-0.2130611,-0.06230533,0.4880307,14.98915,6.100731,-163.5493,15.28132,6.317298,-163.4049,-0.1650391,0.2285156,1.095947,0.7083206,-0.2257175,-0.3666183,11.58512,8.013975,-14.04288,11.65026,8.386129,-14.42404,Unknown
-0.04980469,0.1281738,-0.4511719,-0.1061909,0.3804427,0.1674199,15.00328,6.105164,-163.537,15.76839,6.061391,-163.0496,-0.1542969,0.2302246,1.096191,-0.2687786,-0.4089237,0.3356718,11.5847,8.004951,-14.04118,11.74845,7.843243,-14.18864,Unknown
-0.04858398,0.123291,-0.4438477,0.1838853,0.02929771,0.04528236,15.01464,6.103904,-163.5331,15.43635,6.020589,-163.3761,-0.1582031,0.2236328,1.081055,-0.6962595,0.1559618,0.2440687,11.57413,8.010251,-14.04116,11.56782,8.155376,-14.21918,Unknown
-0.05126953,0.1191406,-0.4516602,-0.1061909,0.1667023,0.1979542,15.00652,6.10955,-163.5391,14.68689,6.26366,-163.9775,-0.152832,0.2199707,1.092285,-0.6199236,0.1254275,0.2440687,11.55911,8.008096,-14.03231,11.27924,7.810277,-13.77829,Unknown
-0.04858398,0.1152344,-0.4550781,0.4128931,-0.2607787,-0.09212208,14.99471,6.101954,-163.5623,14.13262,5.908689,-164.6342,-0.1569824,0.2316895,1.101318,-0.4519846,0.7666489,-0.01547329,11.55703,8.017267,-14.03704,11.76478,7.940792,-14.25802,Unknown
-0.05151367,0.1218262,-0.4475098,0.06174803,-0.031771,-0.1226563,14.99845,6.106174,-163.5636,15.13336,6.337848,-163.534,-0.1286621,0.2185059,1.081055,0.9525955,0.03382444,0.2593359,11.5678,7.990529,-14.01624,11.34884,6.653838,-13.20065,Unknown
-0.05395508,0.1240234,-0.4611816,-0.02985501,-0.001236677,0.1063511,14.99717,6.112951,-163.564,14.95479,6.44589,-163.6551,-0.1555176,0.2277832,1.092041,0.647252,0.0,0.2898702,11.57868,7.989447,-14.01543,11.66765,7.936431,-14.17439,Unknown
-0.05175781,0.1245117,-0.4536133,-0.4573359,0.3804427,0.091084,14.9956,6.121866,-163.5603,15.25468,6.279073,-163.4449,-0.159668,0.21875,1.092041,-0.390916,-0.5768626,0.4578092,11.56558,7.984347,-14.00695,11.21104,8.158484,-13.92822,Unknown
-0.04907227,0.112793,-0.4492188,0.0006792545,0.01403052,0.1979542,14.97599,6.120594,-163.5799,14.01478,6.047946,-164.6866,-0.1621094,0.230957,1.101074,-0.8489313,-0.08831299,0.4120076,11.55626,7.987351,-14.00823,11.72357,8.199463,-14.3738,Unknown
-0.04956055,0.1210938,-0.4550781,0.03121376,0.4262443,-0.0005190372,14.97327,6.124606,-163.5875,14.81708,6.007884,-163.9591,-0.114502,0.173584,1.092285,-0.8489313,0.0,0.1524656,11.49228,7.945819,-13.94141,8.981427,5.910702,-10.77888,Unknown
-0.04907227,0.1213379,-0.4543457,0.5350306,0.04456491,-0.2447939,14.97907,6.121913,-163.5979,14.86988,5.957218,-163.9297,-0.1591797,0.2243652,1.101318,0.3419085,0.0,0.2440687,11.49546,7.948123,-13.93949,11.39965,8.060988,-14.02481,Unknown
-0.04931641,0.1166992,-0.4433594,-0.3657329,0.3957099,0.3048244,14.96731,6.128086,-163.6025,14.66018,6.139672,-164.0525,-0.1572266,0.2280273,1.084473,1.059466,-0.5768626,0.5494123,11.51622,7.942182,-13.93917,11.75493,8.07508,-14.32724,Unknown
-0.0625,0.1225586,-0.453125,0.4586947,-0.5661222,-0.09212208,14.9747,6.148885,-163.5941,14.99937,7.584138,-163.111,-0.1499023,0.2211914,1.087646,1.548015,0.0,0.9005573,11.53646,7.937172,-13.92319,11.39049,7.691717,-13.80245,Unknown
-0.05029297,0.121582,-0.4545898,-0.09092379,0.1361679,0.182687,14.9716,6.149918,-163.5966,14.88678,6.100454,-163.8578,-0.1535645,0.2338867,1.092529,1.517481,-0.8058702,0.1524656,11.56742,7.923102,-13.92978,11.96917,7.825952,-14.36461,Unknown
-0.04931641,0.1169434,-0.4487305,-0.1825268,-0.07757253,0.2284887,14.96013,6.147266,-163.6057,14.5232,6.070582,-164.2072,-0.157959,0.2321777,1.094971,-1.200076,0.03382444,-0.4429542,11.55666,7.925756,-13.94494,11.85252,8.032598,-14.38405,Unknown
-0.04638672,0.1157227,-0.4489746,0.4128931,0.5331145,0.1674199,14.9546,6.146423,-163.6207,14.37998,5.713268,-164.4808,-0.1674805,0.2329102,1.102295,-3.001603,0.781916,-0.336084,11.51739,7.947843,-13.96274,11.7993,8.455427,-14.58773,Unknown
-0.04638672,0.1228027,-0.451416,-0.02985501,0.1361679,0.182687,14.95791,6.138749,-163.6214,15.14235,5.662639,-163.7856,-0.1584473,0.2277832,1.10376,-2.024504,0.9040535,0.5188779,11.48819,7.962231,-13.95808,11.54532,8.002749,-14.11107,Unknown
-0.05273438,0.1235352,-0.4501953,0.5960991,-0.1997099,0.1063511,14.97242,6.141936,-163.6151,15.24514,6.444869,-163.387,-0.1611328,0.2338867,1.083984,1.212137,0.2475649,0.0,11.51719,7.971975,-13.97256,12.04737,8.26749,-14.68224,Unknown
-0.04711914,0.1191406,-0.4555664,0.03121376,-0.3523817,0.4116948,14.96503,6.128548,-163.623,14.58142,5.714252,-164.2923,-0.1477051,0.2241211,1.089355,1.68542,0.0,0.6410153,11.54043,7.963836,-13.96115,11.52308,7.565058,-13.84188,Unknown
-0.04663086,0.119873,-0.456543,0.2449541,0.3651755,-0.2905953,14.96211,6.124184,-163.6401,14.63902,5.641967,-164.2657,-0.1516113,0.2287598,1.089844,2.204504,-0.866939,0.5952138,11.57692,7.946874,-13.95586,11.74446,7.752924,-14.1341,Unknown
-0.05444336,0.1237793,-0.4458008,-0.3046641,-0.8714657,0.2284887,14.96656,6.123116,-163.6265,15.40866,6.711313,-163.126,-0.1584473,0.2275391,1.085449,-0.07030535,-0.1493817,-0.06127481,11.57872,7.948355,-13.96424,11.71858,8.130745,-14.32944,Unknown
-0.05078125,0.1203613,-0.4526367,0.07701516,0.7315878,0.182687,14.96441,6.135168,-163.6293,14.80227,6.187958,-163.9014,-0.1589355,0.2270508,1.090332,-2.345115,0.873519,-0.3208168,11.54554,7.964663,-13.97491,11.64353,8.121654,-14.26193,Unknown
-0.05859375,0.1193848,-0.4477539,0.03121376,-0.3523817,0.2132213,14.96173,6.15176,-163.6229,14.80883,7.206469,-163.4579,-0.1572266,0.2285156,1.094727,-3.108473,0.690313,-0.4582213,11.50547,7.974897,-13.98606,11.67429,8.002841,-14.21827,Unknown
-0.05200195,0.1245117,-0.4587402,0.07701516,0.746855,0.0147481,14.96549,6.16457,-163.6224,15.09322,6.243332,-163.6092,-0.1591797,0.2277832,1.098877,-2.284046,0.4918396,0.1066641,11.47364,7.98409,-13.98861,11.59316,8.073062,-14.19178,Unknown
-0.05053711,0.1259766,-0.4538574,0.0922823,-0.1081069,0.06054974,14.97598,6.16217,-163.6161,15.42225,6.124048,-163.3496,-0.1535645,0.2246094,1.099609,-0.1008396,0.06435877,0.4883435,11.47142,7.981181,-13.97962,11.43657,7.791304,-13.8981,Unknown
-0.05053711,0.1191406,-0.449707,0.4586947,0.227771,-0.07685494,14.97864,6.166493,-163.6239,14.74969,6.199744,-163.9453,-0.1540527,0.223877,1.091553,2.082366,-0.439458,0.5952138,11.50424,7.972096,-13.9703,11.4799,7.871461,-13.98046,Unknown
-0.04956055,0.1188965,-0.4541016,0.2602212,-0.123374,0.1979542,14.97443,6.162011,-163.6319,14.58937,6.027004,-164.1633,-0.1560059,0.2282715,1.094238,2.967863,-0.5463283,0.3204046,11.54825,7.964063,-13.97011,11.66889,7.945206,-14.18048,Unknown
-0.04882813,0.1225586,-0.4423828,0.3823588,-0.550855,-0.01578617,14.98848,6.152106,-163.6274,15.39594,6.071648,-163.3944,-0.1425781,0.2102051,1.084473,1.517481,-0.04251146,0.07612977,11.55716,7.951247,-13.95322,10.87835,7.354508,-13.1818,Unknown
-0.04980469,0.1203613,-0.4511719,0.2449541,0.2430381,0.350626,14.98933,6.154398,-163.6276,14.85102,6.088118,-163.8959,-0.1499023,0.2216797,1.089111,-0.9099999,-0.5310611,-0.427687,11.54065,7.93804,-13.95654,11.4003,7.681235,-13.80466,Unknown
-0.05297852,0.1203613,-0.4492188,-0.6710763,0.3804427,0.1674199,14.97769,6.166882,-163.6263,14.9006,6.498928,-163.683,-0.1687012,0.2275391,1.09668,-1.887099,0.171229,-0.1834122,11.51387,7.953107,-13.96975,11.58886,8.565573,-14.48215,Unknown
-0.05249023,0.1196289,-0.4489746,-0.1672597,-0.2149771,0.2742901,14.97231,6.169502,-163.6255,14.82331,6.445375,-163.7766,-0.1616211,0.2270508,1.098877,-2.192443,0.01855725,-0.3055496,11.48458,7.958226,-13.97917,11.55332,8.196282,-14.2314,Unknown
-0.05249023,0.1196289,-0.4526367,0.1838853,0.3499084,0.2132213,14.96977,6.179197,-163.6279,14.71013,6.397052,-163.901,-0.1552734,0.2363281,1.095459,-1.245878,0.2933664,0.03032825,11.47771,7.961142,-13.98862,12.05715,7.888406,-14.47394,Unknown
-0.05053711,0.1191406,-0.4604492,-0.1672597,-0.001236677,0.3200917,14.95639,6.176901,-163.6366,14.42406,6.065304,-164.3012,-0.1589355,0.2272949,1.115967,-0.5893893,0.690313,0.1982672,11.4675,7.970958,-13.98507,11.40029,7.944569,-13.95693,Unknown
-0.04858398,0.1220703,-0.4440918,0.3060229,0.1667023,0.1368854,14.96742,6.176248,-163.6323,15.28278,6.021755,-163.5193,-0.1599121,0.2236328,1.094482,0.1129008,0.5376411,0.4272748,11.46841,7.982373,-13.9811,11.43003,8.146537,-14.10047,Unknown
-0.05249023,0.1228027,-0.4526367,-0.1825268,-0.3523817,0.2132213,14.96705,6.175262,-163.6277,15.08283,6.385946,-163.5613,-0.1591797,0.2280273,1.097656,2.235038,-0.6226641,0.4578092,11.50425,7.975197,-13.97908,11.61755,8.081203,-14.21674,Unknown
-0.05151367,0.1184082,-0.4597168,0.1228168,0.1514351,0.182687,14.95654,6.177697,-163.6388,14.35749,6.193137,-164.3106,-0.152832,0.2312012,1.085693,2.097634,0.0,0.0,11.5411,7.972479,-13.98591,11.9077,7.839301,-14.32028,Unknown
-0.05078125,0.123291,-0.4528809,0.0006792545,-0.1386412,0.06054974,14.96019,6.175604,-163.6371,15.1385,6.174916,-163.5943,-0.1582031,0.2272949,1.086182,0.1434351,-0.08831299,-0.2139466,11.54637,7.974003,-13.9954,11.69921,8.113572,-14.30335,Unknown
-0.04711914,0.1203613,-0.4663086,-0.1825268,0.05983204,0.07581687,14.94493,6.165202,-163.6528,14.40275,5.588058,-164.5072,-0.15625,0.2312012,1.092529,-1.306947,0.3544351,-0.1070763,11.52262,7.981812,-14.00446,11.83171,7.965008,-14.32788,Unknown
-0.04663086,0.1245117,-0.4543457,0.3976259,0.319374,0.1063511,14.95685,6.159651,-163.6519,15.24909,5.652916,-163.6887,-0.157959,0.2277832,1.099121,-2.451985,0.3697023,0.2746031,11.48797,7.987815,-14.00343,11.59247,8.010274,-14.15458,Unknown
-0.05078125,0.1225586,-0.4467773,-0.1061909,-0.2302443,-0.01578617,14.96108,6.15818,-163.6483,15.2463,6.255324,-163.4622,-0.1518555,0.2233887,1.088867,-1.581756,0.9193206,0.2746031,11.46467,7.997161,-13.99797,11.48559,7.779387,-13.93215,Unknown
-0.05273438,0.1245117,-0.4550781,0.4586947,-0.09283972,-0.1073892,14.9727,6.161203,-163.646,15.20493,6.377578,-163.4516,-0.1711426,0.222168,1.096436,-0.6657251,0.430771,0.1677328,11.45202,8.017504,-14.00249,11.32113,8.697733,-14.34735,Unknown
-0.0546875,0.1203613,-0.4470215,-0.01458788,0.3804427,0.1063511,14.9723,6.178315,-163.642,14.96311,6.737151,-163.5249,-0.1572266,0.2226563,1.093262,0.2503054,0.07962596,-0.3666183,11.4546,8.018751,-14.00782,11.39741,8.021376,-13.99961,Unknown
-0.04785156,0.1210938,-0.4550781,-0.7779465,-0.3523817,0.2284887,14.95787,6.165612,-163.6465,14.82271,5.802154,-164.0333,-0.1567383,0.2272949,1.090332,0.0,-0.6379313,-0.09180916,11.45869,8.009208,-14.01321,11.65894,8.010488,-14.20993,Unknown
-0.04833984,0.1230469,-0.4494629,0.01594663,0.1972366,0.182687,14.96348,6.163645,-163.643,15.2267,5.922294,-163.6097,-0.1557617,0.2268066,1.087158,0.00603056,-0.04251146,-0.01547329,11.46297,8.008077,-14.01722,11.66838,7.983912,-14.2024,Unknown
-0.05224609,0.1191406,-0.458252,-0.3199313,0.07509923,-0.1226563,14.94918,6.167411,-163.655,14.4838,6.296737,-164.1513,-0.1567383,0.2253418,1.100098,-2.528321,-0.02724427,0.2288015,11.42582,8.006433,-14.01372,11.46356,7.945924,-14.01014,Unknown
-0.05493164,0.1191406,-0.4541016,0.0006792545,0.4262443,0.0147481,14.9422,6.183802,-163.6594,14.59927,6.673697,-163.8855,-0.1574707,0.2231445,1.096924,-2.268779,0.9651221,0.01506107,11.39165,8.020642,-14.01285,11.38502,8.007559,-13.98125,Unknown
-0.04760742,0.1206055,-0.4528809,0.2602212,0.1209008,0.3811603,14.94386,6.177908,-163.6611,14.83409,5.800264,-164.0233,-0.1572266,0.2219238,1.092041,-1.291679,0.2933664,-0.2139466,11.37229,8.02516,-14.01544,11.37301,8.030911,-13.98511,Unknown
-0.04736328,0.1201172,-0.4555664,0.3060229,0.01403052,0.2284887,14.94338,6.169369,-163.668,14.69501,5.740658,-164.1761,-0.159668,0.215332,1.080322,-0.742061,0.6750459,0.1524656,11.35703,8.039527,-14.01161,11.15449,8.247321,-13.93586,Unknown
-0.05297852,0.1181641,-0.4577637,-0.289397,-0.1539084,0.2742901,14.92818,6.171748,-163.675,14.38201,6.393896,-164.2043,-0.1552734,0.2231445,1.095703,-0.6199236,0.0,0.3051374,11.34938,8.036848,-14.00587,11.40023,7.905587,-13.93412,Unknown
-0.05712891,0.1196289,-0.4685059,0.0,-0.031771,0.07581687,14.91408,6.182609,-163.6844,14.22288,6.738131,-164.2004,-0.1518555,0.2333984,1.086914,-0.9710688,-0.02724427,0.07612977,11.34824,8.031278,-14.01202,12.00618,7.778383,-14.36928,Unknown
-0.04711914,0.1179199,-0.454834,0.1991527,0.04456491,-0.01578617,14.90793,6.174142,-163.6989,14.46033,5.726531,-164.4008,-0.1560059,0.2241211,1.092529,-1.749695,0.06435877,-0.4124198,11.32515,8.030856,-14.01851,11.4795,7.962889,-14.03324,Unknown
-0.04956055,0.1174316,-0.4523926,0.0006792545,0.7315878,0.182687,14.89916,6.183189,-163.7074,14.46872,6.052901,-164.2648,-0.1594238,0.2302246,1.092041,-1.108473,0.6139771,0.03032825,11.31693,8.042458,-14.02531,11.78344,8.129539,-14.38258,Unknown
-0.0546875,0.1174316,-0.4504395,-0.02985501,0.0,0.2895572,14.89096,6.193536,-163.7084,14.51002,6.70053,-163.9554,-0.1567383,0.2280273,1.106201,-0.8183969,0.7361145,0.3662061,11.31008,8.049721,-14.02065,11.53546,7.900642,-14.04358,Unknown
-0.04882813,0.1235352,-0.4501953,0.3518243,0.5483816,-0.1073892,14.9035,6.197148,-163.707,15.25919,5.971057,-163.5607,-0.1599121,0.2202148,1.087402,0.906794,0.171229,0.4120076,11.3238,8.055278,-14.01521,11.32975,8.201723,-14.05117,Unknown
-0.04931641,0.1225586,-0.4421387,-0.1214581,-0.4134504,0.06054974,14.91181,6.190233,-163.6993,15.40216,6.135025,-163.3641,-0.1577148,0.2336426,1.085693,0.0,-0.347855,0.4272748,11.33777,8.051056,-14.02014,12.02244,8.082823,-14.555,Unknown
-0.04711914,0.1203613,-0.456543,0.3060229,0.2430381,0.259023,14.91196,6.183984,-163.7053,14.69454,5.699168,-164.1922,-0.1489258,0.2226563,1.092773,0.6930535,-0.5768626,-0.2902825,11.34948,8.033679,-14.01947,11.41386,7.606199,-13.77328,Unknown
-0.046875,0.1223145,-0.4433594,0.07701516,-0.06230533,0.1521528,14.92169,6.175777,-163.6998,15.34172,5.819458,-163.5404,-0.1616211,0.2192383,1.137207,-2.80313,0.4460382,-0.1834122,11.29741,8.038451,-14.01116,10.80599,7.944401,-13.46919,Unknown
-0.04882813,0.1164551,-0.4440918,-0.3351984,0.04456491,0.2284887,14.91052,6.174334,-163.705,14.60969,6.070846,-164.1269,-0.1518555,0.2260742,1.099609,-3.032137,-0.5615954,-0.7788321,11.25712,8.0235,-14.0206,11.51154,7.70365,-13.91057,Unknown
-0.04858398,0.1220703,-0.4619141,0.1380839,-0.3676488,0.4574962,14.90871,6.161931,-163.707,14.7255,5.806375,-164.1225,-0.1538086,0.2297363,1.099854,1.288473,-0.5157939,-0.3818855,11.28341,8.011849,-14.02763,11.68769,7.794784,-14.11011,Unknown
-0.05029297,0.1196289,-0.4494629,-0.1061909,0.3499084,0.259023,14.9053,6.167265,-163.707,14.81593,6.171482,-163.8953,-0.1557617,0.229248,1.088623,1.135802,-0.6531985,-0.1986794,11.30994,8.001414,-14.03567,11.77537,7.970206,-14.28375,Unknown
-0.06152344,0.1193848,-0.4455566,0.4434273,-0.2607787,0.1368854,14.91101,6.192029,-163.6953,14.86507,7.597118,-163.2255,-0.1589355,0.2180176,1.091797,0.219771,0.003290057,0.5646794,11.31053,8.003922,-14.02427,11.17788,8.124318,-13.8806,Unknown
-0.05273438,0.1208496,-0.449707,-0.1825268,0.5636489,0.3811603,14.90899,6.205693,-163.689,14.94394,6.460995,-163.6588,-0.152832,0.2167969,1.096436,0.0,0.0,0.534145,11.30593,7.999573,-14.00793,11.08032,7.786472,-13.59981,Unknown
-0.05322266,0.1176758,-0.454834,0.7793052,-0.4897862,-0.168458,14.90973,6.204124,-163.7005,14.41144,6.463224,-164.1479,-0.1555176,0.2182617,1.100342,-0.05503809,0.4765725,0.5799466,11.30129,8.003977,-13.99358,11.1118,7.892872,-13.68847,Unknown
-0.05273438,0.1191406,-0.4509277,-0.2435954,-0.01650381,0.2132213,14.90204,6.208816,-163.701,14.70422,6.450836,-163.884,-0.1550293,0.2199707,1.090088,0.7999237,-0.1035802,0.2135344,11.31298,8.001101,-13.98792,11.29789,7.936298,-13.86743,Unknown
-0.06225586,0.1203613,-0.4536133,0.3976259,0.04456491,0.1368854,14.90441,6.236423,-163.6924,14.7284,7.556398,-163.3674,-0.1589355,0.2236328,1.09082,0.9220611,-0.3631221,0.04559542,11.32964,7.998204,-13.98985,11.46803,8.123191,-14.11791,Unknown
-0.0612793,0.1252441,-0.4462891,-0.5031376,0.2888396,0.1216183,14.90967,6.266558,-163.6697,15.53731,7.53091,-162.6499,-0.1594238,0.2277832,1.090332,0.9373282,0.171229,0.0,11.35041,8.003661,-13.99616,11.67933,8.145192,-14.30536,Unknown
-0.04711914,0.1203613,-0.4560547,0.1533511,-0.7645955,0.1216183,14.90777,6.244833,-163.6782,14.70944,5.704835,-164.1761,-0.1582031,0.2255859,1.086914,0.0,-0.2409847,0.04559542,11.35553,8.0025,-14.00011,11.60618,8.110914,-14.22473,Unknown
-0.05175781,0.1186523,-0.4384766,0.2907557,0.9605954,0.259023,14.91473,6.264065,-163.6718,15.04203,6.500366,-163.552,-0.1572266,0.2263184,1.099121,0.0,-0.2104504,0.09139694,11.35884,7.99887,-14.00026,11.52097,7.97569,-14.0751,Unknown
-0.05151367,0.1254883,-0.4455566,0.8861756,-0.2607787,-0.09212208,14.94207,6.261953,-163.6611,15.63056,6.350137,-163.0671,-0.1550293,0.2282715,1.08374,-0.1771755,-0.02724427,0.1066641,11.36461,7.99786,-14.00439,11.77801,7.968418,-14.28493,Unknown
-0.04858398,0.1237793,-0.4494629,0.0,0.07509923,0.5185649,14.94948,6.256809,-163.6507,15.31225,5.949533,-163.5193,-0.1508789,0.2233887,1.098389,-0.08557248,0.8124504,-0.1070763,11.3639,8.003174,-14.00165,11.3918,7.666399,-13.78907,Unknown
-0.04785156,0.1208496,-0.4543457,0.0,-0.0470382,-0.168458,14.94682,6.247213,-163.6608,14.81669,5.811598,-164.0353,-0.1540527,0.2211914,1.088379,-0.9558016,0.6445115,-0.2597481,11.35012,8.010524,-14.00364,11.37737,7.896983,-13.91015,Unknown
-0.04907227,0.1220703,-0.4453125,-0.3657329,0.05983204,0.2742901,14.94734,6.244477,-163.6544,15.24158,6.066435,-163.5406,-0.1621094,0.2143555,1.09668,0.0,0.0,0.0,11.34199,8.015404,-13.99896,10.94352,8.254491,-13.76954,Unknown
-0.04907227,0.119873,-0.4492188,-0.4268017,0.1514351,0.4727633,14.93967,6.242166,-163.6531,14.85667,6.025028,-163.9155,-0.1564941,0.2285156,1.098633,0.4640458,-0.1188473,0.0,11.35423,8.01225,-14.00197,11.63578,7.93924,-14.14943,Unknown
-0.05151367,0.1186523,-0.447998,0.5044961,-0.2607787,0.0147481,14.94312,6.240341,-163.6577,14.74134,6.342617,-163.8947,-0.1503906,0.2241211,1.0896,-0.1619084,-0.607397,-0.04600763,11.3551,7.997062,-14.00086,11.5169,7.699332,-13.9126,Unknown
-0.04663086,0.1179199,-0.4487305,0.2907557,0.6857863,-0.1226563,14.94149,6.2404,-163.6708,14.64815,5.739238,-164.2204,-0.1577148,0.2207031,1.092041,0.9678626,-0.5463283,0.3204046,11.36846,7.990235,-13.99513,11.31138,8.057255,-13.94995,Unknown
-0.05151367,0.1210938,-0.4533691,0.2602212,-0.1997099,0.1216183,14.9435,6.238144,-163.672,14.86309,6.264607,-163.814,-0.1618652,0.2263184,1.102051,0.05183208,0.8429847,0.5494123,11.3715,8.00574,-13.99109,11.48508,8.187185,-14.16987,Unknown
-0.04492188,0.1181641,-0.4516602,-0.02985501,-0.3065802,0.2742901,14.93603,6.218797,-163.6818,14.59231,5.496137,-164.3636,-0.1577148,0.2231445,1.105713,0.05183208,-0.2562519,0.1982672,11.3708,8.001046,-13.98598,11.29828,7.959358,-13.88131,Unknown
-0.04833984,0.1154785,-0.4506836,0.2602212,-0.2302443,-0.06158781,14.927,6.209674,-163.6986,14.29309,5.931882,-164.4761,-0.1569824,0.222168,1.080078,0.05183208,-0.347855,-0.1070763,11.37426,7.997959,-13.99057,11.50578,8.102356,-14.13674,Unknown
-0.04663086,0.121582,-0.4526367,-0.197794,-0.031771,0.2284887,14.92475,6.198651,-163.7003,14.95964,5.681873,-163.9502,-0.159668,0.2236328,1.097412,-0.8947329,-0.3783893,-0.04600763,11.36165,7.994711,-13.99258,11.40129,8.113695,-14.05735,Unknown
-0.05273438,0.1186523,-0.4528809,0.0,0.5025801,0.182687,14.91799,6.210601,-163.7036,14.5869,6.426726,-164.0021,-0.1547852,0.2248535,1.094727,0.738855,-0.8058702,0.3662061,11.37519,7.980678,-13.98738,11.4957,7.885317,-14.00163,Unknown
-0.05102539,0.1271973,-0.4462891,0.2907557,-0.3218473,-0.0310533,14.94011,6.207151,-163.6886,15.81033,6.274691,-162.9289,-0.1604004,0.2229004,1.092285,0.0,-0.439458,-0.01547329,11.37598,7.978358,-13.9901,11.41471,8.187702,-14.11238,Unknown
-0.0480957,0.1154785,-0.4492188,0.3823588,0.3499084,-0.0005190372,14.93369,6.206553,-163.7036,14.33806,5.920062,-164.4391,-0.154541,0.223877,1.102295,0.0976336,-0.1188473,0.06086259,11.37734,7.973506,-13.98667,11.37238,7.823128,-13.86306,Unknown
-0.046875,0.1191406,-0.4533691,-0.7321453,-0.01650381,0.04528236,14.91724,6.196388,-163.7135,14.64911,5.710444,-164.2305,-0.1618652,0.2185059,1.092529,-0.558855,0.5376411,0.3204046,11.3654,7.98726,-13.98176,11.19091,8.266061,-13.97681,Unknown
-0.05029297,0.1208496,-0.4580078,0.672435,-0.01650381,-0.09212208,14.92271,6.19343,-163.7216,14.69666,6.060631,-164.0502,-0.1516113,0.2202148,1.095703,0.5556489,-0.3631221,-0.07654199,11.37145,7.976685,-13.9775,11.25944,7.725376,-13.71258,Unknown
-0.05517578,0.1286621,-0.4509277,-0.06038928,0.3499084,0.4116948,14.93962,6.208922,-163.6962,15.81293,6.71083,-162.7526,-0.1591797,0.2294922,1.090576,0.0,-0.6226641,0.4120076,11.37927,7.970571,-13.97919,11.76238,8.12864,-14.36456,Unknown
-0.04907227,0.1225586,-0.4501953,0.1380839,-0.550855,0.1368854,14.94573,6.196726,-163.6933,15.14328,6.003982,-163.6564,-0.1599121,0.2263184,1.089844,0.7083206,-0.2409847,0.442542,11.3943,7.971126,-13.97842,11.61049,8.175427,-14.26622,Unknown
-0.05004883,0.1179199,-0.4506836,0.1228168,0.227771,0.06054974,14.94003,6.198556,-163.7013,14.5768,6.132016,-164.1328,-0.1564941,0.2260742,1.093994,1.670153,0.1254275,0.3051374,11.42056,7.972916,-13.97683,11.56136,7.974584,-14.10799,Unknown
-0.05029297,0.1228027,-0.4516602,-0.01458788,-0.6271908,-0.1531909,14.94345,6.188024,-163.7021,15.12142,6.13293,-163.6267,-0.1538086,0.2233887,1.078613,2.006031,0.6445115,0.07612977,11.45338,7.981914,-13.97846,11.58695,7.949109,-14.11448,Unknown
-0.04760742,0.1184082,-0.4519043,0.3670917,0.3651755,0.091084,14.94208,6.186008,-163.7113,14.60526,5.818826,-164.23,-0.1535645,0.2202148,1.0896,1.242672,0.9345879,0.4272748,11.46892,7.99332,-13.96945,11.31701,7.865257,-13.84163,Unknown
-0.04980469,0.1169434,-0.4562988,0.229687,-0.031771,0.1063511,14.93248,6.182532,-163.7242,14.29337,6.035579,-164.4342,-0.1525879,0.2182617,1.091797,-0.4214504,0.1101603,0.0,11.45732,7.991144,-13.96421,11.19895,7.803592,-13.70788,Unknown
-0.04492188,0.1208496,-0.449707,-0.3504658,0.09036642,0.1521528,14.92534,6.171123,-163.7263,14.97058,5.510207,-164.0027,-0.1560059,0.2282715,1.087402,-1.169542,0.003290057,-0.01547329,11.43659,7.991244,-13.9706,11.73878,7.992435,-14.26599,Unknown
-0.04638672,0.1201172,-0.4562988,-0.7474122,-0.1844428,0.3048244,14.90936,6.157283,-163.7321,14.67574,5.614674,-164.2415,-0.1599121,0.2258301,1.10083,-1.306947,-0.4699924,-0.504023,11.41817,7.986488,-13.9808,11.47591,8.098902,-14.11006,Unknown
-0.04711914,0.1186523,-0.4414063,0.03121376,0.7926565,0.3353589,14.91093,6.163504,-163.7299,14.96458,5.885736,-163.8688,-0.1608887,0.2282715,1.093994,-0.5283206,-0.5005267,-0.2902825,11.41532,7.983247,-13.99186,11.66419,8.192286,-14.32049,Unknown
-0.05395508,0.1164551,-0.4550781,-0.3199313,-0.3981832,0.2895572,14.89348,6.165817,-163.7363,14.25828,6.552336,-164.2498,-0.1464844,0.2268066,1.098389,0.647252,-0.607397,0.3662061,11.42724,7.964071,-13.9832,11.56743,7.441144,-13.81023,Unknown
-0.0456543,0.1240234,-0.4489746,0.3823588,-0.1539084,-0.1073892,14.90857,6.152197,-163.7352,15.36666,5.597956,-163.5977,-0.1572266,0.2290039,1.092285,0.1892367,0.09489316,-0.2902825,11.43595,7.966566,-13.99318,11.72345,8.019048,-14.26858,Unknown
-0.04785156,0.1213379,-0.4516602,-0.1672597,0.4109771,-0.06158781,14.90709,6.152036,-163.7392,14.95745,5.842061,-163.8921,-0.154541,0.2280273,1.079102,0.1129008,-0.08831299,0.2440687,11.44518,7.965462,-13.99613,11.81466,7.976269,-14.32007,Unknown
-0.04980469,0.1208496,-0.4484863,-0.01458788,-0.1386412,0.07581687,14.90859,6.149362,-163.7383,14.99281,6.120215,-163.7514,-0.1577148,0.2219238,1.092773,0.7541222,0.7666489,0.6715496,11.45466,7.97843,-13.98613,11.36504,8.050408,-13.99005,Unknown
-0.05078125,0.1137695,-0.4528809,-0.197794,-0.1081069,-0.01578617,14.88785,6.148916,-163.7561,14.01728,6.206546,-164.6183,-0.1496582,0.2241211,1.079102,0.0,0.4460382,0.04559542,11.45807,7.980076,-13.98618,11.62489,7.732895,-14.02226,Unknown
-0.05053711,0.1213379,-0.4453125,0.2449541,-0.1997099,-0.0005190372,14.89668,6.147976,-163.7522,15.14909,6.248703,-163.5551,-0.1533203,0.2246094,1.096191,0.479313,0.2170305,-0.168145,11.46537,7.979706,-13.98759,11.47096,7.802063,-13.93297,Unknown
-0.05322266,0.125,-0.4467773,-0.7016106,-0.031771,0.259023,14.89896,6.155437,-163.735,15.52621,6.544377,-163.0862,-0.1564941,0.2307129,1.093994,-0.5283206,-0.3936565,0.6715496,11.46414,7.973684,-13.98389,11.79201,7.96791,-14.29633,Unknown
-0.05224609,0.1237793,-0.449707,-0.3504658,0.01403052,0.182687,14.90165,6.160358,-163.7249,15.29128,6.391204,-163.366,-0.1618652,0.2233887,1.102539,-0.9252671,-0.439458,0.3356718,11.44796,7.971509,-13.98023,11.3355,8.187955,-14.04762,Unknown
-0.04248047,0.1203613,-0.4541016,-0.07565641,0.2888396,0.07581687,14.89825,6.144453,-163.7354,14.7834,5.166971,-164.3005,-0.1647949,0.223877,1.098877,-0.7878625,0.1864962,-0.04600763,11.43602,7.981831,-13.98519,11.39142,8.359671,-14.19662,Unknown
-0.04345703,0.1220703,-0.4489746,-0.1519923,0.02929771,0.1979542,14.90076,6.128744,-163.7356,15.14279,5.336006,-163.9017,-0.1550293,0.2158203,1.088623,-0.299313,-0.439458,0.4272748,11.4247,7.974347,-13.97314,11.10432,7.952185,-13.71751,Unknown
-0.05004883,0.1208496,-0.4580078,0.4281602,-0.001236677,0.2132213,14.90256,6.126781,-163.7392,14.69747,6.031428,-164.0611,-0.1499023,0.2285156,1.106445,-0.1924427,0.3697023,0.183,11.42489,7.971091,-13.96866,11.56652,7.557905,-13.87449,Unknown
-0.0480957,0.1103516,-0.4472656,-0.4573359,-0.0470382,0.2132213,14.87345,6.122757,-163.76,13.78309,5.960205,-164.9364,-0.1520996,0.2294922,1.088379,0.2503054,-0.179916,0.1371985,11.43598,7.964753,-13.97118,11.79543,7.786448,-14.19592,Unknown
-0.05444336,0.1188965,-0.4572754,-0.07565641,-0.07757253,0.1216183,14.86441,6.130625,-163.7638,14.47688,6.573143,-164.0409,-0.1555176,0.2270508,1.099121,0.7846565,-0.6684657,0.4730763,11.44999,7.953413,-13.96595,11.5597,7.889069,-14.05708,Unknown
-0.04760742,0.125,-0.4470215,0.1991527,0.1819695,0.2284887,14.88083,6.127808,-163.752,15.53892,5.856051,-163.3416,-0.1459961,0.2255859,1.087158,0.5861833,-0.6684657,0.5952138,11.46203,7.934336,-13.95554,11.62111,7.490879,-13.88328,Unknown
-0.05444336,0.1171875,-0.4528809,0.0006792545,-0.001236677,0.2132213,14.87138,6.138002,-163.7556,14.40828,6.638359,-164.0754,-0.1577148,0.2250977,1.094971,0.0,-0.866939,0.8852901,11.46281,7.924367,-13.9461,11.50121,8.030591,-14.0908,Unknown
-0.05175781,0.1203613,-0.4533691,0.1686182,0.1209008,0.06054974,14.87196,6.142951,-163.7572,14.77629,6.296568,-163.8814,-0.151123,0.2265625,1.095459,0.38771,-0.1341145,0.9768932,11.47083,7.917784,-13.93204,11.57849,7.693796,-13.96113,Unknown
-0.04980469,0.1223145,-0.4577637,-0.01458788,-0.2302443,0.2284887,14.87183,6.136716,-163.7568,14.87608,6.000462,-163.907,-0.1479492,0.229248,1.096924,0.0,0.07962596,0.6562824,11.47544,7.911017,-13.92312,11.70145,7.520925,-13.96802,Unknown
-0.05029297,0.1181641,-0.4516602,0.0006792545,-0.2302443,-0.0310533,14.8659,6.133568,-163.7647,14.575,6.148516,-164.1278,-0.1538086,0.223877,1.09082,0.0,0.2780993,0.1219313,11.47568,7.914168,-13.92251,11.4876,7.864143,-13.98264,Unknown
-0.05712891,0.1230469,-0.454834,-0.1825268,-0.07757253,0.091084,14.86641,6.148018,-163.7559,15.02529,6.913105,-163.3919,-0.1538086,0.2250977,1.093262,0.1434351,0.262832,-0.3513512,11.47876,7.916664,-13.92928,11.52395,7.845794,-14.00233,Unknown
-0.04467773,0.1147461,-0.4509277,0.2754886,0.07509923,-0.0310533,14.85733,6.135856,-163.7757,14.21012,5.484701,-164.7263,-0.1643066,0.2260742,1.096191,-1.230611,0.07962596,0.3814733,11.46165,7.926528,-13.93114,11.5278,8.351326,-14.30291,Unknown
-0.06005859,0.1218262,-0.4511719,-0.07565641,0.01403052,0.1521528,14.85876,6.159808,-163.7629,14.98457,7.323182,-163.2455,-0.15625,0.2268066,1.089844,-2.42145,0.6139771,0.7784199,11.42962,7.936821,-13.92472,11.64026,7.989946,-14.18249,Unknown
-0.05126953,0.1206055,-0.4433594,0.07701516,0.05983204,-0.07685494,14.86515,6.164831,-163.7594,15.12162,6.366951,-163.5331,-0.1477051,0.2248535,1.095703,-1.139008,-0.07304579,0.0,11.4142,7.927461,-13.92213,11.49571,7.522502,-13.79493,Unknown
-0.0534668,0.1228027,-0.4528809,0.4434273,-0.382916,-0.06158781,14.87623,6.16554,-163.7557,15.07159,6.500507,-163.5247,-0.1516113,0.222168,1.093262,0.4182443,0.07962596,0.8852901,11.4201,7.924942,-13.90624,11.38095,7.7391,-13.82168,Unknown
-0.05297852,0.1196289,-0.4628906,0.4128931,0.1056336,0.3048244,14.87238,6.170142,-163.7608,14.40033,6.32319,-164.2172,-0.1489258,0.2189941,1.08374,0.8915268,0.1864962,0.7173512,11.43034,7.92243,-13.89292,11.32047,7.67133,-13.73229,Unknown
-0.04980469,0.1225586,-0.4487305,-0.7016106,0.1514351,0.06054974,14.86837,6.171191,-163.7561,15.1873,6.111296,-163.5738,-0.1506348,0.2165527,1.083984,-0.1924427,0.1559618,0.8852901,11.42275,7.921473,-13.87559,11.19272,7.75997,-13.67727,Unknown
-0.04931641,0.1152344,-0.4536133,0.2144198,-0.3981832,0.0147481,14.85762,6.162218,-163.7719,14.17359,6.015181,-164.5533,-0.1508789,0.2165527,1.097656,-0.7267939,-0.347855,0.8547558,11.40479,7.911537,-13.85592,11.05897,7.680352,-13.52008,Unknown
-0.04907227,0.1223145,-0.4482422,-0.06038928,0.1972366,0.259023,14.86311,6.162452,-163.7649,15.17658,6.028976,-163.6157,-0.1550293,0.2287598,1.102539,0.0,-1.050145,0.5494123,11.40891,7.894651,-13.85214,11.6106,7.839134,-14.07085,Unknown
-0.0480957,0.1257324,-0.4526367,-0.1061909,0.3957099,0.182687,14.87322,6.161544,-163.7558,15.44137,5.84559,-163.4371,-0.1535645,0.2307129,1.088623,-0.1771755,-1.218084,0.07612977,11.41534,7.877188,-13.85971,11.85173,7.857078,-14.28322,Unknown
-0.05151367,0.1184082,-0.4628906,-0.07565641,-0.2302443,0.04528236,14.85993,6.158,-163.7683,14.26424,6.153596,-164.413,-0.1516113,0.2224121,1.095459,-0.1161069,-0.4852595,0.6104809,11.41275,7.866991,-13.84965,11.37129,7.724039,-13.80497,Unknown
-0.04858398,0.121582,-0.4450684,0.1686182,0.8995267,0.1063511,14.86907,6.168288,-163.7635,15.19301,6.011224,-163.6072,-0.1557617,0.223877,1.091309,0.0,0.0,0.9463588,11.41409,7.868838,-13.83937,11.47991,7.959356,-14.03153,Unknown
-0.05273438,0.1384277,-0.451416,0.1838853,-0.5203207,0.091084,14.91319,6.164729,-163.7236,16.93974,6.372761,-161.8327,-0.1672363,0.2214355,1.096924,1.425878,-0.01197708,0.0,11.43249,7.881279,-13.84651,11.28589,8.499651,-14.19643,Unknown
-0.05712891,0.1206055,-0.4489746,0.32129,-0.06230533,-0.07685494,14.91807,6.180634,-163.7191,14.9212,7.005759,-163.4461,-0.1499023,0.2246094,1.100586,2.815191,-1.126481,0.9921603,11.47386,7.859119,-13.83071,11.43189,7.601299,-13.78563,Unknown
-0.04980469,0.1196289,-0.4506836,0.580832,-0.1691756,-0.06158781,14.92384,6.176468,-163.7249,14.77971,6.096673,-163.9588,-0.1494141,0.2275391,1.078857,3.151069,-2.088313,0.6562824,11.52671,7.825583,-13.82767,11.80014,7.717242,-14.16094,Unknown
-0.05761719,0.111084,-0.4577637,-0.3199313,-0.2760458,-0.0005190372,14.89141,6.188352,-163.7446,13.53728,6.973592,-164.7108,-0.1428223,0.2255859,1.101563,0.906794,0.04909158,0.5188779,11.5391,7.81457,-13.81598,11.47992,7.238841,-13.6246,Unknown
-0.04760742,0.1245117,-0.4436035,-0.3962674,0.487313,-0.04632068,14.89962,6.189734,-163.7359,15.59335,5.899251,-163.2745,-0.1560059,0.2253418,1.082764,-1.444351,0.4765725,-0.2444809,11.51988,7.825867,-13.82735,11.63956,8.029098,-14.20463,Unknown
-0.05224609,0.1262207,-0.4477539,0.03121376,-0.1539084,-0.0005190372,14.91493,6.191834,-163.7218,15.64213,6.407911,-163.0334,-0.1484375,0.229248,1.098877,-1.627557,-0.2562519,-0.336084,11.49917,7.816237,-13.83488,11.68091,7.532757,-13.95718,Unknown
-0.05126953,0.1149902,-0.4523926,0.4128931,0.1667023,-0.1531909,14.90619,6.19581,-163.7386,14.17451,6.268074,-164.448,-0.1520996,0.2255859,1.092773,-0.5130534,-0.2715191,0.1677328,11.49276,7.811167,-13.83534,11.55561,7.762295,-13.98091,Unknown
-0.0456543,0.1208496,-0.4465332,0.5960991,-0.09283972,-0.0005190372,14.91821,6.183256,-163.7412,15.06878,5.636336,-163.8644,-0.1489258,0.2197266,1.095947,0.4029771,0.430771,0.9310915,11.49356,7.81306,-13.81724,11.23633,7.589181,-13.61496,Unknown
-0.04638672,0.1105957,-0.4562988,0.229687,0.1056336,-0.0005190372,14.89436,6.173992,-163.7718,13.55709,5.642401,-165.2739,-0.1608887,0.2226563,1.091797,2.036565,0.1864962,0.0,11.52175,7.823863,-13.82335,11.40668,8.216119,-14.12276,Unknown
-0.05224609,0.1237793,-0.4453125,-0.4726033,-0.3523817,-0.01578617,14.89819,6.174317,-163.7609,15.43307,6.449281,-163.2111,-0.1508789,0.2248535,1.080566,4.326641,-2.195183,0.0,11.58782,7.7908,-13.82825,11.64501,7.784153,-14.06826,Unknown
-0.04956055,0.1208496,-0.4462891,0.0,-0.1081069,0.06054974,14.90149,6.171605,-163.7585,15.06328,6.118171,-163.6866,-0.1464844,0.2285156,1.084229,2.769389,-1.538695,0.06086259,11.63272,7.762982,-13.83189,11.79752,7.530853,-14.05505,Unknown
-0.04882813,0.1154785,-0.4443359,0.06174803,0.3651755,-0.04632068,14.89406,6.174961,-163.7689,14.48482,6.070982,-164.2426,-0.1572266,0.2307129,1.088867,-1.535954,1.08726,0.01506107,11.61437,7.784512,-13.84266,11.84378,8.040322,-14.3812,Unknown
-0.05566406,0.1120605,-0.4470215,-0.5642061,-0.2302443,0.1063511,14.86728,6.185818,-163.7792,13.96944,6.887095,-164.3627,-0.1547852,0.2272949,1.099854,-2.497786,0.7971831,-0.0002061129,11.57667,7.797482,-13.84656,11.56548,7.847086,-14.03772,Unknown
-0.05273438,0.112793,-0.4501953,0.6877022,0.8079236,-0.01578617,14.85952,6.203627,-163.7946,13.97372,6.482416,-164.54,-0.1557617,0.2250977,1.104004,-2.009237,-0.01197708,0.3662061,11.54389,7.798774,-13.84276,11.41416,7.870895,-13.92549,Unknown
-0.04589844,0.1235352,-0.451416,0.6877022,-0.1844428,-0.2295268,14.87704,6.188865,-163.7966,15.23008,5.60112,-163.7254,-0.1530762,0.21875,1.088379,2.036565,-0.6531985,0.7478855,11.56807,7.790215,-13.83057,11.25638,7.850924,-13.78306,Unknown
-0.05151367,0.1196289,-0.4516602,-0.9764199,-0.3371145,0.2742901,14.86097,6.186294,-163.7952,14.74361,6.291582,-163.9136,-0.1623535,0.2629395,1.097656,3.777023,-0.9127405,-0.3208168,11.65516,7.785593,-13.87283,13.33137,8.185275,-15.72354,Unknown
-0.0456543,0.1228027,-0.4453125,0.672435,0.09036642,0.091084,14.88045,6.176784,-163.7901,15.34053,5.644371,-163.6057,-0.1518555,0.2314453,1.090332,1.135802,-0.02724427,0.3051374,11.67621,7.784644,-13.8758,11.87302,7.758152,-14.2454,Unknown
-0.05004883,0.1162109,-0.447998,-0.06038928,0.04456491,0.2132213,14.87107,6.177341,-163.7957,14.45591,6.171847,-164.2285,-0.1503906,0.2285156,1.086914,1.715954,0.1101603,0.2593359,11.7032,7.784794,-13.87701,11.76418,7.711212,-14.12722,Unknown
-0.04541016,0.1169434,-0.4487305,-0.3351984,-0.291313,0.07581687,14.85944,6.16137,-163.8063,14.53584,5.592922,-164.3807,-0.1499023,0.2387695,1.087402,-0.8183969,0.1864962,-0.07654199,11.70254,7.78521,-13.89129,12.27186,7.66852,-14.53474,Unknown
-0.05126953,0.1206055,-0.4511719,0.2907557,0.3499084,0.2284887,14.86402,6.168585,-163.8028,14.8747,6.264938,-163.8032,-0.1491699,0.2258301,1.104492,-2.80313,0.5681756,-0.3818855,11.65637,7.78861,-13.89445,11.4545,7.537585,-13.76867,Unknown
-0.04663086,0.1206055,-0.4445801,0.04648089,0.1209008,-0.1379237,14.8694,6.162596,-163.8045,15.09887,5.780287,-163.7829,-0.1503906,0.230957,1.098633,-2.360382,0.7513816,-0.2597481,11.62385,7.796482,-13.90204,11.76535,7.629963,-14.08274,Unknown
-0.05541992,0.1240234,-0.4467773,-0.7168779,-0.3065802,0.4269619,14.86389,6.168752,-163.7805,15.40205,6.815883,-163.0881,-0.168457,0.2263184,1.091553,-0.833664,0.0,0.1066641,11.60419,7.812416,-13.91143,11.5802,8.593179,-14.49193,Unknown
-0.04711914,0.1184082,-0.4492188,0.1686182,0.4262443,-0.01578617,14.86272,6.167056,-163.7884,14.68948,5.791532,-164.1618,-0.1469727,0.2290039,1.089355,0.0,-0.8516718,-0.09180916,11.60747,7.794909,-13.91496,11.76822,7.521329,-14.0249,Unknown
-0.04833984,0.1203613,-0.4421387,-0.1061909,-0.5813893,0.1521528,14.86675,6.155609,-163.7834,15.14229,6.022022,-163.6504,-0.1433105,0.2348633,1.084473,0.0,-0.5921298,-0.2444809,11.61767,7.777492,-13.92497,12.11759,7.359217,-14.23575,Unknown
-0.04711914,0.121582,-0.4545898,0.03121376,-0.09283972,-0.04632068,14.86782,6.145494,-163.7883,14.89731,5.71811,-163.9951,-0.1428223,0.2260742,1.08252,-0.2535114,0.8124504,-0.336084,11.61555,7.781064,-13.92893,11.69761,7.358944,-13.8757,Unknown
-0.06103516,0.1242676,-0.4543457,-0.06038928,0.05983204,0.0147481,14.87291,6.171126,-163.7734,15.16691,7.383084,-163.0531,-0.1501465,0.2329102,1.094482,-2.711527,0.0,-0.7330306,11.58148,7.778289,-13.94529,11.90528,7.642321,-14.20814,Unknown
-0.04882813,0.1242676,-0.4499512,0.1075497,0.5025801,0.182687,14.8841,6.174523,-163.7647,15.35324,5.971577,-163.4725,-0.1577148,0.229248,1.096436,-2.558855,0.0,-0.1986794,11.54609,7.783012,-13.95411,11.69257,8.01448,-14.24022,Unknown
-0.04980469,0.1223145,-0.4489746,0.4739618,-0.0470382,0.1063511,14.8964,6.172522,-163.76,15.15068,6.109063,-163.6088,-0.1687012,0.2258301,1.099609,-0.8489313,0.3697023,0.3204046,11.53219,7.803719,-13.95788,11.475,8.546601,-14.37817,Unknown
-0.05151367,0.1193848,-0.4538574,0.07701516,-0.01650381,0.0147481,14.89248,6.174128,-163.7649,14.64753,6.264155,-164.0136,-0.1489258,0.2285156,1.085938,1.715954,-0.1341145,0.2288015,11.56061,7.798674,-13.95757,11.77636,7.643492,-14.09959,Unknown
-0.0456543,0.1174316,-0.447998,0.1228168,-0.1844428,0.182687,14.88887,6.16035,-163.7725,14.61579,5.629858,-164.292,-0.1550293,0.2280273,1.092041,2.967863,-0.7600687,0.09139694,11.60955,7.789012,-13.9604,11.68052,7.911479,-14.17078,Unknown
-0.04858398,0.1286621,-0.4379883,0.2754886,0.2735725,0.259023,14.9204,6.162397,-163.7449,16.27602,6.075024,-162.5676,-0.157959,0.2265625,1.100342,1.334275,-0.3325878,0.2593359,11.62606,7.788741,-13.95945,11.51982,8.003599,-14.09042,Unknown
-0.06103516,0.1208496,-0.453125,0.5044961,-0.1386412,0.07581687,14.92552,6.185418,-163.7361,14.80558,7.415308,-163.3645,-0.159668,0.2265625,1.091797,0.5709161,-0.439458,0.534145,11.634,7.789485,-13.9573,11.60323,8.148943,-14.24463,Unknown
-0.04956055,0.1223145,-0.4509277,-0.640542,0.01403052,-0.06158781,14.91938,6.183015,-163.7361,15.08965,6.055,-163.6867,-0.1513672,0.2304688,1.09082,0.2503054,-0.347855,0.1371985,11.64139,7.783214,-13.95985,11.81999,7.731622,-14.18576,Unknown
-0.05297852,0.1188965,-0.4589844,0.3823588,0.2888396,0.1216183,14.91486,6.19083,-163.743,14.43105,6.375637,-164.1669,-0.1550293,0.2287598,1.097168,-0.6199236,-0.1951832,-0.07654199,11.63336,7.78238,-13.96444,11.6648,7.875454,-14.13698,Unknown
-0.04370117,0.1218262,-0.4516602,-0.5489388,0.3499084,0.1521528,14.90906,6.178897,-163.7461,15.02816,5.336976,-164.0099,-0.1586914,0.2236328,1.087891,-0.2077099,0.5376411,-0.2750153,11.62759,7.797267,-13.97215,11.49783,8.131557,-14.1474,Unknown
-0.04345703,0.1179199,-0.4421387,-0.01458788,-0.4439847,0.1674199,14.90796,6.157293,-163.7514,14.86495,5.425033,-164.1328,-0.1540527,0.2321777,1.079834,-0.5283206,0.1864962,0.09139694,11.6276,7.802866,-13.98074,12.01648,7.940149,-14.46882,Unknown
-0.04516602,0.1245117,-0.4443359,0.1533511,0.319374,0.1368854,14.92361,6.150646,-163.7424,15.57758,5.590197,-163.4014,-0.1567383,0.2265625,1.105713,-1.734427,0.5223741,0.5036107,11.59892,7.812608,-13.97353,11.46816,7.905986,-13.99072,Unknown
-0.05200195,0.1254883,-0.4416504,0.0006792545,-0.2607787,0.06054974,14.94031,6.153038,-163.7247,15.7583,6.461863,-162.9039,-0.1499023,0.2270508,1.085693,-1.154275,0.1254275,0.961626,11.58405,7.812134,-13.96129,11.70409,7.696713,-14.06842,Unknown
-0.04858398,0.1152344,-0.4621582,-0.3657329,-0.382916,0.4880307,14.91467,6.14083,-163.7402,13.9269,5.824097,-164.8587,-0.1516113,0.2248535,1.092041,0.906794,-0.2409847,0.7478855,11.59625,7.80722,-13.95,11.52716,7.743608,-13.94642,Unknown
-0.05273438,0.1140137,-0.4562988,-0.381,0.319374,0.259023,14.88995,6.150344,-163.754,13.9399,6.39744,-164.6078,-0.1428223,0.2485352,1.078125,2.723588,0.0,0.1677328,11.65914,7.798186,-13.96649,12.87268,7.355477,-14.88921,Unknown
-0.04833984,0.1184082,-0.4638672,-0.09092379,0.1514351,0.2895572,14.87572,6.144879,-163.7663,14.24573,5.765772,-164.5856,-0.1538086,0.2319336,1.07959,1.074733,-0.6684657,-0.1070763,11.6819,7.790991,-13.97783,12.00716,7.929781,-14.45512,Unknown
-0.04956055,0.1254883,-0.4484863,-0.1367252,-0.1691756,0.06054974,14.88704,6.140985,-163.7553,15.54184,6.074495,-163.2569,-0.1520996,0.2355957,1.094238,-1.108473,0.4918396,0.06086259,11.67273,7.797168,-13.98487,12.0383,7.738327,-14.3742,Unknown
-0.04980469,0.1154785,-0.4482422,0.0922823,0.04456491,-0.1379237,14.87789,6.141646,-163.7687,14.362,6.141273,-164.3278,-0.1469727,0.2351074,1.103027,-2.161908,0.1559618,0.1677328,11.6461,7.792013,-13.9849,11.93001,7.424794,-14.11,Unknown
