xa_S1,ya_S1,za_S1,xgb_S1,ybg_S1,zbg_S1,tilt_x_S1,tilt_y_S1,tilt_z_S1,tilt_accx_S1,tilt_accy_S1,tilt_accz_S1,xa_S2,ya_S2,za_S2,xgb_S2,ybg_S2,zbg_S2,tilt_x_S2,tilt_y_S2,tilt_z_S2,tilt_accx_S2,tilt_accy_S2,tilt_accz_S2,State_S2
-0.09521484,-0.2236328,1.146729,0.0,0.0,0.0,-0.2199656,0.09318203,-0.2393438,-10.99829,4.659106,-11.9672,0.0009765625,0.1376953,-0.4433594,0.1075497,2.838458,-0.2447939,0.6813112,0.03854577,-6.452183,17.25333,-0.1205232,-162.7462,Unknown
-0.1020508,-0.1911621,1.03125,-0.6809924,-2.286786,0.0,-0.4352794,0.16661,-0.4718946,-10.45176,5.557428,-11.8669,0.001708984,0.1462402,-0.4880371,0.0,-7.176809,0.0,1.0013,-0.07156806,-9.589494,16.68074,-0.1921918,-163.3181,Unknown
-0.1210938,-0.2111816,1.130371,1.731221,1.346802,0.4120076,-0.6115936,0.3033036,-0.6994717,-10.52344,6.011401,-12.15359,-0.002929688,0.1428223,-0.440918,0.489229,5.601817,0.03001523,1.347422,0.01945342,-12.63823,17.94782,0.3621714,-162.0483,Unknown
-0.09350586,-0.2062988,1.066406,-2.726794,2.308634,0.0,-0.8576036,0.4295803,-0.9253061,-10.90792,4.920296,-11.99121,0.003417969,0.1503906,-0.4543457,0.0,1.464412,-0.0310533,1.686759,0.03240752,-15.61954,18.31431,-0.4091859,-161.6808,Unknown
-0.1105957,-0.2233887,1.108643,1.181603,0.2170305,0.04559542,-1.049834,0.5358853,-1.159563,-11.3376,5.585325,-12.67163,0.001708984,0.1430664,-0.4570313,-0.6100078,-3.298947,0.3200917,1.991692,-0.02082438,-18.55479,17.38179,-0.2044625,-162.6169,Unknown
-0.1115723,-0.2104492,1.092773,0.4182443,-0.1493817,-0.1376107,-1.239603,0.6374761,-1.384327,-10.84568,5.725219,-12.29663,0.003417969,0.1506348,-0.4567871,0.04648089,0.6705191,0.2437558,2.317552,-0.01869423,-21.415,18.25054,-0.4071487,-161.7446,Unknown
-0.1154785,-0.2106934,1.085205,1.853359,-0.4241909,0.1524656,-1.406109,0.7377617,-1.604077,-10.92713,5.963552,-12.48391,0.002197266,0.1452637,-0.4487305,-0.5489388,0.4720459,-0.07685494,2.621886,-0.0167196,-24.22903,17.93768,-0.2669166,-162.0602,Unknown
-0.1130371,-0.2114258,1.090088,-1.429084,0.7513816,0.06086259,-1.617379,0.8503036,-1.819175,-10.91927,5.812594,-12.40375,-0.004150391,0.1499023,-0.4641113,-0.06038928,0.0,0.1216183,2.926543,-0.006633926,-26.98453,17.89916,0.4875636,-162.0938,Unknown
-0.1154785,-0.2180176,1.094971,0.2808397,0.171229,0.3051374,-1.804909,0.9539191,-2.032256,-11.20026,5.905238,-12.69751,0.004638672,0.145752,-0.4343262,0.07701516,0.578916,-0.04632068,3.24014,-0.009593451,-29.67433,18.54983,-0.5801135,-161.4404,Unknown
-0.112793,-0.220459,1.101563,0.5556489,-0.05777865,0.3051374,-1.98584,1.04866,-2.240521,-11.2599,5.733433,-12.66979,0.004882813,0.1467285,-0.4592285,0.9167099,1.067466,-0.1073892,3.543179,-0.005315524,-32.32786,17.71831,-0.5802845,-162.2715,Unknown
-0.1140137,-0.2128906,1.097412,0.3724428,-0.179916,-0.2597481,-2.159074,1.141513,-2.447745,-10.92128,5.823563,-12.4108,0.006591797,0.1420898,-0.4387207,-0.8695498,-2.398183,0.3353589,3.81841,-0.05684114,-34.9171,17.94385,-0.8189331,-162.0362,Unknown
-0.1123047,-0.2126465,1.081299,0.8457253,0.0,0.0,-2.324813,1.23506,-2.649559,-11.06767,5.818866,-12.5385,0.0002441406,0.1428223,-0.4655762,-0.3199313,-1.268412,-0.1379237,4.078422,-0.07492446,-37.47969,17.05416,-0.02872384,-162.9458,Unknown
-0.119873,-0.2224121,1.094482,0.4335115,0.2017633,-0.168145,-2.50035,1.335848,-2.859018,-11.4203,6.12617,-12.99891,0.002441406,0.1442871,-0.4543457,-0.09092379,0.578916,-0.2295268,4.347878,-0.07078454,-39.98105,17.61811,-0.2934324,-162.3793,Unknown
-0.09741211,-0.2099609,1.078369,0.738855,0.1254275,0.4120076,-2.658965,1.412316,-3.03806,-10.97418,5.067039,-12.11399,0.003662109,0.144043,-0.4628906,0.0922823,-0.001236677,-0.2295268,4.60797,-0.07804323,-42.439,17.28466,-0.4328095,-162.7096,Unknown
-0.114502,-0.220459,1.111572,0.00603056,0.9498549,-0.2750153,-2.828906,1.513425,-3.233298,-11.16038,5.769639,-12.59778,0.001220703,0.1467285,-0.4448242,0.0006792545,-0.7340611,-0.0005190372,4.88093,-0.09025944,-44.8251,18.25545,-0.1493192,-161.7439,Unknown
-0.1108398,-0.2058105,1.085205,0.00603056,-0.5005267,0.2288015,-2.985927,1.590406,-3.40839,-10.68439,5.730364,-12.1561,0.003173828,0.1484375,-0.4645996,0.04648089,-0.642458,0.03001523,5.138356,-0.105355,-47.17371,17.71806,-0.3728336,-162.2778,Unknown
-0.1149902,-0.232666,1.101074,0.1129008,0.430771,-0.1986794,-3.161925,1.681613,-3.6084,-11.86885,5.834138,-13.26293,0.003173828,0.1472168,-0.4604492,0.229687,-0.001236677,-0.07685494,5.393563,-0.1107895,-49.47667,17.72994,-0.3761692,-162.2658,Unknown
-0.1074219,-0.2016602,1.085938,0.128168,-0.179916,0.2593359,-3.306205,1.756436,-3.77006,-10.47011,5.555008,-11.88201,0.001220703,0.1496582,-0.4614258,-0.1214581,-0.2302443,0.06054974,5.643302,-0.1148419,-51.72684,17.96982,-0.1441818,-162.0296,Unknown
-0.1140137,-0.2111816,1.085449,0.1587023,0.1559618,-0.1070763,-3.456767,1.841334,-3.945584,-10.95097,5.886679,-12.46755,0.00390625,0.1501465,-0.4538574,0.489229,0.2125039,0.07581687,5.903244,-0.1189929,-53.92504,18.30477,-0.4681672,-161.6888,Unknown
-0.1081543,-0.2165527,1.094238,0.03656495,0.2017633,-0.336084,-3.609958,1.918036,-4.120756,-11.14142,5.538048,-12.47364,0.004394531,0.1452637,-0.4528809,0.229687,0.3957099,-0.1989923,6.144217,-0.1213838,-56.09363,17.7831,-0.5293879,-162.2085,Unknown
-0.1174316,-0.220459,1.07959,-0.07030535,-0.2715191,0.0,-3.768304,1.997351,-4.298886,-11.4756,6.083329,-13.02729,0.006347656,0.1530762,-0.4521484,0.3976259,0.2888396,-0.0310533,6.401217,-0.1299471,-58.19785,18.70197,-0.7618446,-161.2814,Unknown
-0.1083984,-0.2175293,1.094482,0.2045038,-0.3936565,0.03032825,-3.913687,2.062584,-4.462862,-11.18775,5.548349,-12.51999,0.007324219,0.1469727,-0.4448242,0.1991527,-0.2760458,-0.260061,6.64175,-0.14932,-60.27161,18.28156,-0.8956977,-161.6949,Unknown
-0.1159668,-0.222168,1.093994,-0.009236574,-0.8211374,0.1677328,-4.063893,2.127877,-4.629194,-11.41722,5.930763,-12.90273,0.003662109,0.1379395,-0.4443359,-0.3351984,0.0,-0.0310533,6.848905,-0.1553531,-62.32159,17.24586,-0.450977,-162.7479,Unknown
-0.1105957,-0.2163086,1.097412,0.2961069,-0.7906031,0.3967404,-4.200177,2.186634,-4.780431,-11.09571,5.646834,-12.48266,0.002441406,0.1474609,-0.4553223,-0.2130611,-0.550855,-0.2295268,7.067901,-0.1656491,-64.31936,17.94485,-0.2922681,-162.0526,Unknown
-0.112793,-0.2158203,1.085938,0.1587023,-0.08831299,0.3204046,-4.337634,2.258028,-4.933212,-11.18193,5.816909,-12.63926,0.0002441406,0.145752,-0.4541016,-0.4878702,-0.8561985,0.04528236,7.27527,-0.1755089,-66.27641,17.79495,-0.02933039,-162.205,Unknown
-0.1101074,-0.2163086,1.082764,0.3571756,0.171229,0.183,-4.470451,2.329279,-5.084556,-11.24102,5.694745,-12.63496,0.0009765625,0.1462402,-0.449707,0.2144198,-0.4287176,0.2437558,7.493196,-0.1806673,-68.187,18.01397,-0.1183216,-161.9856,Unknown
-0.1184082,-0.2172852,1.100342,-0.1619084,0.6139771,-0.1376107,-4.605582,2.412249,-5.238373,-11.10799,6.026489,-12.67428,0.0,0.1428223,-0.4443359,-0.1214581,-0.4592519,-0.0005190372,7.698043,-0.1833549,-70.06689,17.81889,-0.0,-162.1811,Unknown
-0.1103516,-0.2089844,1.086426,0.3266413,0.03382444,0.2288015,-4.725668,2.478389,-5.375914,-10.83398,5.696094,-12.27236,0.004150391,0.1501465,-0.454834,0.1380839,-0.1386412,0.091084,7.911472,-0.1916551,-71.89871,18.268,-0.4964632,-161.7248,Unknown
-0.112793,-0.2165527,1.100098,-0.1161069,0.5834427,0.01506107,-4.854453,2.55229,-5.518453,-11.07958,5.744594,-12.51394,0.004394531,0.1474609,-0.447998,0.4586947,0.05983204,-0.1989923,8.124353,-0.1976192,-73.69912,18.21842,-0.5338378,-161.7732,Unknown
-0.112793,-0.2124023,1.096191,0.3113741,-0.1493817,0.07612977,-4.970982,2.614413,-5.654446,-10.90976,5.768251,-12.37407,0.001220703,0.1479492,-0.4575195,0.1686182,-0.01650381,0.06054974,8.322574,-0.1968023,-75.4659,17.91972,-0.145454,-162.0797,Unknown
-0.1164551,-0.2143555,1.092529,0.2655725,-0.1341145,-0.03074045,-5.088709,2.679711,-5.793517,-11.0395,5.971307,-12.58689,0.003417969,0.1491699,-0.4487305,0.3060229,0.07509923,0.182687,8.528374,-0.2000449,-77.18604,18.38768,-0.4141302,-161.6073,Unknown
-0.1201172,-0.2141113,1.095947,0.03656495,-0.3783893,0.01506107,-5.206202,2.743346,-5.929952,-10.99024,6.139565,-12.62638,0.004638672,0.1477051,-0.4611816,0.3823588,-0.1691756,0.07581687,8.71859,-0.2095072,-78.88586,17.75813,-0.5488159,-162.2328,Unknown
-0.1152344,-0.2092285,1.104736,0.3419085,-0.2867863,0.2135344,-5.310408,2.801297,-6.052224,-10.66782,5.851671,-12.20052,0.007324219,0.1484375,-0.4560547,0.1380839,-0.06230533,-0.07685494,8.906787,-0.2237314,-80.54829,18.02695,-0.8749188,-161.9503,Unknown
-0.111084,-0.2202148,1.102539,-0.02450383,-0.4547252,0.09139694,-5.429357,2.851438,-6.182033,-11.23985,5.642589,-12.60986,0.002441406,0.1560059,-0.4401855,0.0006792545,-0.6577252,-0.09212208,9.118952,-0.2349157,-82.14833,19.51452,-0.2995227,-160.483,Unknown
-0.1113281,-0.215332,1.084473,0.1739695,-0.607397,0.3051374,-5.541678,2.900476,-6.305907,-11.1733,5.749775,-12.6,0.005615234,0.1474609,-0.4567871,-0.1672597,-0.9325343,-0.1379237,9.291913,-0.2573304,-83.74932,17.88996,-0.6702399,-162.0966,Unknown
-0.1035156,-0.2214355,1.107666,0.06709921,-0.4089237,0.2593359,-5.655004,2.941175,-6.424865,-11.25728,5.235993,-12.44441,0.006347656,0.1381836,-0.458252,-0.04512215,-0.810397,0.1368854,9.440989,-0.279293,-85.33638,16.7789,-0.7598151,-163.2029,Unknown
-0.1035156,-0.2141113,1.092529,0.2503054,-0.1493817,0.1371985,-5.759023,2.986398,-6.539962,-11.03994,5.312081,-12.28056,-0.0004882813,0.142334,-0.4506836,-0.4268017,-0.7340611,-0.01578617,9.596855,-0.2825945,-86.87932,17.52704,0.05919372,-162.4729,Unknown
-0.1152344,-0.2133789,1.090088,0.2808397,0.3239008,0.09139694,-5.860298,3.04957,-6.65875,-11.01544,5.922807,-12.54208,0.002685547,0.1416016,-0.4523926,-0.04512215,-0.4897862,0.182687,9.751858,-0.2906344,-88.39137,17.38014,-0.3245933,-162.6166,Unknown
-0.1108398,-0.2150879,1.095947,0.05183208,0.6139771,-0.1528779,-5.963303,3.110957,-6.776827,-11.04864,5.667641,-12.45025,0.002929688,0.1491699,-0.4624023,-0.04512215,-0.4287176,-0.04632068,9.913742,-0.2980334,-89.86657,17.87924,-0.3454781,-162.1172,Unknown
-0.1115723,-0.2143555,1.092041,-0.05503809,0.4613054,0.2440687,-6.065831,3.170021,-6.887257,-11.04924,5.725082,-12.47771,0.002197266,0.1472168,-0.4555664,0.2907557,-0.031771,0.1216183,10.0779,-0.2977989,-91.30924,17.9081,-0.2629553,-162.0898,Unknown
-0.1088867,-0.2163086,1.097656,0.1434351,0.430771,-0.1070763,-6.164305,3.224132,-6.999915,-11.095,5.558945,-12.44149,0.0002441406,0.1489258,-0.4541016,0.3518243,-0.0470382,0.06054974,10.24466,-0.2931198,-92.71902,18.15726,-0.02927027,-161.8427,Unknown
-0.1181641,-0.2163086,1.105469,0.1129008,-0.01197708,0.06086259,-6.259561,3.279243,-7.110408,-11.01009,5.98849,-12.56929,0.003662109,0.1477051,-0.458252,0.1838853,0.1209008,-0.06158781,10.39977,-0.2941959,-94.10813,17.86478,-0.4357906,-162.1295,Unknown
-0.1130371,-0.2158203,1.098633,0.08236647,-0.1493817,0.04559542,-6.354299,3.326762,-7.217598,-11.057,5.765007,-12.50345,0.0078125,0.1474609,-0.4550781,0.1075497,-0.1081069,-0.2753282,10.55239,-0.3086139,-95.47046,17.95163,-0.9356369,-162.0223,Unknown
-0.1125488,-0.2092285,1.098389,0.2503054,-0.4089237,0.0,-6.438134,3.369173,-7.317345,-10.73002,5.747879,-12.20493,0.007080078,0.1445313,-0.456543,0.03121376,-0.2302443,0.1674199,10.69309,-0.3227671,-96.80686,17.56463,-0.8470467,-162.4136,Unknown
-0.1123047,-0.2160645,1.088379,0.4182443,-0.347855,0.2593359,-6.526633,3.412261,-7.419413,-11.17054,5.779238,-12.61136,0.002685547,0.152832,-0.4567871,0.2602212,-0.001236677,0.06054974,10.85278,-0.3227176,-98.09985,18.49893,-0.3194446,-161.4981,Unknown
-0.1137695,-0.2058105,1.093994,0.06709921,-0.2104504,0.1677328,-6.607151,3.457837,-7.511354,-10.59854,5.835471,-12.13158,-0.1079102,-0.2143555,1.104736,0.3724428,-0.5615954,0.3662061,-6.688499,3.490524,-7.601225,-10.93008,5.47741,-12.25611,Unknown
0.001220703,0.1452637,-0.4484863,-0.1672597,-0.5813893,0.0147481,10.774,-1.622391,-100.5847,17.94695,-0.1483608,-162.0524,-0.1064453,-0.2124023,1.097168,0.03656495,-0.2104504,-0.06127481,-6.691051,3.058684,-7.830658,-10.90647,5.440997,-12.21827,Unknown
0.0078125,0.1425781,-0.4450684,-0.04512215,-0.3218473,-0.1073892,10.91306,-1.613829,-101.8188,17.76035,-0.9577046,-162.2121,-0.109375,-0.2175293,1.094238,0.0976336,-0.3325878,0.1677328,-6.779579,3.104605,-7.922469,-11.1892,5.599212,-12.54451,Unknown
0.003417969,0.1486816,-0.4458008,-0.02985501,-0.8409313,-0.09212208,11.063,-1.608841,-103.0155,18.44386,-0.4167155,-161.5511,-0.1130371,-0.213623,1.097412,0.2961069,-0.3325878,0.1677328,-6.856491,3.150483,-8.008641,-10.95891,5.773303,-12.42014,Unknown
0.001220703,0.1481934,-0.4543457,0.2144198,0.2125039,0.091084,11.20619,-1.576467,-104.1926,18.06465,-0.1463497,-161.9347,-0.109375,-0.217041,1.098633,0.1587023,-0.3020534,0.01506107,-6.93946,3.194598,-8.097732,-11.1216,5.578266,-12.47423,Unknown
0.003173828,0.151123,-0.449707,0.2449541,-0.06230533,-0.1989923,11.35715,-1.55352,-105.3401,18.57438,-0.3832978,-161.4214,-0.1142578,-0.2138672,1.098877,-0.02450383,-0.3325878,-0.04600763,-7.020147,3.242368,-8.18532,-10.9558,5.827537,-12.44331,Unknown
0.002685547,0.1442871,-0.4516602,0.1380839,-0.3065802,0.07581687,11.48636,-1.533447,-106.4778,17.71628,-0.324517,-162.2805,-0.1132813,-0.2121582,1.095215,0.4029771,-0.3325878,0.0,-7.091949,3.288596,-8.269323,-10.90642,5.798237,-12.38546,Unknown
0.009521484,0.1535645,-0.4501953,0.1075497,-0.3523817,0.1368854,11.63484,-1.530893,-107.5688,18.83092,-1.146747,-161.1315,-0.1096191,-0.2050781,1.095215,0.219771,-0.5768626,-0.03074045,-7.157964,3.326717,-8.344131,-10.55423,5.61864,-11.98707,Unknown
0.004394531,0.1408691,-0.4506836,-0.2741299,-0.2760458,-0.0310533,11.74524,-1.514997,-108.6706,17.35678,-0.5332236,-162.6345,-0.1088867,-0.2148438,1.092773,0.4640458,-0.4241909,0.2135344,-7.229368,3.365629,-8.422708,-11.06927,5.584111,-12.42998,Unknown
0.002441406,0.151123,-0.4433594,-0.3351984,-0.5050534,-0.01578617,11.88185,-1.498094,-109.7209,18.82187,-0.298631,-161.1756,-0.1154785,-0.2172852,1.100098,0.2655725,-0.04251146,0.01506107,-7.303145,3.415285,-8.506195,-11.1134,5.879685,-12.60815,Unknown
0.001220703,0.1430664,-0.4543457,-0.1519923,-0.5966565,0.1216183,11.99155,-1.47984,-110.7751,17.47834,-0.1468305,-162.521,-0.1149902,-0.2180176,1.108154,0.219771,-0.1035802,0.0,-7.375296,3.461728,-8.586871,-11.07222,5.813571,-12.54002,Unknown
0.0007324219,0.1433105,-0.4575195,-0.1519923,-0.642458,-0.1531909,12.09748,-1.460808,-111.8139,17.39229,-0.08752859,-162.6075,-0.1149902,-0.2128906,1.093506,-0.009236574,0.2475649,-0.0002061129,-7.447075,3.513753,-8.664673,-10.95795,5.893168,-12.47686,Unknown
0.004150391,0.1433105,-0.4445801,-0.07565641,-0.5661222,0.03001523,12.21173,-1.450096,-112.8197,17.86602,-0.5090769,-162.1262,-0.1066895,-0.2148438,1.084229,0.1892367,0.3544351,-0.1376107,-7.518465,3.558955,-8.742907,-11.15565,5.513366,-12.47523,Unknown
-0.0009765625,0.1474609,-0.454834,0.2144198,-0.2302443,0.1521528,12.32991,-1.422138,-113.8018,17.96308,0.1170217,-162.0365,-0.1147461,-0.2189941,1.102295,-0.07030535,0.430771,0.06086259,-7.592686,3.610705,-8.819988,-11.17783,5.829809,-12.64172,Unknown
0.003173828,0.1452637,-0.456543,0.01594663,-0.01650381,-0.06158781,12.43654,-1.401529,-114.7736,17.64972,-0.379557,-162.3459,-0.09790039,-0.2106934,1.095215,0.3419085,0.4918396,-0.06127481,-7.652748,3.646052,-8.884021,-10.8471,5.016546,-11.9766,Unknown
0.0002441406,0.1481934,-0.4567871,-0.07565641,-0.1844428,0.182687,12.54611,-1.376973,-115.7158,17.97438,-0.0291285,-162.0256,-0.1066895,-0.217041,1.093262,-0.009236574,0.262832,0.0,-7.723377,3.686606,-8.955816,-11.17696,5.467702,-12.4738,Unknown
0.002685547,0.1401367,-0.4504395,0.1380839,-0.2149771,0.04528236,12.64285,-1.359117,-116.6551,17.28121,-0.3261764,-162.7155,-0.1154785,-0.2089844,1.0979,0.02129769,0.2170305,0.01506107,-7.782987,3.734048,-9.021867,-10.71952,5.899209,-12.26942,Unknown
-0.0004882813,0.1491699,-0.449707,0.2144198,0.1819695,0.0147481,12.76016,-1.328079,-117.5548,18.35091,0.05904674,-161.649,-0.1149902,-0.2180176,1.105225,0.0976336,-0.1493817,-0.1070763,-7.847903,3.773737,-9.094447,-11.10053,5.828303,-12.57221,Unknown
0.001464844,0.1496582,-0.4602051,0.1380839,-0.2149771,0.03001523,12.86727,-1.308146,-118.4429,18.01439,-0.173433,-161.9847,-0.111084,-0.2111816,1.087891,0.3113741,-0.07304579,0.183,-7.904972,3.811671,-9.157292,-10.93019,5.724114,-12.37122,Unknown
0.0007324219,0.1484375,-0.4523926,0.2144198,-0.3981832,0.2132213,12.97639,-1.2896,-119.3076,18.1655,-0.08813833,-161.8343,-0.1083984,-0.2163086,1.100098,-0.07030535,-0.2409847,0.0,-7.96934,3.842344,-9.222223,-11.07169,5.52242,-12.40385,Unknown
0.01049805,0.1486816,-0.449707,0.03121376,-0.2607787,-0.09212208,13.08313,-1.293035,-120.1561,18.29021,-1.269709,-161.6626,-0.1120605,-0.2177734,1.095947,0.2503054,-0.4089237,0.1524656,-8.029911,3.874026,-9.287478,-11.18191,5.726996,-12.59705,Unknown
0.006347656,0.1499023,-0.4387207,0.04648089,-0.2455115,0.1979542,13.1994,-1.286472,-120.9724,18.86247,-0.784411,-161.12,-0.112793,-0.2155762,1.09082,0.08236647,-0.3631221,0.2135344,-8.090528,3.907052,-9.350063,-11.12136,5.79227,-12.57367,Unknown
-0.005371094,0.1445313,-0.4394531,-0.1825268,-0.550855,0.1979542,13.29681,-1.255536,-121.7857,18.20419,0.6651973,-161.7828,-0.1113281,-0.2175293,1.095947,0.1892367,-0.2562519,0.1066641,-8.149345,3.938945,-9.412886,-11.17043,5.690052,-12.56958,Unknown
0.007324219,0.1420898,-0.451416,-0.04512215,-0.7493282,-0.01578617,13.37961,-1.259174,-122.6004,17.47,-0.8866624,-162.506,-0.1169434,-0.2177734,1.092773,0.128168,-0.2562519,0.1066641,-8.208638,3.976226,-9.477977,-11.20818,5.99134,-12.74585,Unknown
0.002441406,0.1467285,-0.4455566,-0.1825268,-0.5050534,0.1368854,13.47388,-1.247378,-123.3817,18.22724,-0.2981934,-161.7701,-0.112793,-0.206543,1.097168,0.128168,-0.04251146,-0.0002061129,-8.254713,4.011456,-9.530542,-10.6066,5.76897,-12.10609,Unknown
0.0004882813,0.1430664,-0.4555664,-0.197794,-0.4897862,-0.1531909,13.55018,-1.230802,-124.1677,17.4344,-0.0585891,-162.5655,-0.1091309,-0.2138672,1.090576,0.2503054,0.171229,-0.04600763,-8.306767,4.045909,-9.588932,-11.0414,5.608282,-12.41617,Unknown
0.001220703,0.144043,-0.4594727,0.01594663,-0.4134504,-0.09212208,13.62753,-1.215169,-124.9375,17.40596,-0.1452498,-162.5934,-0.1125488,-0.2189941,1.090332,-0.07030535,0.3239008,-0.04600763,-8.367633,4.085329,-9.652336,-11.29832,5.778842,-12.7253,Unknown
0.004150391,0.1477051,-0.4536133,-0.1367252,-0.2149771,0.1674199,13.71368,-1.203995,-125.6755,18.03552,-0.4984618,-161.9571,-0.1103516,-0.2150879,1.092773,0.02129769,0.4613054,-0.1070763,-8.421569,4.123574,-9.710345,-11.0801,5.658511,-12.47412,Unknown
0.008056641,0.144043,-0.4567871,0.1838853,-0.2760458,0.2742901,13.7921,-1.203247,-126.4074,17.49956,-0.9636876,-162.4722,-0.1152344,-0.2133789,1.089844,0.05183208,0.262832,0.06086259,-8.472732,4.163448,-9.76614,-11.01782,5.924076,-12.5448,Unknown
-0.015625,0.1433105,-0.4541016,0.1686182,-0.382916,0.1368854,13.86885,-1.147223,-127.1249,17.50552,1.87939,-162.3873,-0.112793,-0.2106934,1.096191,-0.02450383,0.03382444,0.03032825,-8.520118,4.196074,-9.816348,-10.82406,5.769914,-12.29885,Unknown
0.006347656,0.1450195,-0.4616699,0.229687,-0.3676488,0.03001523,13.94359,-1.144714,-127.8329,17.43697,-0.7515288,-162.5458,-0.114502,-0.217041,1.081299,0.1434351,0.09489316,0.01506107,-8.573372,4.232094,-9.875525,-11.28825,5.927335,-12.78627,Unknown
0.0,0.1481934,-0.4511719,0.1838853,-0.3065802,-0.260061,14.03109,-1.126326,-128.5164,18.18345,-0.0,-161.8165,-0.1120605,-0.2050781,1.094238,0.2503054,-0.1493817,-0.04600763,-8.609446,4.260213,-9.919803,-10.56104,5.747867,-12.0556,Unknown
0.005615234,0.1442871,-0.4543457,0.1228168,-0.07757253,-0.0005190372,14.10449,-1.118361,-129.1935,17.61709,-0.6748693,-162.3691,-0.1162109,-0.2148438,1.091064,0.2045038,-0.1646488,-0.03074045,-8.656023,4.292071,-9.974206,-11.07861,5.966024,-12.6189,Unknown
0.001464844,0.1506348,-0.4494629,0.0922823,-0.2760458,-0.1379237,14.19441,-1.103864,-129.8412,18.52817,-0.1770531,-161.4709,-0.1184082,-0.2167969,1.095703,0.2503054,-0.1951832,0.09139694,-8.701555,4.324197,-10.02739,-11.12888,6.051368,-12.70486,Unknown
-0.0002441406,0.1437988,-0.4455566,0.04648089,-0.2302443,-0.2905953,14.2689,-1.084348,-130.4906,17.88695,0.02987745,-162.113,-0.1174316,-0.2133789,1.095703,0.1892367,-0.2867863,0.0,-8.744102,4.353885,-10.07748,-10.95872,6.00534,-12.53224,Unknown
0.003173828,0.1464844,-0.4550781,0.01594663,-0.3981832,0.04528236,14.34062,-1.076512,-131.1232,17.84236,-0.3803693,-162.1533,-0.1120605,-0.2167969,1.090576,0.2503054,-0.2715191,0.03032825,-8.789014,4.377648,-10.12773,-11.18592,5.754922,-12.61368,Unknown
0.002929688,0.1442871,-0.4570313,-0.197794,-0.642458,-0.0310533,14.40132,-1.07143,-131.7507,17.52084,-0.3502365,-162.4754,-0.1101074,-0.2199707,1.09082,0.38771,-0.5157939,0.0,-8.834435,4.395532,-10.17934,-11.34501,5.650919,-12.70811,Unknown
-0.002929688,0.1467285,-0.4460449,-0.1367252,-0.4287176,-0.1379237,14.47558,-1.048734,-132.3533,18.20849,0.3574772,-161.7878,-0.1164551,-0.2163086,1.088867,0.1587023,-0.1341145,0.1677328,-8.879042,4.42555,-10.22773,-11.17369,5.988472,-12.71392,Unknown
-0.003173828,0.140625,-0.4677734,-0.197794,-0.3981832,0.3658931,14.5178,-1.026167,-132.9661,16.7318,0.3722856,-163.2638,-0.1132813,-0.2133789,1.098877,0.1129008,0.2170305,0.0,-8.918448,4.455801,-10.27116,-10.93236,5.778546,-12.39906,Unknown
0.004150391,0.1469727,-0.465332,-0.04512215,-0.2302443,-0.06158781,14.57734,-1.018774,-133.557,17.52779,-0.4872924,-162.465,-0.1193848,-0.21875,1.095459,0.1129008,0.3849695,-0.1528779,-8.962978,4.494347,-10.3243,-11.22797,6.100136,-12.81617,Unknown
-0.01098633,0.1474609,-0.4602051,0.1380839,0.05983204,-0.0005190372,14.64306,-0.9714723,-134.1297,17.76198,1.302344,-162.1871,-0.1169434,-0.2150879,1.093506,0.05183208,0.4155039,-0.1986794,-9.004282,4.530374,-10.37313,-11.06624,5.990291,-12.61976,Unknown
0.002441406,0.1479492,-0.4628906,0.2144198,-0.1081069,0.03001523,14.70784,-0.9593889,-134.6921,17.7247,-0.2878451,-162.2728,-0.1164551,-0.2180176,1.093262,0.1129008,0.262832,-0.168145,-9.046859,4.562904,-10.42293,-11.21611,5.963707,-12.73958,Unknown
0.004394531,0.1472168,-0.4472656,0.32129,-0.2302443,0.04528236,14.78277,-0.95428,-135.233,18.21806,-0.534713,-161.7735,-0.1105957,-0.2177734,1.083252,0.2045038,0.09489316,0.0,-9.08911,4.587358,-10.4686,-11.30977,5.715889,-12.70633,Unknown
0.005371094,0.1452637,-0.4555664,0.2449541,-0.3523817,0.06054974,14.84441,-0.9532456,-135.7735,17.68445,-0.6435597,-162.3031,-0.1066895,-0.2189941,1.092285,-0.02450383,-0.08831299,0.06086259,-9.133382,4.603724,-10.50978,-11.2847,5.47051,-12.5723,Unknown
0.0009765625,0.1506348,-0.4455566,0.1991527,-0.01650381,-0.1837251,14.92403,-0.9368027,-136.2872,18.67944,-0.1189647,-161.3202,-0.1098633,-0.2150879,1.091797,0.3266413,-0.2409847,0.1066641,-9.167715,4.620876,-10.54749,-11.09015,5.638454,-12.47379,Unknown
0.004638672,0.1455078,-0.4562988,0.1838853,-0.09283972,0.04528236,14.98197,-0.9305295,-136.8068,17.68596,-0.5549117,-162.3048,-0.1191406,-0.2106934,1.101807,0.1434351,-0.1493817,0.01506107,-9.19754,4.647513,-10.58412,-10.76444,6.062523,-12.38997,Unknown
0.007080078,0.1450195,-0.4482422,0.0922823,0.1361679,-0.06158781,15.04221,-0.9271371,-137.3127,17.92583,-0.8609913,-162.0521,-0.1081543,-0.2163086,1.092285,0.219771,-0.3325878,0.07612977,-9.233326,4.660629,-10.62101,-11.14839,5.547752,-12.48433,Unknown
0.002685547,0.1496582,-0.4528809,0.1991527,-0.01650381,-0.168458,15.11001,-0.9152889,-137.8031,18.28626,-0.3225977,-161.7107,-0.1083984,-0.2197266,1.092529,0.2503054,-0.4699924,0.01506107,-9.271327,4.671621,-10.66116,-11.31735,5.555693,-12.64,Unknown
0.003417969,0.1433105,-0.4628906,0.1075497,-0.2302443,-0.1073892,15.15344,-0.9084505,-138.3045,17.20204,-0.4041376,-162.7929,-0.1115723,-0.2143555,1.090576,0.2350382,-0.439458,-0.1223435,-9.303717,4.686378,-10.69962,-11.06356,5.732438,-12.49394,Unknown
0.001464844,0.1420898,-0.4604492,-0.04512215,-0.5355878,0.1674199,15.1927,-0.9016381,-138.7929,17.1496,-0.1741721,-162.8495,-0.114502,-0.215332,1.095703,0.1892367,-0.4241909,0.03032825,-9.336053,4.703506,-10.73615,-11.05958,5.85462,-12.54838,Unknown
0.005126953,0.1416016,-0.4492188,-0.06038928,-0.5813893,0.1216183,15.23785,-0.9046247,-139.2651,17.49469,-0.6236438,-162.4935,-0.1125488,-0.2219238,1.08667,0.3266413,-0.05777865,0.04559542,-9.374184,4.724475,-10.7787,-11.48266,5.794407,-12.89757,Unknown
0.002441406,0.140625,-0.4567871,-0.2130611,-0.6577252,-0.1379237,15.27218,-0.9020542,-139.7396,17.11111,-0.2926729,-162.8862,-0.1157227,-0.2043457,1.085449,0.08236647,0.03382444,-0.0002061129,-9.397548,4.750106,-10.80729,-10.60295,5.981183,-12.20785,Unknown
0.002441406,0.1474609,-0.4455566,-0.2435954,-0.5813893,0.07581687,15.3294,-0.8985205,-140.1774,18.31217,-0.2980475,-161.6852,-0.1108398,-0.2158203,1.089844,-0.131374,0.1254275,0.0,-9.434433,4.770894,-10.84215,-11.14524,5.697271,-12.55041,Unknown
0.002685547,0.145752,-0.4567871,-0.1214581,-0.5355878,-0.04632068,15.37496,-0.8948414,-140.6205,17.69659,-0.3209099,-162.3003,-0.1186523,-0.2145996,1.088135,0.2655725,0.1254275,0.09139694,-9.46369,4.799447,-10.87796,-11.09247,6.106352,-12.69976,Unknown
-0.003662109,0.1413574,-0.4553223,-0.02985501,-0.4134504,-0.04632068,15.41196,-0.8742204,-141.0637,17.24673,0.4400939,-162.7473,-0.123291,-0.2106934,1.086426,-0.009236574,0.4002366,-0.168145,-9.49269,4.83648,-10.91615,-10.90697,6.356964,-12.6638,Unknown
-0.0002441406,0.1491699,-0.4538574,0.1228168,-0.1691756,0.182687,15.46941,-0.8586372,-141.4759,18.19421,0.02927982,-161.8058,-0.1159668,-0.2138672,1.093262,0.1587023,0.5529084,0.04559542,-9.520671,4.866741,-10.94807,-11.00836,5.943138,-12.54567,Unknown
0.002197266,0.1484375,-0.4560547,0.1075497,-0.2760458,-0.09212208,15.52218,-0.8507722,-141.8871,18.02893,-0.2624942,-161.969,-0.1086426,-0.2143555,1.090332,0.219771,0.2322977,-0.01547329,-9.548404,4.884502,-10.97793,-11.06886,5.584074,-12.42959,Unknown
0.006103516,0.1455078,-0.4541016,0.2907557,-0.031771,-0.0005190372,15.57388,-0.8491708,-142.2938,17.76552,-0.7333345,-162.2183,-0.1169434,-0.220459,1.088135,0.1587023,0.09489316,0.09139694,-9.581491,4.909302,-11.01456,-11.38939,6.012868,-12.91697,Unknown
0.003173828,0.1479492,-0.4645996,-0.1519923,-0.7035267,-0.07685494,15.61344,-0.8499881,-142.6957,17.66341,-0.3729471,-162.3324,-0.1108398,-0.2280273,1.100098,-0.1008396,0.1101603,0.3356718,-9.624404,4.925424,-11.0489,-11.65302,5.634422,-12.9783,Unknown
0.004150391,0.1418457,-0.4597168,-0.197794,-0.4134504,0.1521528,15.6412,-0.8489514,-143.0964,17.14696,-0.4942687,-162.8455,-0.1105957,-0.2143555,1.106689,0.1587023,0.2017633,-0.03074045,-9.647761,4.941949,-11.07428,-10.9089,5.60338,-12.29542,Unknown
0.002441406,0.1384277,-0.458252,-0.07565641,-0.1997099,-0.09212208,15.66343,-0.8407523,-143.4996,16.80817,-0.2922081,-163.1891,-0.1157227,-0.2080078,1.087402,-0.03977096,0.4765725,0.0,-9.670788,4.96946,-11.09974,-10.76983,5.967229,-12.34724,Unknown
0.0007324219,0.1496582,-0.4641113,-0.07565641,-0.3371145,0.07581687,15.7065,-0.830614,-143.8711,17.87251,-0.08605587,-162.1273,-0.1103516,-0.2138672,1.09375,0.219771,0.3849695,-0.03074045,-9.694326,4.988827,-11.12638,-11.00926,5.654862,-12.4091,Unknown
0.004394531,0.1513672,-0.4450684,0.01594663,-0.2607787,-0.1989923,15.76825,-0.8285469,-144.2208,18.78225,-0.5355851,-161.2095,-0.1142578,-0.2111816,1.092041,0.2350382,0.3086336,0.06086259,-9.714723,5.01089,-11.15097,-10.88691,5.865114,-12.40043,Unknown
0.006347656,0.1452637,-0.449707,0.32129,0.02929771,0.0147481,15.8156,-0.826936,-144.5778,17.89974,-0.7695355,-162.0826,-0.1181641,-0.215332,1.082764,0.2808397,0.5223741,-0.01547329,-9.739962,5.040539,-11.1838,-11.1831,6.109438,-12.78113,Unknown
0.001220703,0.1489258,-0.4509277,0.2907557,0.1056336,-0.0005190372,15.86909,-0.8117901,-144.9207,18.27654,-0.1472802,-161.7228,-0.1091309,-0.2214355,1.092773,0.02129769,-0.07304579,-0.0002061129,-9.772847,5.050457,-11.21472,-11.39989,5.590115,-12.72992,Unknown
0.004638672,0.1491699,-0.4655762,0.2144198,0.01403052,-0.04632068,15.91036,-0.8062066,-145.2675,17.76455,-0.5436165,-162.2266,-0.1054688,-0.2155762,1.099854,0.2808397,-0.1188473,-0.06127481,-9.793792,5.055101,-11.23758,-11.04025,5.375867,-12.30927,Unknown
0.01342773,0.1442871,-0.4584961,0.229687,-0.01650381,0.2132213,15.94476,-0.8223288,-145.6083,17.46157,-1.600189,-162.4605,-0.1171875,-0.222168,1.103516,0.00603056,-0.1951832,0.1219313,-9.824247,5.069999,-11.26749,-11.32105,5.943413,-12.82309,Unknown
0.004638672,0.1484375,-0.4523926,0.2907557,-0.2149771,0.1521528,15.99344,-0.8202063,-145.9304,18.16463,-0.5581922,-161.8262,-0.1147461,-0.2219238,1.106934,0.3266413,-0.4699924,0.07612977,-9.848516,5.077761,-11.29539,-11.27779,5.803539,-12.71849,Unknown
0.002685547,0.1455078,-0.4462891,0.1380839,-0.1386412,0.1521528,16.03675,-0.812396,-146.2483,18.0577,-0.3277914,-161.9391,-0.1135254,-0.2172852,1.0979,0.3419085,-0.7906031,0.01506107,-9.869256,5.080423,-11.32101,-11.13684,5.791978,-12.58732,Unknown
-0.0009765625,0.1435547,-0.4545898,-0.1519923,-0.3981832,-0.06158781,16.06429,-0.7996539,-146.5737,17.52553,0.117371,-162.4741,-0.109375,-0.2165527,1.095459,0.4029771,-0.5310611,0.1982672,-9.888513,5.082892,-11.34143,-11.12824,5.594191,-12.4875,Unknown
0.005859375,0.1462402,-0.4519043,-0.1061909,-0.550855,0.06054974,16.10006,-0.8058938,-146.8825,17.93063,-0.7067711,-162.0545,-0.1135254,-0.2126465,1.086182,0.1892367,-0.4241909,0.0,-9.908329,5.092126,-11.36485,-11.0184,5.856388,-12.51268,Unknown
0.004638672,0.144043,-0.4448242,-0.1519923,-0.6882596,-0.07685494,16.13481,-0.810587,-147.1868,17.94207,-0.5684079,-162.0483,-0.1098633,-0.2180176,1.095947,0.219771,-0.2104504,0.01506107,-9.931074,5.0997,-11.38851,-11.19632,5.61519,-12.55823,Unknown
0.006835938,0.1464844,-0.4541016,-0.2283282,-0.6729923,0.259023,16.1663,-0.8206843,-147.4814,17.8768,-0.8208088,-162.1031,-0.112793,-0.2150879,1.093018,0.2655725,0.1101603,0.06086259,-9.950054,5.114958,-11.4104,-11.07527,5.781624,-12.52759,Unknown
0.001220703,0.1462402,-0.4543457,-0.01458788,-0.5661222,-0.1226563,16.19959,-0.8155233,-147.7767,17.84175,-0.1465343,-162.1576,-0.1140137,-0.2121582,1.088135,0.1434351,0.430771,-0.0002061129,-9.968429,5.136427,-11.43181,-10.97418,5.871796,-12.4809,Unknown
0.003173828,0.1469727,-0.4511719,-0.2588627,-0.4287176,0.04528236,16.23265,-0.8131796,-148.0595,18.04299,-0.3832276,-161.9526,-0.1115723,-0.2160645,1.087402,0.1739695,0.4155039,0.0,-9.990123,5.154741,-11.45529,-11.18096,5.746727,-12.60542,Unknown
0.005615234,0.1433105,-0.4572754,-0.04512215,-0.2760458,-0.0005190372,16.25533,-0.8144009,-148.3501,17.39981,-0.6713486,-162.5864,-0.1159668,-0.2106934,1.100342,0.1739695,0.4002366,0.1524656,-10.00339,5.175724,-11.47052,-10.78148,5.909703,-12.32913,Unknown
-0.001464844,0.1459961,-0.4589844,-0.01458788,-0.291313,0.1063511,16.28291,-0.79891,-148.6286,17.64501,0.1742553,-162.3541,-0.1120605,-0.2104492,1.092285,0.2808397,0.3544351,0.07612977,-10.01619,5.192471,-11.48626,-10.84989,5.752569,-12.31343,Unknown
-0.002929688,0.1477051,-0.4587402,0.1075497,-0.2149771,0.0147481,16.31578,-0.779126,-148.8988,17.84717,0.3482988,-162.1492,-0.1164551,-0.2145996,1.090332,0.06709921,0.4155039,0.06086259,-10.03635,5.214381,-11.50808,-11.07324,5.982558,-12.62218,Unknown
0.003417969,0.1450195,-0.4584961,0.2449541,0.02929771,-0.2295268,16.34409,-0.7712574,-149.1731,17.55139,-0.4072332,-162.4436,-0.1147461,-0.217041,1.09668,0.2350382,0.06435877,0.1371985,-10.05487,5.228246,-11.52827,-11.13535,5.8603,-12.61839,Unknown
-0.0004882813,0.1467285,-0.4599609,0.5044961,0.1361679,-0.168458,16.37848,-0.7526717,-149.4383,17.69278,0.05794656,-162.3071,-0.09741211,-0.2133789,1.085205,0.2655725,0.06435877,-0.06127481,-10.07148,5.225296,-11.54254,-11.08046,5.03347,-12.19663,Unknown
0.004882813,0.1430664,-0.4494629,0.3823588,0.07509923,0.03001523,16.41002,-0.7483027,-149.6957,17.65557,-0.5930986,-162.3338,-0.1191406,-0.2180176,1.106934,0.2045038,-0.3783893,0.1371985,-10.08844,5.235422,-11.56254,-11.07976,6.028234,-12.6502,Unknown
0.01513672,0.1455078,-0.4458008,0.2907557,-0.1844428,-0.01578617,16.44714,-0.7728424,-149.9387,18.06676,-1.848759,-161.8323,-0.1130371,-0.2133789,1.087646,0.1434351,-0.5768626,0.1982672,-10.10554,5.239261,-11.57892,-11.04155,5.823126,-12.51732,Unknown
0.005615234,0.1477051,-0.4487305,0.1228168,-0.1997099,0.3658931,16.48437,-0.7739412,-150.1699,18.21825,-0.680999,-161.7681,-0.109375,-0.217041,1.0896,0.1129008,-0.5768626,0.0,-10.12598,5.238445,-11.59883,-11.21059,5.62247,-12.57437,Unknown
0.005371094,0.1450195,-0.4550781,-0.1214581,-0.3523817,0.03001523,16.50638,-0.7765281,-150.4123,17.67434,-0.6442863,-162.3131,-0.109375,-0.2175293,1.088379,0.1739695,-0.5005267,0.07612977,-10.14585,5.238879,-11.61793,-11.24732,5.628015,-12.60989,Unknown
0.004150391,0.1496582,-0.451416,-0.06038928,-0.1386412,-0.1379237,16.54219,-0.7730358,-150.6391,18.34121,-0.5000106,-161.6515,-0.1125488,-0.21875,1.088379,0.219771,-0.2867863,0.06086259,-10.16581,5.245665,-11.63941,-11.30557,5.78899,-12.73651,Unknown
0.001220703,0.1386719,-0.4501953,-0.1825268,-0.4592519,0.1368854,16.55107,-0.7672956,-150.8819,17.12013,-0.148473,-162.8792,-0.1169434,-0.2138672,1.100342,0.1892367,0.09489316,0.0,-10.17849,5.261265,-11.65643,-10.93901,5.955939,-12.49066,Unknown
0.003662109,0.1455078,-0.4562988,-0.1367252,-0.5813893,-0.09212208,16.5719,-0.7686882,-151.1117,17.68628,-0.4380933,-162.3079,-0.1149902,-0.2155762,1.087158,0.1434351,0.3086336,0.03032825,-10.19606,5.278741,-11.67621,-11.15522,5.923319,-12.66617,Unknown
-0.01391602,0.1459961,-0.4594727,-0.1367252,-0.5813893,-0.01578617,16.59085,-0.7287934,-151.3356,17.61992,1.653373,-162.2976,-0.1132813,-0.2119141,1.087891,0.00603056,0.3239008,0.06086259,-10.21135,5.294644,-11.6909,-10.96497,5.835833,-12.45543,Unknown
0.0,0.1474609,-0.4572754,-0.01458788,-0.3676488,0.1063511,16.61628,-0.7196219,-151.5499,17.87333,-0.0,-162.1267,-0.1105957,-0.2145996,1.097168,-0.009236574,0.2475649,0.07612977,-10.22751,5.305385,-11.70416,-11.01257,5.64969,-12.40964,Unknown
0.001464844,0.1386719,-0.4543457,0.1686182,-0.2149771,0.1521528,16.62589,-0.7119233,-151.7772,16.97275,-0.1766792,-163.0263,-0.1066895,-0.2131348,1.089111,0.02129769,0.339168,0.01506107,-10.24307,5.314089,-11.71674,-11.02117,5.491342,-12.34428,Unknown
0.0078125,0.1467285,-0.4543457,0.1533511,0.04456491,0.04528236,16.65353,-0.7157786,-151.9826,17.89511,-0.9374439,-162.0787,-0.1193848,-0.213623,1.085205,0.2961069,0.3086336,-0.06127481,-10.25528,5.335557,-11.73746,-11.07118,6.160643,-12.70793,Unknown
-0.001953125,0.142334,-0.4558105,0.1991527,0.1056336,-0.1379237,16.67022,-0.6952233,-152.1981,17.34164,0.2343482,-162.6567,-0.109375,-0.2104492,1.099365,-0.03977096,-0.02724427,-0.01547329,-10.26646,5.340065,-11.74643,-10.78492,5.580938,-12.17427,Unknown
0.003662109,0.1477051,-0.456543,0.5655649,0.3804427,-0.2142596,16.70423,-0.6840989,-152.3988,17.92738,-0.4372676,-162.0669,-0.1142578,-0.2175293,1.079346,0.03656495,-0.1951832,-0.07654199,-10.28721,5.348693,-11.76919,-11.33298,5.924487,-12.82471,Unknown
0.006347656,0.1472168,-0.4394531,0.3518243,-0.031771,-0.09212208,16.7457,-0.6865778,-152.5815,18.51905,-0.7846934,-161.4631,-0.1108398,-0.2167969,1.087646,0.2808397,-0.3173206,0.09139694,-10.30167,5.3512,-11.78483,-11.21622,5.707298,-12.61857,Unknown
-0.0007324219,0.1491699,-0.4558105,0.1686182,-0.1386412,0.06054974,16.77569,-0.6731343,-152.7665,18.12133,0.0874995,-161.8784,-0.1101074,-0.2175293,1.107178,0.3113741,-0.8058702,0.2288015,-10.3123,5.3438,-11.79415,-11.06222,5.573457,-12.41875,Unknown
0.003173828,0.1484375,-0.4440918,-0.01458788,-0.2760458,-0.0005190372,16.80959,-0.6714965,-152.9415,18.48174,-0.3883545,-161.5139,-0.1201172,-0.2180176,1.09668,0.2045038,-0.607397,0.2593359,-10.32662,5.350626,-11.81021,-11.17854,6.131534,-12.78796,Unknown
0.005126953,0.1484375,-0.4516602,0.1533511,-0.1386412,-0.07685494,16.83949,-0.6724616,-153.1197,18.19195,-0.6178479,-161.7968,-0.1166992,-0.213623,1.09668,0.06709921,-0.439458,0.0,-10.33835,5.35641,-11.8243,-10.96228,5.962825,-12.51456,Unknown
-0.0002441406,0.1420898,-0.4538574,0.07701516,-0.4592519,-0.1379237,16.85151,-0.6651752,-153.3117,17.38385,0.029413,-162.6161,-0.1193848,-0.2167969,1.096191,0.1892367,-0.2257175,0.2288015,-10.35126,5.367929,-11.83891,-11.12306,6.098306,-12.72274,Unknown
-0.0009765625,0.1525879,-0.4555664,-0.2283282,-0.3981832,0.1216183,16.88148,-0.6553957,-153.4733,18.51777,0.1164613,-161.4818,-0.1179199,-0.2165527,1.089111,0.2350382,-0.1951832,0.1371985,-10.36442,5.378935,-11.85525,-11.18201,6.061685,-12.75682,Unknown
0.006347656,0.1413574,-0.454834,-0.1061909,-0.4592519,-0.1226563,16.88755,-0.6643097,-153.66,17.26309,-0.7635462,-162.719,-0.1113281,-0.2106934,1.091309,0.219771,0.09489316,0.06086259,-10.37135,5.387149,-11.8636,-10.87229,5.719882,-12.31772,Unknown
-0.005371094,0.1408691,-0.4516602,-0.04512215,-0.7798626,-0.1989923,16.89556,-0.649479,-153.843,17.32112,0.6504244,-162.6659,-0.1105957,-0.2124023,1.095215,0.02129769,0.2322977,0.06086259,-10.38203,5.39605,-11.87211,-10.92131,5.661448,-12.33371,Unknown
0.0,0.1469727,-0.4553223,-0.09092379,-0.3981832,-0.0310533,16.9141,-0.6423427,-154.0088,17.88947,-0.0,-162.1105,-0.1157227,-0.2150879,1.091064,0.1587023,0.3239008,0.0,-10.39389,5.411708,-11.88703,-11.0914,5.940887,-12.61805,Unknown
0.004394531,0.1442871,-0.4404297,-0.04512215,-0.4897862,-0.1226563,16.93797,-0.6470809,-154.1674,18.13823,-0.5432603,-161.8531,-0.1103516,-0.2180176,1.093506,0.02129769,0.5223741,-0.01547329,-10.41011,5.423682,-11.90143,-11.21996,5.652018,-12.59636,Unknown
-0.0002441406,0.1445313,-0.4533691,-0.04512215,-0.2149771,-0.2905953,16.95214,-0.6369223,-154.335,17.68195,0.02939632,-162.318,-0.1130371,-0.213623,1.097412,0.1892367,0.4918396,0.03032825,-10.41812,5.438386,-11.91133,-10.95891,5.773303,-12.42014,Unknown
0.003173828,0.1494141,-0.456543,0.1228168,0.1056336,0.1368854,16.97721,-0.6303055,-154.4839,18.12145,-0.3785499,-161.8743,-0.1140137,-0.2163086,1.094238,-0.009236574,0.2780993,-0.04600763,-10.43235,5.45016,-11.92566,-11.12334,5.836306,-12.59629,Unknown
0.0002441406,0.1542969,-0.4592285,0.2754886,-0.001236677,0.091084,17.01315,-0.6182951,-154.6214,18.57191,-0.02887404,-161.4281,-0.1088867,-0.2150879,1.092041,0.3266413,-0.1035802,-0.04600763,-10.44068,5.451383,-11.9368,-11.08872,5.587458,-12.44895,Unknown
0.006103516,0.1484375,-0.4511719,0.2754886,-0.031771,-0.04632068,17.04141,-0.6211522,-154.7652,18.20987,-0.7362395,-161.7742,-0.1159668,-0.2177734,1.078369,0.2350382,-0.1341145,0.1524656,-10.45525,5.4606,-11.95342,-11.35341,6.017387,-12.88719,Unknown
0.003417969,0.1513672,-0.4545898,0.3060229,0.04456491,-0.0310533,17.0731,-0.6162922,-154.9019,18.416,-0.4087253,-161.5791,-0.1140137,-0.2133789,1.096436,0.4182443,-0.4852595,0.06086259,-10.45951,5.461292,-11.96237,-10.95513,5.828043,-12.44296,Unknown
0.0009765625,0.1508789,-0.4443359,0.1686182,0.07509923,-0.01578617,17.10922,-0.6052472,-155.029,18.75541,-0.1192379,-161.2442,-0.1181641,-0.2226563,1.098389,0.1587023,-0.3020534,0.09139694,-10.47589,5.468,-11.98028,-11.39523,6.018744,-12.92497,Unknown
0.002441406,0.1413574,-0.447998,0.1991527,-0.3065802,0.1674199,17.1204,-0.6039047,-155.1755,17.51187,-0.2977647,-162.4854,-0.1115723,-0.2202148,1.084717,0.2808397,-0.2715191,0.0,-10.49032,5.469505,-11.9971,-11.41735,5.756092,-12.82133,Unknown
0.005126953,0.1503906,-0.4550781,-0.02985501,-0.3065802,0.2742901,17.14307,-0.610694,-155.3001,18.28619,-0.6128755,-161.7028,-0.1123047,-0.213623,1.097412,0.2808397,-0.2562519,0.06086259,-10.49365,5.469313,-12.00391,-10.95964,5.736145,-12.40313,Unknown
0.0002441406,0.1518555,-0.4489746,0.229687,0.07509923,-0.0310533,17.17733,-0.5979664,-155.4209,18.68694,-0.0295135,-161.313,-0.1132813,-0.2038574,1.095947,0.1129008,0.3086336,-0.0002061129,-10.49177,5.480514,-12.0041,-10.48257,5.802518,-12.01335,Unknown
0.01538086,0.1513672,-0.4550781,0.1991527,-0.1081069,0.06054974,17.20447,-0.624334,-155.5418,18.38826,-1.836888,-161.5136,-0.1123047,-0.21875,1.098145,0.06709921,-0.02724427,-0.03074045,-10.50512,5.485052,-12.0169,-11.20886,5.727447,-12.62135,Unknown
0.006347656,0.1445313,-0.4462891,0.1686182,-0.031771,-0.1379237,17.22172,-0.6278192,-155.6738,17.94291,-0.7752393,-162.0392,-0.1108398,-0.2182617,1.088867,0.3419085,-0.347855,0.183,-10.51555,5.484231,-12.02728,-11.27786,5.69972,-12.67026,Unknown
0.002929688,0.1469727,-0.4428711,0.229687,-0.001236677,-0.07685494,17.24784,-0.6224755,-155.7942,18.35874,-0.3597272,-161.6375,-0.1132813,-0.2189941,1.08667,0.1587023,-0.4547252,0.06086259,-10.52959,5.48456,-12.04151,-11.33426,5.834898,-12.78361,Unknown
0.003417969,0.1518555,-0.4677734,0.1838853,-0.3065802,0.1368854,17.26528,-0.6224965,-155.9165,17.98478,-0.3981905,-162.0105,-0.1069336,-0.2199707,1.087158,0.1587023,-0.699,0.1677328,-10.54437,5.474727,-12.0518,-11.38505,5.506697,-12.67911,Unknown
0.008300781,0.1491699,-0.458252,0.1533511,-0.3218473,0.07581687,17.28279,-0.6345135,-156.0359,18.02831,-0.9867885,-161.9428,-0.1154785,-0.2138672,1.09082,0.3113741,-0.3783893,0.0,-10.54956,5.47829,-12.06198,-11.03263,5.930958,-12.56123,Unknown
0.003417969,0.1430664,-0.4545898,0.0922823,-0.1997099,0.0147481,17.28788,-0.6329774,-156.1655,17.46913,-0.4109185,-162.5257,-0.1166992,-0.2165527,1.095947,0.219771,-0.4699924,-0.01547329,-10.55766,5.481088,-12.07399,-11.11606,5.963645,-12.65089,Unknown
-0.0009765625,0.1391602,-0.439209,0.03121376,-0.3218473,-0.07685494,17.29419,-0.6226201,-156.2917,17.58039,0.1214444,-162.4192,-0.1147461,-0.2197266,1.089844,0.1739695,-0.2104504,0.2288015,-10.5707,5.486225,-12.08542,-11.33773,5.892633,-12.81387,Unknown
0.005615234,0.140625,-0.4401855,-0.1825268,-0.5203207,0.07581687,17.29993,-0.6317403,-156.4102,17.71564,-0.6961949,-162.2698,-0.1113281,-0.213623,1.09668,0.2045038,-0.1341145,0.2440687,-10.57563,5.488334,-12.0879,-10.96767,5.69023,-12.38858,Unknown
0.001464844,0.1450195,-0.4543457,-0.1367252,-0.3371145,-0.1379237,17.30597,-0.6275807,-156.53,17.70213,-0.1759784,-162.297,-0.1113281,-0.2180176,1.09082,0.128168,0.1254275,0.03032825,-10.58715,5.494713,-12.09866,-11.24562,5.715117,-12.64851,Unknown
0.002441406,0.1413574,-0.4470215,-0.1825268,-0.382916,0.04528236,17.30812,-0.6266252,-156.6477,17.54778,-0.2983561,-162.4495,-0.1147461,-0.2172852,1.099609,0.05183208,0.4002366,0.06086259,-10.59702,5.507605,-12.10773,-11.11891,5.845131,-12.59655,Unknown
0.004394531,0.1403809,-0.4533691,0.03121376,-0.3371145,-0.0005190372,17.30649,-0.6296584,-156.7705,17.20381,-0.5305057,-162.7875,-0.1213379,-0.2121582,1.095215,0.2503054,0.6445115,-0.09180916,-10.59936,5.531077,-12.11852,-10.89813,6.207497,-12.57986,Unknown
0.002441406,0.1459961,-0.4626465,-0.1214581,-0.2455115,0.1063511,17.30886,-0.626441,-156.8832,17.51376,-0.288334,-162.4837,-0.1113281,-0.2102051,1.092529,0.05183208,0.3086336,-0.168145,-10.60333,5.539277,-12.12428,-10.83598,5.714232,-12.28277,Unknown
0.01196289,0.1489258,-0.4577637,0.1380839,-0.2607787,0.1979542,17.32502,-0.6462171,-156.9811,18.01568,-1.423579,-161.9243,-0.1105957,-0.21875,1.09668,-0.03977096,0.262832,-0.06127481,-10.61635,5.545316,-12.13467,-11.22502,5.648057,-12.59907,Unknown
0.004150391,0.1496582,-0.456543,0.4434273,-0.123374,-0.1073892,17.34801,-0.6450052,-157.0799,18.14883,-0.4949434,-161.8439,-0.1066895,-0.2175293,1.104004,0.1587023,0.09489316,0.04559542,-10.62362,5.544132,-12.13887,-11.09618,5.416344,-12.37788,Unknown
-0.001220703,0.1535645,-0.4555664,0.32129,0.04456491,0.3811603,17.37834,-0.6285404,-157.1601,18.62811,0.1454824,-161.3713,-0.1113281,-0.2189941,1.093262,0.00603056,-0.2104504,-0.03074045,-10.63646,5.544195,-12.14983,-11.27037,5.701952,-12.66459,Unknown
0.003417969,0.1491699,-0.4492188,0.2602212,0.09036642,-0.04632068,17.40198,-0.6229157,-157.2501,18.36904,-0.4137247,-161.626,-0.1081543,-0.2165527,1.097412,0.128168,-0.2867863,-0.03074045,-10.64406,5.539549,-12.15606,-11.1103,5.522727,-12.43869,Unknown
0.004882813,0.1494141,-0.4538574,0.1380839,-0.5355878,-0.09212208,17.42039,-0.6300402,-157.3419,18.22104,-0.5854826,-161.7689,-0.1071777,-0.2158203,1.095459,0.02129769,-0.4699924,0.3662061,-10.65274,5.531513,-12.15567,-11.09366,5.483192,-12.40576,Unknown
0.006347656,0.1430664,-0.4553223,-0.02985501,-0.3065802,0.0147481,17.42037,-0.6371859,-157.4456,17.4416,-0.7619853,-162.5407,-0.1123047,-0.2158203,1.097412,0.2808397,-0.6684657,0.1677328,-10.65694,5.525736,-12.1601,-11.0696,5.733996,-12.50005,Unknown
0.002685547,0.1430664,-0.4416504,0.04648089,-0.7035267,-0.06158781,17.43162,-0.6414127,-157.5386,17.94869,-0.331439,-162.048,-0.1132813,-0.2175293,1.086426,0.2655725,-0.5768626,0.09139694,-10.66516,5.523495,-12.16997,-11.26283,5.83766,-12.72116,Unknown
0.0,0.1433105,-0.4482422,-0.1825268,-0.4897862,0.091084,17.43491,-0.6357844,-157.6319,17.72995,-0.0,-162.2701,-0.114502,-0.2175293,1.102295,0.2503054,-0.347855,0.06086259,-10.67028,5.52429,-12.17712,-11.10518,5.818954,-12.5719,Unknown
0.006347656,0.1433105,-0.4543457,-0.1825268,-0.3523817,0.1063511,17.43362,-0.6435159,-157.7272,17.50481,-0.7633576,-162.4775,-0.1149902,-0.2092285,1.093994,0.3419085,0.01855725,0.1219313,-10.66723,5.531963,-12.178,-10.76926,5.894295,-12.3108,Unknown
0.0004882813,0.1428223,-0.4611816,-0.07565641,-0.3371145,-0.04632068,17.42805,-0.6364297,-157.8291,17.2071,-0.05794737,-162.7928,-0.1147461,-0.2148438,1.097656,0.1434351,0.262832,-0.0002061129,-10.67224,5.54208,-12.18466,-11.01592,5.857522,-12.51103,Unknown
0.003662109,0.1452637,-0.4560547,0.0006792545,-0.2607787,0.1521528,17.43285,-0.6365576,-157.9167,17.66731,-0.438374,-162.3269,-0.1193848,-0.2121582,1.094482,0.1587023,0.5071069,0.183,-10.67445,5.561435,-12.1889,-10.90722,6.112249,-12.53995,Unknown
0.002441406,0.1467285,-0.4411621,0.2144198,-0.4897862,0.091084,17.45528,-0.6370438,-157.989,18.39663,-0.3008692,-161.6007,-0.1154785,-0.2150879,1.103027,0.08236647,0.4155039,-0.0002061129,-10.67926,5.573653,-12.19472,-10.97557,5.866948,-12.47979,Unknown
0.0009765625,0.142334,-0.451416,0.07701516,-0.3218473,-0.0005190372,17.45731,-0.6313984,-158.0793,17.50031,-0.1182126,-162.4993,-0.107666,-0.2155762,1.095459,0.0976336,0.1406947,0.0,-10.68586,5.574414,-12.19894,-11.08096,5.508251,-12.40572,Unknown
0.0004882813,0.145752,-0.4577637,0.0006792545,-0.4439847,-0.01578617,17.4614,-0.6264616,-158.1647,17.66146,-0.05823483,-162.3384,-0.1071777,-0.2160645,1.092529,-0.2382443,0.1101603,0.09139694,-10.69833,5.574485,-12.20259,-11.13466,5.497025,-12.44893,Unknown
-0.0009765625,0.1459961,-0.4538574,-0.02985501,-0.123374,0.07581687,17.46835,-0.6135197,-158.2436,17.83182,0.1173602,-162.1678,-0.114502,-0.21875,1.092529,0.1129008,0.2017633,0.0,-10.70784,5.583507,-12.21323,-11.26215,5.867394,-12.73459,Unknown
0.008544922,0.1467285,-0.4465332,0.2907557,-0.06230533,-0.0310533,17.48671,-0.6229343,-158.3147,18.18715,-1.041512,-161.7809,-0.1125488,-0.2075195,1.094238,0.05183208,0.171229,0.04559542,-10.70664,5.589594,-12.21184,-10.68341,5.770415,-12.17462,Unknown
0.003173828,0.1494141,-0.4560547,0.4739618,0.227771,0.0147481,17.5072,-0.6144825,-158.3853,18.13958,-0.3789159,-161.8562,-0.1086426,-0.2155762,1.088135,0.1587023,0.04909158,-0.04600763,-10.71306,5.590446,-12.21849,-11.15202,5.593675,-12.50859,Unknown
0.001708984,0.1484375,-0.4489746,0.4739618,0.3804427,0.091084,17.52991,-0.6007416,-158.4504,18.29451,-0.2070672,-161.7042,-0.1169434,-0.2143555,1.092529,0.2350382,0.07962596,0.0,-10.71612,5.59973,-12.2261,-11.039,5.996161,-12.59855,Unknown
0.004638672,0.1494141,-0.4482422,0.0922823,-0.1081069,-0.2295268,17.54935,-0.6015656,-158.5159,18.43403,-0.5624848,-161.5568,-0.1147461,-0.2172852,1.091309,0.0976336,-0.5921298,0.1066641,-10.72437,5.596784,-12.23379,-11.20045,5.887602,-12.68928,Unknown
0.007568359,0.1425781,-0.4470215,0.2602212,-0.4592519,-0.09212208,17.55595,-0.6147675,-158.5926,17.68778,-0.9241038,-162.2865,-0.1130371,-0.2189941,1.097412,0.219771,-0.8364046,0.06086259,-10.73121,5.587912,-12.24136,-11.22754,5.767981,-12.65696,Unknown
0.004394531,0.1394043,-0.4541016,-0.2588627,-0.7035267,-0.1989923,17.54232,-0.6234149,-158.6822,17.06517,-0.5300453,-162.9261,-0.1159668,-0.2182617,1.095703,0.1892367,-0.5921298,0.1524656,-10.7379,5.585969,-12.24852,-11.20475,5.925992,-12.71142,Unknown
0.01000977,0.1474609,-0.4567871,-0.2741299,-0.8714657,0.07581687,17.54546,-0.6467962,-158.749,17.8872,-1.194657,-162.0702,-0.1105957,-0.215332,1.092773,0.219771,-0.5157939,0.06086259,-10.74197,5.580588,-12.25253,-11.09212,5.67071,-12.49055,Unknown
0.004150391,0.1472168,-0.4528809,-0.1367252,-0.4745191,-0.06158781,17.55268,-0.6508227,-158.8146,18.00695,-0.4993488,-161.9857,-0.1130371,-0.2185059,1.097412,0.219771,-0.07304579,0.1677328,-10.74796,5.583272,-12.25772,-11.20314,5.76847,-12.6354,Unknown
0.004150391,0.1435547,-0.4533691,-0.04512215,-0.4287176,-0.1073892,17.5523,-0.6545293,-158.8885,17.56917,-0.5000355,-162.4232,-0.1147461,-0.2211914,1.103027,0.2350382,0.1559618,-0.01547329,-10.75491,5.590529,-12.2674,-11.2799,5.823899,-12.72992,Unknown
-0.001708984,0.1462402,-0.4506836,-0.01458788,-0.4592519,-0.1073892,17.5606,-0.6436066,-158.9526,17.97737,0.2066564,-162.0214,-0.1118164,-0.2182617,1.108887,0.219771,0.5071069,0.07612977,-10.75841,5.598684,-12.27042,-11.08037,5.650359,-12.47057,Unknown
0.002441406,0.1420898,-0.4448242,0.03121376,-0.5203207,-0.07685494,17.56414,-0.6443743,-159.0203,17.71475,-0.2995522,-162.2825,-0.1135254,-0.2155762,1.096924,-0.07030535,0.5071069,0.03032825,-10.76549,5.610137,-12.27503,-11.06091,5.798609,-12.52286,Unknown
0.006103516,0.1430664,-0.4501953,0.01594663,-0.7187939,-0.1226563,17.56567,-0.6575627,-159.089,17.62808,-0.7402631,-162.3554,-0.1064453,-0.2121582,1.089844,0.2503054,0.4460382,-0.1528779,-10.76556,5.614453,-12.27766,-10.965,5.476243,-12.28694,Unknown
0.006835938,0.1428223,-0.4541016,0.0922823,-0.3065802,0.1979542,17.56477,-0.6650723,-159.1549,17.45734,-0.8227251,-162.522,-0.1137695,-0.2175293,1.088379,0.1587023,0.2475649,-0.04600763,-10.77292,5.622613,-12.28695,-11.24283,5.852601,-12.71039,Unknown
0.003417969,0.145752,-0.4570313,0.1075497,-0.01650381,-0.1073892,17.56881,-0.660178,-159.2195,17.68755,-0.4082301,-162.3074,-0.111084,-0.2133789,1.084961,0.1739695,0.3239008,0.09139694,-10.77631,5.629657,-12.2899,-11.06991,5.736733,-12.50162,Unknown
0.002197266,0.1516113,-0.4633789,0.2754886,0.1209008,-0.2905953,17.58383,-0.6503615,-159.277,18.11721,-0.2582154,-161.8808,-0.1135254,-0.220459,1.087891,0.128168,0.5529084,-0.06127481,-10.78681,5.641984,-12.30181,-11.3955,5.839609,-12.84053,Unknown
0.002197266,0.1508789,-0.4416504,0.3518243,0.4720459,-0.07685494,17.61455,-0.6358101,-159.3154,18.86124,-0.2697451,-161.1367,-0.1113281,-0.2111816,1.092285,0.2350382,0.03382444,0.03032825,-10.78537,5.643931,-12.3019,-10.88747,5.714512,-12.32866,Unknown
0.007568359,0.1520996,-0.4440918,0.489229,-0.1081069,-0.1073892,17.64752,-0.643157,-159.3521,18.90357,-0.9236945,-161.0721,-0.1047363,-0.2126465,1.102051,0.03656495,-0.3631221,0.09139694,-10.78659,5.632339,-12.2973,-10.87348,5.331195,-12.13883,Unknown
0.004394531,0.1474609,-0.4523926,0.06174803,-0.3218473,0.07581687,17.65654,-0.6456081,-159.4027,18.05299,-0.5291526,-161.9387,-0.1120605,-0.2104492,1.100098,0.3266413,-0.6226641,0.07612977,-10.78156,5.624807,-12.2948,-10.77542,5.713425,-12.22863,Unknown
0.001708984,0.1462402,-0.4487305,0.0006792545,-0.5203207,-0.01578617,17.66443,-0.6444941,-159.4539,18.05055,-0.2074697,-161.9482,-0.1123047,-0.2111816,1.088135,0.2503054,-0.6837328,0.09139694,-10.78079,5.617968,-12.29551,-10.92661,5.785349,-12.3972,Unknown
0.002197266,0.1447754,-0.4528809,-0.1214581,-0.5661222,-0.2295268,17.66391,-0.6452218,-159.5136,17.72766,-0.2647825,-162.2702,-0.112793,-0.2143555,1.099121,0.2655725,-0.3325878,0.03032825,-10.78085,5.615752,-12.29771,-10.97931,5.75163,-12.42797,Unknown
0.0078125,0.1481934,-0.4465332,0.06174803,-0.3981832,0.06054974,17.67868,-0.6571972,-159.5547,18.35711,-0.9513271,-161.6165,-0.1184082,-0.2177734,1.097412,0.219771,-0.2104504,0.183,-10.78522,5.621171,-12.30363,-11.16097,6.041349,-12.72832,Unknown
0.004638672,0.1425781,-0.4499512,-0.1214581,-0.4134504,0.06054974,17.67494,-0.6613923,-159.6109,17.58121,-0.5630665,-162.4092,-0.1118164,-0.2148438,1.096436,0.1129008,0.4002366,0.0,-10.78847,5.628931,-12.30669,-11.0307,5.71505,-12.45645,Unknown
0.003417969,0.1464844,-0.4592285,-0.07565641,-0.6119237,0.1521528,17.67416,-0.6652852,-159.6626,17.69115,-0.4062688,-162.3039,-0.1149902,-0.2145996,1.096191,0.3266413,0.03382444,-0.04600763,-10.78825,5.634402,-12.31168,-11.01765,5.877645,-12.52223,Unknown
0.008056641,0.1442871,-0.453125,-0.04512215,-0.7340611,0.3658931,17.67321,-0.6821824,-159.7101,17.66025,-0.9706114,-162.3113,-0.1137695,-0.2158203,1.096924,0.03656495,0.1559618,0.09139694,-10.79341,5.640222,-12.31488,-11.07288,5.810751,-12.53927,Unknown
-0.0007324219,0.145752,-0.4528809,-0.04512215,-0.4287176,-0.168458,17.67588,-0.6730768,-159.7616,17.83986,0.08820606,-162.1599,-0.1140137,-0.2145996,1.092773,0.08236647,0.4002366,-0.0002061129,-10.79737,5.65021,-12.31933,-11.0519,5.845505,-12.53719,Unknown
0.004882813,0.1496582,-0.4570313,-0.1061909,-0.5355878,-0.01578617,17.68248,-0.6838467,-159.804,18.13044,-0.581719,-161.8596,-0.1162109,-0.2180176,1.096924,0.1129008,0.3849695,-0.1070763,-10.80237,5.664907,-12.32932,-11.18027,5.932319,-12.69272,Unknown
-0.0007324219,0.1472168,-0.456543,0.2144198,-0.3371145,-0.1226563,17.68943,-0.6733757,-159.8522,17.87241,0.08748251,-162.1274,-0.1154785,-0.2124023,1.089844,0.2655725,-0.6684657,0.07612977,-10.80179,5.660533,-12.33177,-10.96837,5.937531,-12.50761,Unknown
0.004394531,0.1452637,-0.449707,-0.197794,-0.3676488,0.091084,17.69074,-0.6759681,-159.8957,17.90061,-0.532772,-162.0909,-0.1079102,-0.2133789,1.095947,0.08236647,-0.4089237,0.01506107,-10.80386,5.651719,-12.33107,-10.96581,5.520383,-12.30789,Unknown
0.00390625,0.1459961,-0.4458008,-0.1061909,-0.7951298,-0.3821983,17.69802,-0.6836791,-159.9406,18.13255,-0.4770992,-161.8607,-0.1125488,-0.2158203,1.095459,0.2655725,-0.1646488,0.07612977,-10.80564,5.651388,-12.33387,-11.0884,5.756174,-12.52726,Unknown
0.002929688,0.1459961,-0.4604492,-0.1825268,-0.7798626,0.1216183,17.69321,-0.6884195,-159.9881,17.59209,-0.3475,-162.4043,-0.1149902,-0.2067871,1.092773,0.3724428,-0.07304579,-0.01547329,-10.79722,5.655346,-12.33176,-10.65798,5.903007,-12.21716,Unknown
0.006591797,0.1496582,-0.456543,-0.2435954,-0.4745191,0.04528236,17.69872,-0.6973477,-160.0243,18.14776,-0.7860569,-161.834,-0.1098633,-0.217041,1.085449,0.219771,0.3849695,-0.09180916,-10.80307,5.66126,-12.33912,-11.25145,5.668039,-12.63197,Unknown
0.0002441406,0.144043,-0.4570313,-0.197794,-0.2607787,-0.1837251,17.69171,-0.6878181,-160.0767,17.49333,-0.02919121,-162.5066,-0.1184082,-0.2163086,1.099609,0.06709921,0.4765725,0.01506107,-10.80735,5.675667,-12.34491,-11.0664,6.031334,-12.63993,Unknown
0.003417969,0.144043,-0.4624023,-0.01458788,-0.3218473,0.1216183,17.6837,-0.6868799,-160.1272,17.30189,-0.4043454,-162.6931,-0.1101074,-0.2185059,1.096924,0.219771,0.4460382,-0.07654199,-10.81219,5.681157,-12.35063,-11.21088,5.622323,-12.57457,Unknown
0.006591797,0.1442871,-0.4560547,0.2144198,-0.1386412,0.182687,17.68427,-0.6909708,-160.1705,17.55467,-0.7895261,-162.4264,-0.1000977,-0.2116699,1.083984,0.2655725,0.262832,-0.06127481,-10.81211,5.674969,-12.3483,-11.00346,5.178604,-12.18884,Unknown
0.004882813,0.144043,-0.4680176,0.07701516,-0.07757253,0.1063511,17.67384,-0.6897177,-160.2232,17.10605,-0.5712995,-162.8838,-0.1047363,-0.213623,1.088379,0.0976336,0.4918396,-0.03074045,-10.81553,5.676589,-12.3484,-11.05484,5.394431,-12.33075,Unknown
0.0007324219,0.1462402,-0.4509277,0.1228168,-0.1081069,0.1216183,17.68153,-0.679283,-160.2576,17.96836,-0.08852393,-162.0314,-0.1113281,-0.2124023,1.098877,0.4640458,0.01855725,-0.168145,-10.81011,5.67694,-12.35012,-10.88543,5.680509,-12.31074,Unknown
0.005371094,0.1486816,-0.4587402,0.1838853,-0.3218473,-0.1989923,17.68974,-0.6831912,-160.296,17.9568,-0.6381317,-162.0311,-0.1164551,-0.2150879,1.096924,0.1129008,-0.05777865,-0.04600763,-10.81292,5.681505,-12.35519,-11.03349,5.947689,-12.5701,Unknown
0.0,0.1462402,-0.4599609,0.1533511,-0.4439847,0.1063511,17.69095,-0.676054,-160.3357,17.63757,-0.0,-162.3624,-0.1054688,-0.2185059,1.097656,0.1892367,-0.2409847,0.09139694,-10.81804,5.672001,-12.35603,-11.20815,5.383449,-12.46436,Unknown
0.00390625,0.1486816,-0.4541016,0.0006792545,-0.2455115,-0.07685494,17.69972,-0.6752691,-160.3674,18.12882,-0.4683885,-161.8647,-0.1159668,-0.2155762,1.097656,0.2350382,-0.439458,0.0,-10.81948,5.670905,-12.36035,-11.05131,5.918656,-12.57182,Unknown
0.005371094,0.1445313,-0.4555664,-0.09092379,-0.1997099,-0.1073892,17.69631,-0.6777723,-160.4094,17.6008,-0.6438585,-162.3866,-0.1123047,-0.2185059,1.096191,0.2045038,-0.4089237,0.09139694,-10.8242,5.665823,-12.36436,-11.21591,5.73744,-12.63231,Unknown
0.001953125,0.1425781,-0.4516602,0.04648089,-0.3065802,-0.1073892,17.69341,-0.6731485,-160.4523,17.51949,-0.2362713,-162.4788,-0.1113281,-0.2126465,1.090576,0.0976336,-0.1493817,-0.01547329,-10.82593,5.66489,-12.36553,-10.97775,5.721657,-12.41239,Unknown
0.0,0.1467285,-0.447998,-0.01458788,-0.5661222,0.04528236,17.70201,-0.6685624,-160.4798,18.13468,-0.0,-161.8653,-0.1147461,-0.2045898,1.096436,0.3266413,-0.1646488,0.1371985,-10.81456,5.666487,-12.35758,-10.51345,5.873815,-12.07581,Unknown
0.004882813,0.1499023,-0.449707,-0.197794,-0.4287176,-0.3516641,17.71394,-0.6728763,-160.5062,18.43394,-0.5901588,-161.5559,-0.1052246,-0.2197266,1.083252,0.1434351,-0.1646488,0.01506107,-10.82458,5.65966,-12.36372,-11.41399,5.438113,-12.67489,Unknown
0.001708984,0.1474609,-0.4577637,-0.04512215,-0.7951298,-0.2447939,17.7161,-0.6751792,-160.5425,17.85536,-0.2036002,-162.1434,-0.1135254,-0.2172852,1.096924,0.4029771,-0.02724427,-0.03074045,-10.8251,5.662005,-12.36886,-11.14641,5.796906,-12.59817,Unknown
-0.0002441406,0.1474609,-0.4555664,-0.1061909,-0.5813893,0.2284887,17.71894,-0.6696377,-160.5696,17.93609,0.02921288,-162.0639,-0.1164551,-0.2138672,1.092041,0.219771,0.339168,0.09139694,-10.82576,5.673238,-12.37156,-11.01972,5.97436,-12.5709,Unknown
-0.0007324219,0.1425781,-0.4594727,-0.2130611,-0.5050534,-0.1226563,17.70622,-0.6619247,-160.6152,17.23952,0.08722901,-162.7602,-0.1108398,-0.2160645,1.092773,0.1129008,0.5681756,-0.1070763,-10.83016,5.681774,-12.37628,-11.12867,5.682427,-12.52868,Unknown
0.002685547,0.1479492,-0.4533691,0.07701516,-0.2149771,-0.04632068,17.71469,-0.6582993,-160.6421,18.07291,-0.3226447,-161.924,-0.1147461,-0.2167969,1.092773,-0.07030535,0.7513816,0.09139694,-10.83782,5.696795,-12.38043,-11.16147,5.880562,-12.65127,Unknown
0.007324219,0.1442871,-0.46875,0.1838853,-0.123374,-0.04632068,17.70523,-0.6640582,-160.6873,17.10705,-0.8555655,-162.8702,-0.1105957,-0.2114258,1.091309,0.1892367,0.339168,0.0,-10.83648,5.70148,-12.37949,-10.90989,5.681793,-12.33313,Unknown
0.004638672,0.1508789,-0.4584961,0.1838853,0.09036642,-0.1531909,17.71811,-0.6604608,-160.7114,18.21413,-0.5506057,-161.777,-0.112793,-0.2121582,1.09668,0.2503054,0.1254275,-0.0002061129,-10.83393,5.704615,-12.37906,-10.89283,5.76603,-12.35798,Unknown
-0.01269531,0.1433105,-0.4533691,0.1838853,0.1972366,0.1674199,17.71716,-0.6137636,-160.7426,17.53536,1.529433,-162.3937,-0.1123047,-0.2202148,1.102051,0.2961069,-0.1341145,0.04559542,-10.83776,5.702683,-12.38366,-11.24343,5.706603,-12.64261,Unknown
-0.001953125,0.1455078,-0.4396973,0.1991527,-0.031771,0.07581687,17.73196,-0.597123,-160.7603,18.31062,0.2416185,-161.6877,-0.1081543,-0.2131348,1.092529,0.2045038,-0.347855,0.09139694,-10.83773,5.694508,-12.38144,-10.98645,5.549597,-12.33984,Unknown
0.007080078,0.1494141,-0.4492188,0.1075497,-0.4134504,-0.2142596,17.74681,-0.6083944,-160.7799,18.39544,-0.8568129,-161.5832,-0.1157227,-0.2114258,1.089844,0.1587023,-0.5005267,0.0,-10.83702,5.69228,-12.38322,-10.91891,5.950986,-12.47051,Unknown
0.0002441406,0.1481934,-0.4536133,0.3365571,-0.4439847,-0.1989923,17.75866,-0.6033394,-160.8054,18.09197,-0.02931272,-161.908,-0.1130371,-0.2155762,1.095215,0.4029771,-0.439458,0.2288015,-10.83592,5.687623,-12.3828,-11.07806,5.782453,-12.53046,Unknown
-0.002441406,0.1481934,-0.4504395,0.04648089,-0.3218473,-0.07685494,17.76839,-0.590104,-160.8262,18.21082,0.2949889,-161.7866,-0.1115723,-0.2172852,1.097656,0.3419085,-0.5310611,0.1066641,-10.837,5.679948,-12.38448,-11.1412,5.694201,-12.54536,Unknown
0.007324219,0.142334,-0.4487305,-0.1672597,-0.2607787,0.04528236,17.76249,-0.5999623,-160.8566,17.59644,-0.8913461,-162.3795,-0.1137695,-0.2128906,1.097412,0.2350382,-0.08831299,-0.06127481,-10.83523,5.681274,-12.3858,-10.92152,5.811177,-12.40506,Unknown
0.006591797,0.1459961,-0.4533691,-0.09092379,-0.6271908,-0.09212208,17.76286,-0.6130409,-160.8835,17.84808,-0.7929051,-162.1331,-0.1166992,-0.2172852,1.100586,-0.03977096,-0.01197708,0.0,-10.84126,5.68625,-12.39071,-11.10739,5.938877,-12.63125,Unknown
-0.001953125,0.1447754,-0.4516602,0.03121376,-0.4287176,0.07581687,17.76355,-0.6027836,-160.9091,17.7726,0.2359395,-162.2257,-0.1191406,-0.2133789,1.097412,0.05183208,-0.08831299,0.09139694,-10.84243,5.692801,-12.39255,-10.94048,6.083011,-12.55456,Unknown
0.002197266,0.1442871,-0.449707,-0.197794,-0.5661222,-0.1226563,17.76114,-0.6043811,-160.937,17.78848,-0.2665606,-162.2094,-0.114502,-0.2248535,1.094238,0.03656495,0.1254275,0.09139694,-10.85606,5.697835,-12.40306,-11.55063,5.852329,-12.98528,Unknown
-0.001953125,0.1486816,-0.4597168,0.0006792545,-0.2607787,-0.07685494,17.76437,-0.5914948,-160.9609,17.9221,0.23161,-162.0763,-0.1125488,-0.213623,1.097412,-0.08557248,0.3849695,0.09139694,-10.85938,5.704508,-12.40183,-10.9594,5.748532,-12.40879,Unknown
0.006835938,0.1447754,-0.4602051,-0.1825268,-0.1844428,-0.1379237,17.75562,-0.5986121,-160.9941,17.46119,-0.8117982,-162.5187,-0.1108398,-0.217041,1.092285,0.1739695,0.3239008,-0.1223435,-10.86329,5.708858,-12.40714,-11.18252,5.683893,-12.57755,Unknown
-0.0007324219,0.145752,-0.4509277,-0.197794,-0.4287176,0.04528236,17.75585,-0.591171,-161.0153,17.9122,0.08855205,-162.0876,-0.1103516,-0.2116699,1.098145,-0.05503809,0.262832,-0.0002061129,-10.86397,5.71125,-12.40428,-10.85672,5.635293,-12.26384,Unknown
0.0002441406,0.1442871,-0.4523926,0.01594663,-0.1081069,-0.1989923,17.75476,-0.5815259,-161.0441,17.68968,-0.0294585,-162.3103,-0.1079102,-0.2150879,1.085205,0.1587023,0.171229,0.03032825,-10.8675,5.710962,-12.40581,-11.15711,5.571018,-12.50279,Unknown
0.001953125,0.1542969,-0.4558105,0.1075497,-0.1691756,-0.1379237,17.77538,-0.577199,-161.0513,18.70136,-0.2325457,-161.2971,-0.1147461,-0.213623,1.093994,0.08236647,0.1254275,-0.1986794,-10.86866,5.716259,-12.41076,-10.99024,5.877499,-12.49788,Unknown
0.005615234,0.1489258,-0.4526367,0.1380839,-0.07757253,0.2437558,17.78598,-0.5802223,-161.0625,18.21084,-0.6751513,-161.7758,-0.1157227,-0.213623,1.106934,0.1434351,0.06435877,0.0,-10.86662,5.720035,-12.41013,-10.86523,5.860849,-12.37919,Unknown
0.003662109,0.154541,-0.4541016,0.04648089,0.05983204,0.06054974,17.80683,-0.5764867,-161.0643,18.79403,-0.4374168,-161.2005,-0.1086426,-0.2143555,1.091064,0.219771,-0.1341145,0.07612977,-10.86729,5.715272,-12.40924,-11.06168,5.580488,-12.4215,Unknown
0.0007324219,0.1484375,-0.4567871,0.1075497,-0.031771,0.182687,17.81242,-0.5672026,-161.0801,18.00206,-0.08737173,-161.9977,-0.1081543,-0.2172852,1.089111,0.3419085,-0.1341145,0.1219313,-10.86916,5.710109,-12.41041,-11.22894,5.56226,-12.56337,Unknown
0.006347656,0.1503906,-0.4465332,0.04648089,-0.1539084,0.03001523,17.82904,-0.5734068,-161.0855,18.61157,-0.7718346,-161.3712,-0.1142578,-0.2145996,1.079102,0.05183208,-0.3020534,0.0,-10.8748,5.710339,-12.41614,-11.18666,5.928841,-12.69672,Unknown
0.0078125,0.1472168,-0.4511719,0.3670917,-0.2455115,0.04528236,17.83923,-0.5844098,-161.1013,18.0689,-0.943108,-161.9048,-0.1140137,-0.2143555,1.091797,0.2045038,-0.347855,0.1219313,-10.87528,5.708034,-12.41677,-11.04916,5.850749,-12.53727,Unknown
0.004638672,0.1499023,-0.4602051,0.2144198,-0.3676488,-0.1073892,17.84642,-0.5891081,-161.1198,18.0411,-0.5491038,-161.95,-0.111084,-0.2102051,1.093994,0.0976336,-0.2867863,-0.09180916,-10.87279,5.703546,-12.415,-10.82219,5.69447,-12.26111,Unknown
0.005859375,0.1472168,-0.4484863,-0.04512215,-0.3523817,0.2284887,17.85225,-0.5967297,-161.1303,18.17111,-0.7111833,-161.814,-0.114502,-0.2172852,1.093262,0.06709921,-0.04251146,-0.06127481,-10.87797,5.706153,-12.42084,-11.18142,5.865137,-12.66166,Unknown
0.004882813,0.1369629,-0.4538574,0.0006792545,-0.6271908,-0.1989923,17.83105,-0.6058169,-161.1746,16.79159,-0.5901085,-163.1974,-0.112793,-0.2097168,1.087402,0.03656495,-0.179916,0.1066641,-10.87706,5.705696,-12.41789,-10.85919,5.815528,-12.35193,Unknown
-0.0009765625,0.1413574,-0.449707,-0.4420686,-0.5203207,0.1368854,17.81648,-0.5994853,-161.2,17.44958,0.1186949,-162.55,-0.112793,-0.2099609,1.094727,0.00603056,0.2017633,-0.1223435,-10.87545,5.710306,-12.4171,-10.80126,5.77802,-12.28255,Unknown
-0.0004882813,0.1459961,-0.4553223,-0.2588627,-0.6271908,0.091084,17.81217,-0.5949306,-161.2191,17.7781,0.05850903,-162.2218,-0.1015625,-0.2155762,1.095215,0.02129769,0.4765725,0.2593359,-10.87943,5.706615,-12.41071,-11.08905,5.198862,-12.27537,Unknown
-0.002685547,0.1474609,-0.4562988,0.07701516,-0.3065802,0.1368854,17.81531,-0.5814218,-161.2344,17.90886,0.3208714,-162.0881,-0.1191406,-0.2160645,1.094482,0.1129008,0.3239008,-0.0002061129,-10.88214,5.719477,-12.41658,-11.10336,6.095775,-12.70414,Unknown
0.0004882813,0.144043,-0.4648438,0.04648089,-0.4287176,-0.1073892,17.80397,-0.5768251,-161.2668,17.21684,-0.05748783,-162.7831,-0.1186523,-0.2124023,1.091064,0.0976336,0.5223741,-0.1376107,-10.88222,5.734114,-12.42155,-10.95323,6.092979,-12.57072,Unknown
-0.001220703,0.151123,-0.453125,0.06174803,-0.09283972,0.0147481,17.81769,-0.5637249,-161.2724,18.44415,0.1464238,-161.5552,-0.1135254,-0.2160645,1.100342,-0.009236574,0.3697023,0.07612977,-10.88576,5.740484,-12.42214,-11.05211,5.780901,-12.50663,Unknown
0.002441406,0.1447754,-0.4638672,0.2144198,-0.07757253,0.04528236,17.81136,-0.5594239,-161.2995,17.33319,-0.2878598,-162.6643,-0.1245117,-0.222168,1.093506,0.128168,0.2017633,0.1219313,-10.89428,5.756178,-12.43399,-11.41269,6.367009,-13.11059,Unknown
0.0,0.1481934,-0.4580078,0.1686182,0.05983204,-0.1073892,17.8162,-0.5473559,-161.3165,17.92955,-0.0,-162.0704,-0.1140137,-0.2087402,1.092529,0.0976336,0.07962596,-0.1070763,-10.89015,5.759276,-12.43252,-10.7596,5.852571,-12.28187,Unknown
-0.0009765625,0.1403809,-0.449707,0.32129,-0.031771,-0.07685494,17.81353,-0.5347185,-161.3451,17.33627,0.1187685,-162.6633,-0.111084,-0.2160645,1.097656,0.06709921,-0.1035802,-0.1070763,-10.89252,5.75527,-12.43579,-11.08064,5.670635,-12.48025,Unknown
-0.002197266,0.1467285,-0.4633789,-0.01458788,-0.4745191,0.1674199,17.80845,-0.5258193,-161.3643,17.57016,0.2590103,-162.4278,-0.1166992,-0.2155762,1.089844,0.02129769,0.3544351,-0.09180916,-10.89689,5.765306,-12.44195,-11.12693,5.996562,-12.67645,Unknown
0.001220703,0.1467285,-0.451416,-0.1214581,-0.4745191,-0.01578617,17.8105,-0.5256905,-161.3771,18.0062,-0.1473485,-161.9931,-0.112793,-0.2116699,1.096436,0.3724428,0.3697023,0.03032825,-10.89053,5.771152,-12.43942,-10.8707,5.767736,-12.33915,Unknown
0.0004882813,0.1420898,-0.4594727,-0.09092379,-0.5355878,0.04528236,17.79672,-0.5236883,-161.4053,17.18398,-0.05817018,-162.8159,-0.1159668,-0.2175293,1.095215,0.00603056,0.4460382,0.03032825,-10.89609,5.780434,-12.44391,-11.1729,5.929269,-12.68471,Unknown
0.0009765625,0.1472168,-0.46875,0.07701516,-0.382916,-0.1073892,17.7907,-0.5214963,-161.4301,17.43551,-0.1138817,-162.5641,-0.114502,-0.2116699,1.10791,0.2655725,0.2170305,-0.01547329,-10.88921,5.784157,-12.44038,-10.76024,5.796434,-12.25514,Unknown
0.004150391,0.1433105,-0.4489746,0.1686182,-0.3065802,0.07581687,17.79141,-0.5256642,-161.4462,17.70212,-0.5045571,-162.2902,-0.1181641,-0.2160645,1.100586,0.1434351,0.07962596,-0.2292137,-10.89022,5.789927,-12.44719,-11.04502,6.014136,-12.61265,Unknown
-0.01098633,0.1462402,-0.4533691,-0.07565641,-0.0470382,0.2132213,17.79193,-0.4894194,-161.4557,17.87288,1.321151,-162.075,-0.1125488,-0.215332,1.096924,0.2961069,0.003290057,-0.01547329,-10.88906,5.789163,-12.44826,-11.04967,5.749305,-12.48951,Unknown
0.005859375,0.1518555,-0.4387207,0.07701516,0.1209008,-0.1531909,17.81904,-0.4923156,-161.4467,19.09082,-0.7230877,-160.8944,-0.1159668,-0.2097168,1.08252,0.2045038,-0.07304579,0.03032825,-10.88633,5.792382,-12.44851,-10.90323,6.003802,-12.48262,Unknown
0.005371094,0.1486816,-0.4616699,0.1686182,0.01403052,0.3658931,17.82214,-0.4949523,-161.4551,17.85012,-0.6344642,-162.1378,-0.107666,-0.2138672,1.097412,0.06709921,-0.1646488,0.01506107,-10.88715,5.784123,-12.44548,-10.97635,5.500473,-12.30821,Unknown
0.003417969,0.1481934,-0.4560547,0.3365571,-0.1844428,0.2742901,17.83099,-0.496113,-161.4616,18.00091,-0.4083846,-161.9941,-0.1125488,-0.2172852,1.092773,0.2503054,-0.3631221,0.09139694,-10.88924,5.778112,-12.44758,-11.18824,5.768234,-12.62198,Unknown
0.007080078,0.1430664,-0.451416,0.0006792545,-0.2455115,0.07581687,17.82604,-0.5066907,-161.4792,17.58284,-0.8565792,-162.3949,-0.1135254,-0.2172852,1.103271,0.219771,-0.5615954,0.1524656,-10.89013,5.770144,-12.44709,-11.08453,5.765019,-12.52798,Unknown
0.005615234,0.1462402,-0.4538574,-0.1672597,-0.5203207,-0.07685494,17.82423,-0.5176993,-161.4933,17.8585,-0.6746852,-162.1279,-0.1235352,-0.2202148,1.0979,0.3266413,-0.4547252,-0.01547329,-10.89298,5.773968,-12.45741,-11.27248,6.295533,-12.95185,Unknown
0.005859375,0.1445313,-0.4648438,-0.2130611,-0.5355878,-0.260061,17.81002,-0.5290108,-161.5216,17.27045,-0.6896157,-162.7149,-0.1152344,-0.2141113,1.084717,0.6167176,-0.347855,0.1982672,-10.88816,5.772377,-12.45805,-11.1051,5.950086,-12.63463,Unknown
0.0,0.1525879,-0.4519043,-0.2588627,-0.3065802,0.1368854,17.82317,-0.5229373,-161.516,18.65753,-0.0,-161.3425,-0.1154785,-0.2180176,1.091553,0.219771,0.262832,0.1066641,-10.89184,5.779251,-12.46204,-11.23406,5.922894,-12.73597,Unknown
0.003662109,0.1455078,-0.4633789,-0.1214581,-0.3065802,0.1216183,17.81369,-0.5253249,-161.5352,17.43254,-0.4320048,-162.5618,-0.1074219,-0.2133789,1.088867,0.2350382,0.09489316,0.0,-10.89149,5.775563,-12.46028,-11.03517,5.52976,-12.37442,Unknown
0.004638672,0.1467285,-0.447998,-0.04512215,-0.4134504,-0.0005190372,17.81943,-0.5321715,-161.5417,18.13377,-0.5637667,-161.8568,-0.111084,-0.2202148,1.094727,0.03656495,0.2780993,-0.168145,-10.89946,5.777761,-12.46749,-11.3172,5.681044,-12.69695,Unknown
0.003417969,0.140625,-0.4577637,0.07701516,-0.4745191,-0.0005190372,17.8057,-0.5366823,-161.5692,17.07651,-0.40894,-162.9183,-0.1101074,-0.2133789,1.091309,0.128168,0.3697023,0.07612977,-10.89976,5.78074,-12.46519,-11.00871,5.654984,-12.40867,Unknown
0.003173828,0.1442871,-0.4560547,0.1380839,-0.2455115,0.07581687,17.80287,-0.5374015,-161.5855,17.55599,-0.3801607,-162.4396,-0.105957,-0.2194824,1.10498,0.1129008,0.2780993,0.1524656,-10.90369,5.776946,-12.46226,-11.18444,5.373033,-12.43829,Unknown
-0.001708984,0.1430664,-0.4594727,0.04648089,-0.1997099,0.2284887,17.79335,-0.5253241,-161.6047,17.29496,0.2034724,-162.7038,-0.1120605,-0.217041,1.10498,0.1892367,0.1559618,0.07612977,-10.90416,5.777206,-12.46128,-11.0573,5.68294,-12.46513,Unknown
0.003173828,0.1474609,-0.4680176,0.1991527,-0.01650381,-0.01578617,17.79017,-0.5224719,-161.623,17.48799,-0.3705826,-162.5078,-0.1074219,-0.2138672,1.078125,0.1587023,0.1406947,0.01506107,-10.90707,5.77537,-12.46215,-11.16619,5.581978,-12.51595,Unknown
0.004638672,0.1437988,-0.4494629,0.07701516,0.04456491,0.03001523,17.79031,-0.5226309,-161.6351,17.7404,-0.5631798,-162.2501,-0.1140137,-0.2143555,1.091309,0.128168,-0.08831299,-0.09180916,-10.90812,5.775629,-12.46511,-11.05393,5.853253,-12.54271,Unknown
0.00390625,0.151123,-0.4501953,0.229687,-0.0470382,-0.1531909,17.80921,-0.5223417,-161.6336,18.55539,-0.4712878,-161.4382,-0.1164551,-0.2202148,1.099854,0.2655725,-0.04251146,0.1066641,-10.91101,5.777996,-12.46937,-11.26084,5.927313,-12.76188,Unknown
0.005859375,0.1513672,-0.4541016,0.2754886,0.1056336,-0.0005190372,17.82575,-0.5243685,-161.6319,18.43352,-0.7013269,-161.5522,-0.1098633,-0.2172852,1.093262,-0.02450383,-0.4852595,0.07612977,-10.91688,5.767885,-12.46997,-11.18611,5.629088,-12.55545,Unknown
0.006347656,0.1464844,-0.4555664,0.3060229,-0.2607787,-0.06158781,17.8302,-0.5329139,-161.6434,17.82323,-0.7599663,-162.1595,-0.1203613,-0.2167969,1.097656,0.1892367,-0.3173206,-0.168145,-10.91791,5.770662,-12.47764,-11.10772,6.139974,-12.72979,Unknown
0.008789063,0.145752,-0.4470215,0.1991527,-0.1691756,-0.06158781,17.83763,-0.5461604,-161.6497,18.05536,-1.070897,-161.9107,-0.1120605,-0.2160645,1.092529,0.4487787,-0.4699924,0.03032825,-10.91555,5.763256,-12.47883,-11.12984,5.745821,-12.55935,Unknown
0.008789063,0.1462402,-0.4448242,-0.01458788,-0.5203207,0.182687,17.84457,-0.5643924,-161.6494,18.19546,-1.075325,-161.7706,-0.1206055,-0.2172852,1.090576,0.1587023,-0.4089237,0.04559542,-10.91894,5.765779,-12.48532,-11.20145,6.189936,-12.83695,Unknown
0.002685547,0.1450195,-0.4511719,-0.1061909,-0.5813893,-0.06158781,17.84249,-0.5681446,-161.6609,17.81859,-0.3246823,-162.1783,-0.1132813,-0.2148438,1.088867,0.2350382,-0.3020534,0.1219313,-10.91917,5.76258,-12.48531,-11.1032,5.827885,-12.57438,Unknown
0.001464844,0.1489258,-0.4470215,-0.1672597,-0.6882596,-0.3058627,17.85169,-0.5704616,-161.6636,18.42547,-0.1781267,-161.5736,-0.1025391,-0.2150879,1.090332,0.3724428,-0.1188473,0.1219313,-10.91754,5.751012,-12.48036,-11.11156,5.271514,-12.32751,Unknown
0.004150391,0.1462402,-0.4594727,0.0,-0.5966565,-0.04632068,17.84775,-0.5776864,-161.6778,17.65447,-0.4931603,-162.3382,-0.114502,-0.213623,1.086182,0.02129769,0.1254275,0.07612977,-10.92021,5.755944,-12.48122,-11.06675,5.905416,-12.57912,Unknown
0.0,0.1474609,-0.4560547,-0.2588627,-0.4134504,-0.09212208,17.84535,-0.5722104,-161.6873,17.91812,-0.0,-162.0819,-0.1140137,-0.2143555,1.09082,0.08236647,0.6750459,0.0,-10.92177,5.767863,-12.48256,-11.0587,5.855758,-12.54814,Unknown
0.004882813,0.1462402,-0.4575195,0.01594663,-0.4439847,0.0147481,17.84316,-0.5785064,-161.6986,17.72486,-0.5824306,-162.2649,-0.1108398,-0.2150879,1.099365,-0.2382443,0.690313,-0.07654199,-10.92691,5.774993,-12.48221,-11.01547,5.650781,-12.41274,Unknown
0.005126953,0.1499023,-0.4619141,-0.02985501,-0.01650381,0.0147481,17.84543,-0.5792762,-161.7047,17.97847,-0.6048691,-162.0107,-0.107666,-0.2138672,1.097168,0.128168,0.3849695,-0.06127481,-10.92607,5.775185,-12.47969,-10.97871,5.501645,-12.31086,Unknown
0.002685547,0.1474609,-0.4550781,0.2602212,-0.123374,-0.1531909,17.85168,-0.5760582,-161.7138,17.95381,-0.3216504,-162.0431,-0.1123047,-0.2194824,1.089844,0.1587023,0.2933664,0.04559542,-10.93161,5.779648,-12.48432,-11.32801,5.768361,-12.74697,Unknown
0.004638672,0.1469727,-0.4482422,0.2602212,-0.3065802,0.3658931,17.86127,-0.5800113,-161.7113,18.15272,-0.5633986,-161.8379,-0.1181641,-0.2202148,1.103516,0.05183208,-0.01197708,0.04559542,-10.93673,5.783783,-12.48922,-11.22304,5.994612,-12.7606,Unknown
0.008056641,0.1437988,-0.4577637,0.2144198,-0.3523817,-0.0310533,17.85614,-0.5931757,-161.7282,17.4367,-0.9619642,-162.5351,-0.1157227,-0.2163086,1.089844,0.1587023,0.003290057,-0.03074045,-10.93881,5.787079,-12.49363,-11.16481,5.945987,-12.68557,Unknown
0.004638672,0.1477051,-0.4541016,0.0922823,-0.4134504,0.04528236,17.86072,-0.598521,-161.7325,18.01721,-0.5565591,-161.9736,-0.1120605,-0.2163086,1.094482,0.1892367,-0.2104504,-0.01547329,-10.93971,5.782959,-12.49495,-11.12292,5.735775,-12.54846,Unknown
0.003662109,0.1462402,-0.4587402,-0.1672597,-0.001236677,-0.0005190372,17.85466,-0.5952844,-161.7441,17.68106,-0.4357746,-162.3132,-0.112793,-0.2172852,1.103271,0.2961069,-0.1951832,0.1219313,-10.93826,5.778993,-12.49348,-11.08526,5.728073,-12.51124,Unknown
0.0004882813,0.1557617,-0.4619141,-0.01458788,-0.2455115,-0.01578617,17.87005,-0.5881355,-161.7368,18.63457,-0.05739119,-161.3653,-0.1166992,-0.2128906,1.092529,0.4182443,-0.2409847,0.1677328,-10.93266,5.779575,-12.49172,-10.96564,5.985235,-12.52849,Unknown
0.006347656,0.1420898,-0.4538574,-0.06038928,-0.2149771,-0.06158781,17.85941,-0.5948268,-161.755,17.38226,-0.7646926,-162.5999,-0.1174316,-0.2126465,1.089111,0.3266413,-0.2867863,0.04559542,-10.92892,5.780584,-12.49268,-10.98577,6.040849,-12.57354,Unknown
0.004394531,0.1425781,-0.4421387,0.04648089,-0.3065802,-0.07685494,17.86035,-0.5982765,-161.7634,17.87232,-0.5419775,-162.1189,-0.1132813,-0.2128906,1.098145,0.128168,-0.1951832,-0.0002061129,-10.92676,5.777758,-12.49055,-10.91497,5.782712,-12.38561,Unknown
0.004638672,0.1459961,-0.4465332,-0.1519923,-0.4134504,-0.09212208,17.863,-0.6037029,-161.7672,18.10448,-0.5657106,-161.886,-0.1159668,-0.2158203,1.095459,0.2350382,-0.2562519,-0.0002061129,-10.92647,5.777031,-12.49288,-11.08492,5.929755,-12.60694,Unknown
-0.002441406,0.1462402,-0.4519043,0.01594663,-0.6119237,0.2132213,17.86462,-0.5953338,-161.7698,17.9318,0.2945003,-162.0656,-0.1101074,-0.2145996,1.093994,0.2808397,-0.1646488,0.2746031,-10.92441,5.771719,-12.48738,-11.0439,5.64052,-12.43337,Unknown
0.005859375,0.1420898,-0.4523926,-0.1367252,-0.291313,0.091084,17.85416,-0.6015831,-161.7841,17.43536,-0.7079567,-162.5493,-0.1186523,-0.2160645,1.101318,0.2961069,-0.02724427,0.1524656,-10.92261,5.77661,-12.48786,-11.03743,6.034966,-12.61616,Unknown
0.001953125,0.1462402,-0.4460449,-0.06038928,-0.1997099,0.1674199,17.85923,-0.5972552,-161.7829,18.15208,-0.2383972,-161.8462,-0.1201172,-0.2045898,1.096436,0.1129008,0.1864962,0.07612977,-10.91266,5.786753,-12.48118,-10.50812,6.146701,-12.20934,Unknown
0.003173828,0.1489258,-0.4567871,0.1838853,-0.09283972,0.06054974,17.86589,-0.5942445,-161.7851,18.05705,-0.3784865,-161.9387,-0.1169434,-0.2124023,1.080811,0.08236647,0.2322977,-0.168145,-10.9143,5.795639,-12.48691,-11.05524,6.060331,-12.64431,Unknown
0.004394531,0.1479492,-0.4519043,0.1991527,-0.2607787,0.2132213,17.87404,-0.5967831,-161.7836,18.12716,-0.5295004,-161.8646,-0.1098633,-0.2126465,1.083252,0.02129769,0.1864962,0.06086259,-10.91672,5.796135,-12.48547,-11.05087,5.683389,-12.45961,Unknown
0.0004882813,0.1452637,-0.4455566,-0.1367252,-0.2149771,-0.06158781,17.8757,-0.5892015,-161.7876,18.05738,-0.05969725,-161.9425,-0.1181641,-0.2143555,1.083008,0.2045038,0.1559618,-0.01547329,-10.918,5.804689,-12.49069,-11.13123,6.109167,-12.73528,Unknown
0.0004882813,0.1506348,-0.4509277,-0.04512215,-0.5203207,0.182687,17.88692,-0.5867531,-161.7796,18.47216,-0.05884542,-161.5277,-0.1152344,-0.2145996,1.085449,0.219771,0.04909158,-0.1223435,-10.91865,5.80828,-12.49576,-11.12255,5.945745,-12.648,Unknown
0.006835938,0.1403809,-0.4602051,0.1686182,-0.2455115,0.2742901,17.8709,-0.5949069,-161.8003,16.96203,-0.8139922,-163.0173,-0.1108398,-0.2126465,1.090576,0.1587023,0.04909158,0.06086259,-10.91751,5.80677,-12.49297,-10.97824,5.696727,-12.40106,Unknown
0.01245117,0.1481934,-0.4536133,0.1838853,0.01403052,-0.0005190372,17.8779,-0.6126946,-161.8013,18.08561,-1.49461,-161.8484,-0.1091309,-0.2104492,1.091797,0.2045038,0.04909158,0.01506107,-10.9133,5.803467,-12.4879,-10.85743,5.605545,-12.25049,Unknown
0.0007324219,0.1477051,-0.4628906,0.3518243,-0.031771,-0.0310533,17.87946,-0.602635,-161.8118,17.69749,-0.0863674,-162.3023,-0.1118164,-0.2180176,1.091553,0.2350382,0.03382444,0.06086259,-10.91633,5.802621,-12.49027,-11.23785,5.736338,-12.65141,Unknown
0.002929688,0.1516113,-0.4533691,0.1686182,0.01403052,0.0147481,17.89415,-0.5973987,-161.8054,18.49011,-0.3511295,-161.5063,-0.1149902,-0.2124023,1.090576,0.3419085,-0.1341145,0.1219313,-10.91222,5.802773,-12.48843,-10.96177,5.908805,-12.48781,Unknown
0.004150391,0.1452637,-0.4523926,0.1838853,-0.1539084,0.1063511,17.89499,-0.5977225,-161.8116,17.80117,-0.5004682,-162.1913,-0.1113281,-0.2160645,1.094238,0.2045038,-0.3020534,0.2898702,-10.91324,5.796278,-12.48487,-11.1138,5.699989,-12.52358,Unknown
0.006835938,0.1489258,-0.4538574,0.0922823,-0.4134504,0.03001523,17.90174,-0.6082439,-161.8112,18.16447,-0.8199099,-161.8157,-0.1098633,-0.2133789,1.094482,0.1892367,-0.5157939,0.1524656,-10.91176,5.785307,-12.4803,-10.97811,5.626865,-12.36821,Unknown
0.003417969,0.1479492,-0.4538574,-0.2435954,-0.6729923,0.07581687,17.89931,-0.619453,-161.8121,18.05454,-0.4102366,-161.9405,-0.1071777,-0.2097168,1.093262,0.3266413,-0.4699924,0.04559542,-10.90233,5.768997,-12.47281,-10.80836,5.499454,-12.1572,Unknown
-0.007080078,0.1494141,-0.4660645,0.3060229,-0.2149771,0.0147481,17.90129,-0.5936485,-161.8198,17.77324,0.8287829,-162.2061,-0.09741211,-0.2116699,1.090576,0.219771,-0.04251146,-0.03074045,-10.89988,5.753216,-12.46501,-10.94147,5.011185,-12.06031,Unknown
0.001220703,0.1474609,-0.456543,0.2144198,-0.1081069,-0.07685494,17.90441,-0.5862804,-161.8265,17.90012,-0.1457812,-162.0992,-0.1113281,-0.2197266,1.102539,0.02129769,-0.05777865,0.1371985,-10.90588,5.75041,-12.46557,-11.21532,5.655387,-12.59375,Unknown
0.002441406,0.1501465,-0.4523926,0.2907557,-0.1691756,-0.01578617,17.91781,-0.5829109,-161.823,18.36046,-0.293462,-161.637,-0.1062012,-0.2194824,1.084961,0.128168,-0.3173206,0.2593359,-10.91354,5.740342,-12.46576,-11.38335,5.480261,-12.66581,Unknown
0.0004882813,0.1499023,-0.4511719,0.2907557,-0.1386412,-0.0310533,17.93131,-0.5744676,-161.8194,18.37911,-0.05884541,-161.6208,-0.1152344,-0.2209473,1.091064,0.4029771,-0.3783893,0.09139694,-10.91707,5.738172,-12.47241,-11.38627,5.909939,-12.86531,Unknown
0.00390625,0.1450195,-0.4533691,0.1380839,-0.1691756,-0.1073892,17.92946,-0.5748687,-161.8297,17.73734,-0.4701838,-162.256,-0.1132813,-0.2177734,1.094482,0.3266413,-0.439458,0.1219313,-10.91783,5.732876,-12.47399,-11.19511,5.796363,-12.64133,Unknown
0.004638672,0.1467285,-0.4538574,-0.06038928,-0.3981832,-0.1989923,17.92828,-0.5803683,-161.8375,17.91473,-0.5571816,-162.076,-0.1159668,-0.2177734,1.087158,0.1892367,-0.4852595,0.01506107,-10.92199,5.730504,-12.48002,-11.26499,5.970963,-12.78644,Unknown
0.006347656,0.1452637,-0.4484863,-0.3351984,-0.7187939,-0.01578617,17.92369,-0.5947557,-161.8418,17.94534,-0.7714312,-162.0369,-0.1140137,-0.2155762,1.100586,0.1739695,-0.1188473,0.183,-10.92149,5.730244,-12.47761,-11.0249,5.804846,-12.49381,Unknown
0.004150391,0.1437988,-0.4606934,0.0,-0.810397,0.1063511,17.91191,-0.6046278,-161.8565,17.33434,-0.4927207,-162.6582,-0.1130371,-0.2145996,1.098877,-0.05503809,-0.1188473,0.2746031,-10.92375,5.729191,-12.47296,-10.99363,5.764982,-12.44704,Unknown
0.001708984,0.1477051,-0.4560547,-0.3504658,-0.382916,-0.07685494,17.90743,-0.6022493,-161.8616,17.94577,-0.2042591,-162.053,-0.1120605,-0.2150879,1.0896,0.2503054,0.2322977,0.1371985,-10.92378,5.733253,-12.47246,-11.10954,5.761562,-12.54864,Unknown
0.003417969,0.1425781,-0.4543457,-0.197794,-0.3523817,0.03001523,17.89501,-0.6032639,-161.8754,17.4219,-0.4112458,-162.5729,-0.1108398,-0.2055664,1.096191,0.1129008,0.4918396,0.09139694,-10.91513,5.738845,-12.46229,-10.56853,5.675489,-12.02709,Unknown
0.0004882813,0.1442871,-0.4609375,0.0006792545,-0.2607787,0.1216183,17.88475,-0.5961905,-161.8885,17.38166,-0.05792309,-162.6182,-0.1113281,-0.2119141,1.087646,0.08236647,0.6139771,-0.0002061129,-10.915,5.747836,-12.4613,-10.96931,5.737124,-12.4122,Unknown
0.002197266,0.1506348,-0.4550781,0.04648089,0.07509923,0.1674199,17.89408,-0.5883418,-161.8817,18.31479,-0.2626271,-161.6832,-0.1166992,-0.2111816,1.091309,0.03656495,0.2933664,0.01506107,-10.91396,5.757347,-12.46118,-10.89147,5.993382,-12.46714,Unknown
0.006103516,0.1435547,-0.454834,0.4128931,0.1819695,-0.168458,17.89257,-0.5885634,-161.8959,17.51525,-0.7331715,-162.4684,-0.1135254,-0.2111816,1.091064,-0.009236574,0.4002366,0.01506107,-10.91375,5.764739,-12.45961,-10.89705,5.83277,-12.39377,Unknown
0.001220703,0.1452637,-0.4484863,0.489229,0.1514351,-0.2447939,17.90085,-0.5775332,-161.9026,17.94695,-0.1483608,-162.0524,-0.1103516,-0.2099609,1.094971,0.1587023,0.3086336,-0.1070763,-10.90917,5.767033,-12.45644,-10.80131,5.652566,-12.22265,Unknown
0.0007324219,0.1491699,-0.4592285,0.1075497,-0.001236677,0.06054974,17.90432,-0.567739,-161.9038,17.99519,-0.08691063,-162.0046,-0.112793,-0.2094727,1.090088,0.05183208,0.01855725,0.0,-10.90665,5.768006,-12.45355,-10.82104,5.802046,-12.31165,Unknown
0.005615234,0.145752,-0.4533691,0.1686182,-0.07757253,0.1063511,17.90512,-0.5710356,-161.9075,17.82061,-0.6755555,-162.1657,-0.1154785,-0.2106934,1.094238,0.2503054,-0.3631221,0.09139694,-10.90164,5.765636,-12.45081,-10.84004,5.916426,-12.38404,Unknown
0.01342773,0.1494141,-0.4553223,0.04648089,-0.2149771,-0.1379237,17.91094,-0.5950865,-161.9068,18.15988,-1.605038,-161.7644,-0.1140137,-0.2094727,1.096191,0.219771,-0.8516718,0.0,-10.89539,5.753632,-12.44728,-10.76162,5.833123,-12.27418,Unknown
0.003662109,0.1442871,-0.4504395,0.1228168,-0.1539084,0.04528236,17.90963,-0.5941686,-161.9127,17.76102,-0.4436068,-162.2331,-0.112793,-0.2192383,1.099854,0.1587023,-0.4852595,0.0,-10.89962,5.746765,-12.45103,-11.21592,5.743157,-12.63498,Unknown
0.007324219,0.1464844,-0.4489746,-0.06038928,-0.1081069,0.2742901,17.9119,-0.6016445,-161.9086,18.06741,-0.8885089,-161.9092,-0.1147461,-0.2155762,1.096191,0.128168,-0.2562519,0.1066641,-10.90108,5.745348,-12.45163,-11.0668,5.864272,-12.55941,Unknown
0.004638672,0.1452637,-0.4379883,-0.01458788,-0.291313,-0.0005190372,17.9204,-0.6054127,-161.9032,18.34772,-0.5759408,-161.6426,-0.1101074,-0.21875,1.101807,0.128168,-0.1493817,0.2288015,-10.90468,5.740211,-12.44987,-11.17509,5.598269,-12.53141,Unknown
0.001464844,0.1447754,-0.4672852,-0.06038928,-0.2607787,0.1674199,17.90539,-0.6005692,-161.9184,17.21407,-0.1715645,-162.785,-0.1166992,-0.2094727,1.091553,0.219771,-0.2715191,0.06086259,-10.89942,5.741292,-12.44777,-10.80308,5.99383,-12.38963,Unknown
-0.001953125,0.1464844,-0.4482422,-0.09092379,-0.5966565,-0.1226563,17.90788,-0.5925827,-161.9199,18.0971,0.2373032,-161.9012,-0.1113281,-0.2216797,1.105469,0.1739695,-0.08831299,0.1524656,-10.90454,5.737951,-12.44952,-11.28353,5.639161,-12.64751,Unknown
0.006835938,0.1413574,-0.454834,-0.1825268,-0.642458,-0.06158781,17.8923,-0.6066207,-161.9367,17.26284,-0.8222727,-162.7163,-0.1103516,-0.2131348,1.083984,0.1892367,0.09489316,0.06086259,-10.90503,5.738673,-12.44933,-11.06791,5.70431,-12.48461,Unknown
0.008056641,0.1496582,-0.4521484,-0.04512215,-0.4592519,0.07581687,17.90002,-0.6206218,-161.9301,18.3115,-0.9691241,-161.661,-0.105957,-0.213623,1.099854,0.05183208,0.339168,0.07612977,-10.90501,5.736933,-12.44388,-10.9422,5.402401,-12.23285,Unknown
0.003417969,0.1499023,-0.454834,-0.09092379,-0.1844428,0.1216183,17.90549,-0.6190991,-161.9248,18.2405,-0.4089207,-161.7546,-0.1137695,-0.2177734,1.091309,0.1892367,0.430771,-0.1376107,-10.90865,5.745274,-12.45079,-11.226,5.837346,-12.68819,Unknown
0.002197266,0.1520996,-0.4562988,0.2602212,-0.07757253,0.07581687,17.9199,-0.6130924,-161.9164,18.43475,-0.2617424,-161.5632,-0.112793,-0.2148438,1.096191,0.128168,0.3544351,-0.01547329,-10.90923,5.750896,-12.45163,-11.0321,5.765856,-12.48169,Unknown
0.0004882813,0.1533203,-0.4570313,0.3823588,0.1514351,0.04528236,17.93803,-0.5997651,-161.9065,18.54505,-0.05803483,-161.4548,-0.1130371,-0.2084961,1.07959,0.1892367,0.3239008,0.07612977,-10.90572,5.758031,-12.44928,-10.87269,5.869623,-12.39005,Unknown
0.01196289,0.1503906,-0.4592285,0.2907557,0.227771,0.1063511,17.94608,-0.6127844,-161.9031,18.12712,-1.41814,-161.8136,-0.1064453,-0.2124023,1.091797,-0.08557248,0.1101603,-0.1376107,-10.90803,5.753823,-12.44785,-10.95834,5.466633,-12.27656,Unknown
0.002197266,0.1472168,-0.4553223,0.2754886,0.227771,0.06054974,17.94955,-0.6024422,-161.9057,17.91709,-0.263083,-162.0808,-0.1108398,-0.2167969,1.094727,-0.03977096,-0.2867863,0.01506107,-10.91338,5.747971,-12.44946,-11.14622,5.672015,-12.53955,Unknown
0.006347656,0.1459961,-0.4521484,0.2144198,-0.1844428,-0.1837251,17.95158,-0.6084128,-161.9121,17.89331,-0.7654086,-162.0892,-0.1101074,-0.2114258,1.093506,-0.02450383,-0.5615954,0.0,-10.91326,5.737676,-12.44643,-10.88919,5.645985,-12.2978,Unknown
0.0004882813,0.1499023,-0.4472656,0.1380839,-0.291313,-0.06158781,17.96515,-0.601713,-161.9042,18.52871,-0.05930765,-161.4712,-0.1123047,-0.2092285,1.092041,0.2350382,-0.4699924,0.09139694,-10.90735,5.731362,-12.44152,-10.79053,5.767438,-12.26794,Unknown
-0.0007324219,0.1474609,-0.4482422,-0.2130611,-0.382916,-0.09212208,17.96692,-0.593529,-161.9033,18.20994,0.08893174,-161.7898,-0.1171875,-0.2177734,1.093262,0.2350382,-0.5005267,0.2135344,-10.90981,5.729401,-12.44447,-11.20309,6.001198,-12.74611,Unknown
0.005859375,0.145752,-0.4487305,-0.07565641,-0.4287176,-0.1989923,17.96632,-0.6021909,-161.908,17.99286,-0.7115188,-161.9921,-0.1140137,-0.2189941,1.102539,0.4029771,-0.347855,0.2746031,-10.90921,5.725532,-12.44399,-11.17619,5.791626,-12.62223,Unknown
0.0078125,0.1459961,-0.449707,-0.09092379,-0.382916,0.1521528,17.96533,-0.6147087,-161.9074,17.98333,-0.9466394,-161.9901,-0.1118164,-0.2172852,1.099854,0.1129008,-0.07304579,0.07612977,-10.91176,5.723861,-12.44452,-11.11947,5.695679,-12.52663,Unknown
0.001464844,0.1428223,-0.4536133,-0.2741299,-0.5050534,0.04528236,17.95152,-0.6133685,-161.919,17.47677,-0.1764825,-162.5223,-0.1115723,-0.217041,1.09375,0.05183208,-0.1035802,0.03032825,-10.91611,5.722138,-12.44674,-11.16734,5.71388,-12.57791,Unknown
0.003417969,0.1447754,-0.4506836,-0.06038928,-0.7187939,0.1521528,17.94777,-0.6199414,-161.9221,17.80836,-0.4137003,-162.1865,-0.1091309,-0.2214355,1.094727,0.3266413,0.1254275,0.2593359,-10.92059,5.721151,-12.44816,-11.38027,5.580595,-12.70795,Unknown
0.005126953,0.1469727,-0.4538574,-0.09092379,-0.5661222,-0.1226563,17.94633,-0.6281792,-161.9264,17.94244,-0.615731,-162.0463,-0.1105957,-0.220459,1.104004,0.03656495,0.3239008,0.03032825,-10.9264,5.723701,-12.45062,-11.23807,5.610586,-12.5936,Unknown
0.001220703,0.1459961,-0.4528809,-0.04512215,-0.4439847,0.1674199,17.94409,-0.625082,-161.928,17.86781,-0.1469867,-162.1315,-0.1147461,-0.2192383,1.091309,0.2655725,0.1559618,0.2898702,-10.92994,5.729232,-12.45286,-11.29855,5.885591,-12.77563,Unknown
0.007324219,0.1486816,-0.4506836,0.01594663,-0.123374,0.1674199,17.95056,-0.6320777,-161.9214,18.2556,-0.8841869,-161.7215,-0.1079102,-0.2226563,1.093506,0.08236647,0.339168,0.01506107,-10.93923,5.730098,-12.45857,-11.4549,5.523246,-12.74962,Unknown
-0.0007324219,0.1503906,-0.454834,0.0006792545,-0.2149771,0.3964274,17.95749,-0.6208444,-161.9112,18.29642,0.08759927,-161.7033,-0.1137695,-0.2097168,1.106934,0.219771,0.09489316,-0.03074045,-10.93067,5.732217,-12.45312,-10.67304,5.766332,-12.16347,Unknown
0.006591797,0.1464844,-0.4660645,0.2449541,0.2125039,0.0147481,17.9511,-0.620556,-161.9235,17.44633,-0.7730326,-162.5354,-0.1130371,-0.2111816,1.099854,0.03656495,0.1559618,-0.1376107,-10.92776,5.735286,-12.45194,-10.81341,5.763403,-12.28628,Unknown
0.004394531,0.1494141,-0.4399414,0.3976259,0.04456491,-0.2142596,17.97269,-0.6183715,-161.9126,18.75778,-0.5419049,-161.2338,-0.1135254,-0.2133789,1.094727,-0.009236574,-0.04251146,-0.03074045,-10.92877,5.736236,-12.45233,-10.97213,5.811923,-12.45032,Unknown
0.005126953,0.1550293,-0.4562988,0.3365571,-0.001236677,0.04528236,17.9938,-0.6182141,-161.8982,18.76429,-0.6095293,-161.2251,-0.1088867,-0.2092285,1.104492,0.1739695,-0.1951832,0.1524656,-10.92099,5.729102,-12.44199,-10.67612,5.532562,-12.05454,Unknown
0.006347656,0.145752,-0.4555664,0.2602212,-0.09283972,0.0147481,17.99254,-0.622421,-161.9049,17.73971,-0.7603216,-162.2429,-0.1157227,-0.2138672,1.092285,0.1739695,-0.2867863,0.04559542,-10.92037,5.72902,-12.44349,-11.0181,5.935786,-12.55072,Unknown
0.005371094,0.1506348,-0.4545898,0.1838853,-0.01650381,0.2132213,18.00204,-0.6230667,-161.8967,18.33215,-0.6425762,-161.6558,-0.1157227,-0.2172852,1.087402,0.3266413,-0.607397,0.04559542,-10.92193,5.724665,-12.44908,-11.2382,5.957717,-12.75631,Unknown
0.006835938,0.1474609,-0.4489746,-0.02985501,-0.5355878,0.091084,18.00517,-0.6350534,-161.8934,18.18025,-0.8287504,-161.7995,-0.114502,-0.2138672,1.085938,0.2350382,-0.2409847,0.2593359,-10.92166,5.724758,-12.44814,-11.08149,5.906433,-12.59267,Unknown
0.004394531,0.1462402,-0.447998,-0.1367252,-0.5203207,0.259023,18.0046,-0.6406865,-161.89,18.07745,-0.5342686,-161.9141,-0.109375,-0.2185059,1.093506,0.2655725,-0.3936565,0.03032825,-10.92424,5.716513,-12.45065,-11.24542,5.601843,-12.59621,Unknown
0.003417969,0.1416016,-0.439209,-0.1672597,-0.642458,0.0147481,17.99943,-0.6458042,-161.8945,17.86889,-0.4243638,-162.1257,-0.1120605,-0.2121582,1.093994,0.2808397,-0.1951832,-0.03074045,-10.92001,5.714159,-12.4495,-10.91938,5.742302,-12.37025,Unknown
0.001220703,0.1467285,-0.4592285,-0.3046641,-0.291313,-0.1379237,17.98935,-0.6400719,-161.9043,17.71919,-0.1450758,-162.2802,-0.1125488,-0.2224121,1.093262,-0.02450383,0.003290057,0.0,-10.93078,5.715136,-12.45739,-11.44041,5.760584,-12.84408,Unknown
0.004394531,0.1455078,-0.4541016,-0.01458788,-0.4134504,0.1521528,17.98467,-0.6439085,-161.9085,17.76624,-0.5280147,-162.2254,-0.1137695,-0.2155762,1.092529,0.1434351,0.1864962,-0.0002061129,-10.93213,5.720242,-12.45979,-11.10359,5.833339,-12.57732,Unknown
0.001464844,0.1486816,-0.4592285,-0.1672597,-0.382916,0.1368854,17.98132,-0.6401367,-161.9095,17.94,-0.1738751,-162.0591,-0.1108398,-0.2224121,1.08667,0.1739695,0.5681756,0.04559542,-10.94111,5.728319,-12.46754,-11.50904,5.706508,-12.88097,Unknown
0.003662109,0.1474609,-0.4611816,-0.1367252,-0.4134504,0.091084,17.9743,-0.6420786,-161.9152,17.73094,-0.4333473,-162.2634,-0.1083984,-0.2121582,1.102539,0.219771,0.5071069,-0.03074045,-10.93588,5.731499,-12.46251,-10.84109,5.51458,-12.19349,Unknown
0.00390625,0.1411133,-0.4602051,-0.02985501,-0.3981832,-0.04632068,17.95534,-0.6439992,-161.9365,17.0466,-0.4649525,-162.9467,-0.1130371,-0.2116699,1.095947,0.2503054,0.430771,-0.0002061129,-10.93123,5.738431,-12.46027,-10.87513,5.782601,-12.35022,Unknown
0.003417969,0.1518555,-0.4472656,-0.06038928,-0.3218473,-0.07685494,17.96987,-0.646981,-161.9244,18.75285,-0.4145977,-161.2422,-0.1108398,-0.2143555,1.089844,-0.02450383,0.4155039,0.06086259,-10.93461,5.747409,-12.45934,-11.07147,5.698715,-12.48517,Unknown
0.003662109,0.1435547,-0.4431152,-0.04512215,-0.6119237,0.1368854,17.96881,-0.6520459,-161.9247,17.95004,-0.4504599,-162.0439,-0.1147461,-0.2116699,1.104004,0.2045038,-0.4852595,0.2440687,-10.92885,5.741896,-12.45262,-10.79678,5.828398,-12.30295,Unknown
0.005371094,0.1455078,-0.4455566,0.0,-0.6119237,-0.01578617,17.97112,-0.661131,-161.9245,18.08453,-0.6565351,-161.9027,-0.1113281,-0.2158203,1.096436,0.0976336,-0.02724427,0.2135344,-10.93044,5.740444,-12.4502,-11.08008,5.689305,-12.48846,Unknown
0.008056641,0.1418457,-0.4587402,-0.1672597,-0.6729923,0.06054974,17.95283,-0.6770265,-161.941,17.17948,-0.9612609,-162.792,-0.109375,-0.2141113,1.09375,0.2045038,0.06435877,-0.06127481,-10.92927,5.738679,-12.45005,-11.02247,5.604905,-12.39767,Unknown
0.006347656,0.1445313,-0.4602051,-0.2283282,-0.5203207,0.06054974,17.93909,-0.6862134,-161.9523,17.43377,-0.753934,-162.5489,-0.1125488,-0.2131348,1.08252,0.1434351,0.2780993,-0.07654199,-10.93018,5.744487,-12.45322,-11.08013,5.824646,-12.55233,Unknown
0.0009765625,0.1447754,-0.4533691,-0.02985501,-0.4287176,-0.09212208,17.93407,-0.6811426,-161.9604,17.70992,-0.1175668,-162.2897,-0.1101074,-0.217041,1.095947,-0.02450383,0.5223741,0.1219313,-10.93488,5.749846,-12.45277,-11.14719,5.62854,-12.5203,Unknown
0.003662109,0.1445313,-0.4516602,0.04648089,-0.07757253,-0.07685494,17.93096,-0.677509,-161.9673,17.74412,-0.4424497,-162.25,-0.1120605,-0.215332,1.097412,0.03656495,0.4613054,-0.03074045,-10.93655,5.756073,-12.45362,-11.04541,5.722091,-12.47289,Unknown
-0.01049805,0.1479492,-0.4543457,0.0922823,-0.01650381,0.3353589,17.93443,-0.6390454,-161.9611,18.03237,1.258607,-161.9207,-0.109375,-0.2185059,1.091064,0.00603056,0.4460382,0.06086259,-10.94312,5.760221,-12.45607,-11.2697,5.613818,-12.62349,Unknown
0.002441406,0.1469727,-0.4609375,0.06174803,-0.1844428,0.07581687,17.93035,-0.6347584,-161.967,17.68496,-0.2891288,-162.3125,-0.1130371,-0.2182617,1.091797,0.02129769,-0.05777865,0.07612977,-10.94887,5.760108,-12.45958,-11.24643,5.797051,-12.68745,Unknown
0.005859375,0.1523438,-0.4553223,0.3060229,-0.2607787,-0.1073892,17.9465,-0.640136,-161.9591,18.49801,-0.699184,-161.4878,-0.1140137,-0.2185059,1.092529,0.1892367,-0.2257175,-0.1070763,-10.95194,5.758223,-12.46631,-11.25041,5.842796,-12.71251,Unknown
0.002929688,0.1508789,-0.4555664,0.1686182,-0.2302443,0.1979542,17.95637,-0.6374876,-161.9507,18.32398,-0.3497733,-161.6724,-0.1083984,-0.2143555,1.092285,0.1587023,-0.07304579,0.1524656,-10.95172,5.753297,-12.46294,-11.04998,5.562071,-12.40253,Unknown
0.008056641,0.1455078,-0.4499512,0.3060229,-0.09283972,-0.428,17.96009,-0.6456236,-161.959,17.91778,-0.9760474,-162.0538,-0.1193848,-0.2185059,1.092773,0.4029771,-0.3325878,0.1677328,-10.95161,5.755637,-12.46794,-11.2423,6.114701,-12.83594,Unknown
0.0007324219,0.142334,-0.4484863,0.2144198,-0.001236677,-0.09212208,17.95619,-0.6345131,-161.969,17.60761,-0.08918581,-162.3922,-0.111084,-0.2141113,1.102539,0.3266413,-0.1188473,-0.04600763,-10.94649,5.751746,-12.46607,-10.93594,5.648477,-12.34066,Unknown
0.002441406,0.1477051,-0.4575195,0.1838853,0.05983204,-0.168458,17.95761,-0.6267623,-161.9742,17.89186,-0.2909515,-162.1056,-0.114502,-0.217041,1.097656,0.0976336,-0.1035802,0.1524656,-10.94865,5.752048,-12.46655,-11.12604,5.842946,-12.60185,Unknown
0.003417969,0.1513672,-0.451416,-0.1214581,-0.382916,0.06054974,17.96741,-0.6280821,-161.963,18.53665,-0.4113093,-161.4584,-0.1166992,-0.2116699,1.096436,0.1587023,-0.2867863,0.2440687,-10.94468,5.752112,-12.46227,-10.86678,5.966067,-12.43196,Unknown
0.006835938,0.1467285,-0.4594727,-0.02985501,-0.5050534,-0.2142596,17.96179,-0.6391844,-161.9724,17.70859,-0.8119801,-162.2716,-0.1152344,-0.2214355,1.091797,0.2350382,-0.3783893,0.183,-10.9504,5.749621,-12.4679,-11.4034,5.905647,-12.87857,Unknown
0.01000977,0.1447754,-0.4453125,-0.04512215,-0.9478015,0.07581687,17.962,-0.6648255,-161.9708,18.00559,-1.224609,-161.9499,-0.112793,-0.2092285,1.096436,0.2961069,-0.2867863,0.1371985,-10.942,5.745814,-12.46116,-10.74825,5.770097,-12.2318,Unknown
0.002685547,0.142334,-0.4541016,-0.197794,-0.8409313,0.2132213,17.94791,-0.6703573,-161.9801,17.40284,-0.3233315,-162.594,-0.1079102,-0.2094727,1.091797,0.1739695,0.3086336,-0.04600763,-10.93679,5.746318,-12.45619,-10.80939,5.54415,-12.1789,Unknown
0.001220703,0.1442871,-0.4597168,-0.2435954,-0.5050534,0.1063511,17.93387,-0.6672776,-161.9904,17.42497,-0.1451576,-162.5744,-0.1096191,-0.2133789,1.084229,0.08236647,0.3697023,-0.03074045,-10.93842,5.750131,-12.45704,-11.0786,5.665237,-12.47591,Unknown
0.003662109,0.1445313,-0.458252,0.04648089,-0.3981832,-0.06158781,17.92592,-0.6681284,-162.0013,17.50459,-0.4366651,-162.4896,-0.121582,-0.2194824,1.08667,-0.05503809,0.690313,0.01506107,-10.9474,5.769773,-12.46772,-11.34985,6.258636,-13.00152,Unknown
0.005371094,0.1416016,-0.4594727,0.0922823,0.04456491,0.2437558,17.9114,-0.6668678,-162.0146,17.12729,-0.6400371,-162.86,-0.1176758,-0.2119141,1.102539,0.128168,0.5529084,0.1524656,-10.94284,5.782717,-12.46396,-10.81989,5.983502,-12.39929,Unknown
0.0078125,0.1481934,-0.451416,0.229687,0.02929771,0.1521528,17.91998,-0.6719407,-162.0081,18.17172,-0.9420445,-161.8022,-0.1103516,-0.2111816,1.096924,-0.02450383,0.3544351,-0.04600763,-10.94122,5.785109,-12.46047,-10.84392,5.641764,-12.25548,Unknown
0.0004882813,0.1464844,-0.4475098,0.2602212,-0.1691756,-0.0310533,17.9279,-0.662177,-162.0059,18.12493,-0.05941382,-161.875,-0.1147461,-0.2209473,1.096191,0.08236647,-0.01197708,-0.2444809,-10.9479,5.786407,-12.47077,-11.33548,5.85881,-12.79593,Unknown
0.005371094,0.1518555,-0.4597168,0.1533511,-0.123374,-0.06158781,17.93717,-0.6634593,-162.0009,18.27846,-0.6356075,-161.7097,-0.1147461,-0.217041,1.091797,0.2503054,-0.08831299,0.0,-10.94893,5.787087,-12.47482,-11.18336,5.885338,-12.673,Unknown
0.005615234,0.1469727,-0.456543,0.1228168,-0.01650381,0.0147481,17.9371,-0.6638481,-162.0036,17.84341,-0.6707739,-162.1431,-0.109375,-0.2163086,1.100342,0.1892367,-0.1951832,0.07612977,-10.94853,5.77989,-12.47266,-11.06838,5.570678,-12.42299,Unknown
0.0002441406,0.1489258,-0.4489746,0.2907557,-0.1386412,0.1674199,17.94965,-0.6532006,-161.994,18.35078,-0.02957156,-161.6492,-0.1135254,-0.2131348,1.087646,0.2655725,-0.439458,-0.01547329,-10.94623,5.774799,-12.4738,-11.02873,5.848352,-12.51799,Unknown
0.002929688,0.151123,-0.4575195,0.1228168,-0.01650381,0.091084,17.95803,-0.6473466,-161.9871,18.27853,-0.3483716,-161.7179,-0.1120605,-0.2312012,1.097412,0.2961069,-0.179916,-0.07654199,-10.9597,5.770779,-12.48898,-11.8372,5.706057,-13.17681,Unknown
0.001708984,0.1489258,-0.4567871,0.0006792545,-0.2302443,0.1979542,17.96003,-0.642086,-161.9831,18.05734,-0.2038026,-161.9414,-0.107666,-0.2072754,1.097168,0.00603056,-0.4089237,-0.1070763,-10.95338,5.759107,-12.48124,-10.64818,5.50773,-12.01799,Unknown
0.003417969,0.1486816,-0.4494629,0.1075497,-0.4592519,-0.06158781,17.96837,-0.6438184,-161.9781,18.30364,-0.4136565,-161.6914,-0.119873,-0.2094727,1.099854,0.2808397,-0.347855,0.2135344,-10.94488,5.761374,-12.47622,-10.72112,6.111122,-12.37656,Unknown
-0.0002441406,0.1479492,-0.4484863,0.06174803,-0.7035267,-0.260061,17.97505,-0.6406915,-161.9773,18.25698,0.02961979,-161.743,-0.1137695,-0.2131348,1.092529,0.3266413,-0.4699924,-0.03074045,-10.9408,5.755953,-12.47653,-10.98091,5.835785,-12.46955,Unknown
0.0002441406,0.1447754,-0.4477539,-0.2283282,-0.7187939,-0.01578617,17.97033,-0.6397429,-161.9796,17.91793,-0.02972564,-162.082,-0.125,-0.2158203,1.094727,0.219771,-0.3020534,0.1219313,-10.94018,5.763939,-12.48178,-11.08237,6.39205,-12.83435,Unknown
-0.0004882813,0.1481934,-0.4541016,-0.2283282,-0.642458,0.1216183,17.96927,-0.6345911,-161.9769,18.07378,0.05856845,-161.9261,-0.1162109,-0.232666,1.098877,0.4182443,-0.1035802,0.1066641,-10.95345,5.765377,-12.49699,-11.89032,5.906842,-13.31533,Unknown
0.004394531,0.1450195,-0.4492188,-0.2283282,-0.1691756,-0.07685494,17.96434,-0.6350537,-161.9805,17.89063,-0.5333811,-162.1009,-0.1081543,-0.2172852,1.098633,0.1892367,0.262832,0.03032825,-10.9543,5.764256,-12.49576,-11.13498,5.516163,-12.4579,Unknown
0.004882813,0.1447754,-0.4504395,-0.01458788,-0.1691756,-0.06158781,17.96118,-0.6366651,-161.9853,17.8169,-0.5912801,-162.1726,-0.1113281,-0.2202148,1.086182,0.3266413,0.4002366,-0.0002061129,-10.95846,5.769578,-12.50183,-11.40276,5.736191,-12.79908,Unknown
-0.001953125,0.1484375,-0.4609375,0.1228168,-0.07757253,-0.1073892,17.96076,-0.6204503,-161.9901,17.85017,0.2310903,-162.1482,-0.1115723,-0.2143555,1.0896,-0.05503809,0.3086336,-0.1070763,-10.96157,5.77347,-12.50346,-11.07314,5.737351,-12.50479,Unknown
0.004638672,0.1428223,-0.453125,0.2144198,-0.0470382,0.0147481,17.95457,-0.6199207,-162.0001,17.49368,-0.559393,-162.4968,-0.112793,-0.2172852,1.102051,0.03656495,0.4765725,-0.0002061129,-10.96374,5.779689,-12.50389,-11.09711,5.73414,-12.52466,Unknown
0.0,0.145752,-0.4523926,0.1380839,-0.1691756,-0.04632068,17.9548,-0.6101749,-162.0036,17.85791,-0.0,-162.1421,-0.1103516,-0.2104492,1.095947,0.00603056,-0.01197708,0.1219313,-10.9607,5.776854,-12.49657,-10.81651,5.647275,-12.23367,Unknown
0.004638672,0.145752,-0.447998,0.1991527,-0.1844428,0.091084,17.95905,-0.6119654,-162.0016,18.02091,-0.5641294,-161.9697,-0.1088867,-0.2150879,1.089844,0.2045038,-0.2104504,0.07612977,-10.96068,5.770188,-12.49499,-11.1103,5.598233,-12.47327,Unknown
-0.01391602,0.1472168,-0.4589844,0.03121376,-0.1691756,0.07581687,17.95584,-0.5691391,-162.0033,17.77571,1.653695,-162.1424,-0.1130371,-0.2126465,1.089355,0.1739695,-0.1341145,-0.01547329,-10.95867,5.769115,-12.49463,-10.98792,5.81512,-12.46586,Unknown
0.003417969,0.1469727,-0.453125,0.2907557,0.05983204,-0.2295268,17.96041,-0.5650988,-162.0071,17.97017,-0.4110965,-162.0248,-0.1132813,-0.2141113,1.099121,0.03656495,0.171229,0.2593359,-10.95829,5.771781,-12.4895,-10.96662,5.7766,-12.42856,Unknown
0.001953125,0.151123,-0.4467773,0.2144198,0.1667023,-0.1989923,17.97811,-0.5560916,-161.9961,18.68801,-0.2372661,-161.3104,-0.112793,-0.2116699,1.092041,0.1892367,-0.04251146,0.03032825,-10.95461,5.77152,-12.48701,-10.91294,5.789955,-12.38728,Unknown
0.005859375,0.1462402,-0.4460449,0.1686182,0.1056336,0.1063511,17.98404,-0.5577201,-161.9913,18.15078,-0.7151587,-161.8341,-0.112793,-0.220459,1.104248,0.3724428,-0.3325878,-0.01547329,-10.95471,5.765603,-12.49029,-11.23349,5.720113,-12.63997,Unknown
0.003662109,0.1479492,-0.440918,-0.04512215,-0.4287176,-0.1531909,17.99467,-0.5618908,-161.9827,18.54849,-0.451148,-161.4456,-0.1166992,-0.2158203,1.090088,0.479313,-0.4241909,0.1524656,-10.95131,5.763956,-12.49194,-11.13681,5.995025,-12.68445,Unknown
0.005859375,0.1418457,-0.4523926,-0.197794,-0.7340611,0.3200917,17.98001,-0.575605,-161.9899,17.40722,-0.7080659,-162.5775,-0.1069336,-0.2197266,1.093506,-0.03977096,-0.2867863,0.09139694,-10.95905,5.753989,-12.49269,-11.30904,5.4764,-12.59691,Unknown
0.0002441406,0.1425781,-0.4421387,-0.4878702,0.0,0.091084,17.9707,-0.5646951,-161.9913,17.87315,-0.03011076,-162.1268,-0.114502,-0.2119141,1.090576,0.2350382,-0.4089237,0.3814733,-10.95516,5.750586,-12.48632,-10.93767,5.884381,-12.45467,Unknown
0.0002441406,0.144043,-0.4536133,-0.3657329,-0.6729923,-0.04632068,17.95825,-0.563882,-161.9998,17.61702,-0.02939109,-162.3829,-0.1152344,-0.2124023,1.0896,0.2045038,-0.02724427,0.01506107,-10.95247,5.7537,-12.48647,-10.971,5.926338,-12.50449,Unknown
0.0004882813,0.1477051,-0.449707,-0.2741299,-0.3065802,0.03001523,17.95871,-0.5582932,-161.9957,18.18262,-0.05910401,-161.8173,-0.1088867,-0.215332,1.091309,0.3571756,0.4155039,-0.01547329,-10.95034,5.75655,-12.48632,-11.10818,5.590809,-12.46795,Unknown
0.0,0.1435547,-0.4621582,-0.07565641,0.04456491,0.259023,17.94354,-0.5464722,-162.0068,17.25574,-0.0,-162.7442,-0.1113281,-0.2197266,1.094971,0.1129008,0.5681756,0.03032825,-10.95547,5.763626,-12.48971,-11.29008,5.692723,-12.67799,Unknown
0.001464844,0.1496582,-0.4389648,0.0006792545,-0.1539084,0.1216183,17.96119,-0.5414246,-161.9884,18.82591,-0.1809692,-161.1731,-0.1113281,-0.2150879,1.086914,0.08236647,0.4613054,-0.0002061129,-10.95789,5.769887,-12.49115,-11.13676,5.737676,-12.56171,Unknown
0.006835938,0.1428223,-0.4589844,0.1991527,-0.4592519,-0.09212208,17.95055,-0.5536422,-162.0039,17.28278,-0.8147503,-162.6968,-0.1135254,-0.234375,1.087646,0.1129008,-0.1188473,0.07612977,-10.97901,5.769262,-12.50952,-12.09685,5.826011,-13.46519,Unknown
0.0002441406,0.1469727,-0.4538574,0.06174803,-0.3981832,0.07581687,17.95132,-0.5490091,-162.0038,17.94351,-0.02932165,-162.0565,-0.1130371,-0.2128906,1.096191,-0.08557248,0.4002366,0.09139694,-10.97936,5.775364,-12.50601,-10.93399,5.780174,-12.40128,Unknown
0.003173828,0.1442871,-0.4580078,-0.06038928,-0.3523817,0.1979542,17.94106,-0.551128,-162.0108,17.4857,-0.3786862,-162.5099,-0.1169434,-0.2145996,1.087402,0.1129008,-0.07304579,0.03032825,-10.98004,5.77917,-12.50875,-11.10149,6.022923,-12.6668,Unknown
0.0007324219,0.1462402,-0.4643555,0.1228168,0.09036642,-0.0310533,17.93366,-0.540501,-162.0215,17.48084,-0.08619822,-162.5189,-0.1103516,-0.2180176,1.088379,0.4335115,0.2322977,0.06086259,-10.97948,5.78055,-12.51075,-11.27094,5.677451,-12.65379,Unknown
0.002685547,0.1506348,-0.4614258,0.4434273,0.1972366,0.06054974,17.94657,-0.5315852,-162.0181,18.07924,-0.3169999,-161.9178,-0.1142578,-0.2155762,1.108643,0.2045038,0.1406947,-0.03074045,-10.97423,5.783645,-12.50946,-10.94731,5.77674,-12.41146,Unknown
0.002929688,0.1469727,-0.454834,0.5350306,0.3499084,-0.04632068,17.95364,-0.5228333,-162.0202,17.9071,-0.3511714,-162.0892,-0.1096191,-0.2121582,1.096924,0.2655725,0.171229,0.07612977,-10.96871,5.782561,-12.50379,-10.89358,5.603636,-12.28186,Unknown
0.003662109,0.1418457,-0.4511719,-0.1367252,-0.4287176,0.2284887,17.9416,-0.5275517,-162.0272,17.45229,-0.4436447,-162.5417,-0.1142578,-0.2160645,1.092041,0.08236647,0.4613054,0.1371985,-10.97077,5.790895,-12.50401,-11.13241,5.86021,-12.61574,Unknown
0.004882813,0.1452637,-0.4584961,0.1380839,-0.09283972,-0.260061,17.93637,-0.5299986,-162.0387,17.57864,-0.5816624,-162.4111,-0.111084,-0.2111816,1.104492,0.06709921,0.6597786,0.2440687,-10.9658,5.79761,-12.49416,-10.77139,5.641671,-12.19087,Unknown
-0.0004882813,0.1467285,-0.4494629,0.2754886,-0.031771,-0.06158781,17.94328,-0.5186822,-162.0373,18.07942,0.059171,-161.9205,-0.1030273,-0.2165527,1.100586,0.02129769,0.5681756,0.0,-10.96785,5.794968,-12.49012,-11.08414,5.247907,-12.29231,Unknown
0.006347656,0.1501465,-0.4575195,0.2144198,-0.01650381,-0.04632068,17.95091,-0.5236561,-162.0336,18.16691,-0.7552494,-161.8163,-0.112793,-0.2102051,1.090332,-0.02450383,0.4002366,0.03032825,-10.96597,5.800953,-12.4867,-10.85563,5.800084,-12.34133,Unknown
0.001220703,0.1479492,-0.4560547,0.1991527,-0.1539084,0.2284887,17.95448,-0.5185138,-162.0298,17.97358,-0.1458767,-162.0258,-0.1132813,-0.2197266,1.092529,0.0976336,0.2017633,-0.0002061129,-10.97137,5.804183,-12.49197,-11.3124,5.804277,-12.74975,Unknown
0.0002441406,0.1474609,-0.456543,0.1228168,-0.07757253,0.03001523,17.95508,-0.5097909,-162.0308,17.90018,-0.0291563,-162.0998,-0.1120605,-0.2143555,1.081055,0.1739695,-0.2562519,0.03032825,-10.97269,5.800701,-12.49395,-11.15707,5.805823,-12.61188,Unknown
0.006835938,0.1501465,-0.4523926,0.2754886,-0.291313,0.1216183,17.96748,-0.5205958,-162.0207,18.35875,-0.8216444,-161.6216,-0.1191406,-0.2192383,1.098145,0.3724428,-0.2867863,0.04559542,-10.97192,5.801651,-12.49938,-11.22615,6.073028,-12.80134,Unknown
0.0004882813,0.1508789,-0.4538574,-0.1061909,-0.1844428,-0.2142596,17.97434,-0.5140651,-162.0156,18.38869,-0.05849396,-161.6112,-0.105957,-0.2092285,1.093994,0.2655725,-0.3325878,0.2135344,-10.96414,5.789412,-12.48825,-10.77794,5.43415,-12.09981,Unknown
0.003662109,0.1464844,-0.4519043,0.229687,-0.1997099,0.0147481,17.97719,-0.5153573,-162.0158,17.9595,-0.4416757,-162.0347,-0.1074219,-0.2150879,1.097412,0.2045038,-0.3325878,0.0,-10.96281,5.778799,-12.48563,-11.0377,5.486935,-12.35713,Unknown
0.003417969,0.1474609,-0.4482422,-0.1061909,-0.2302443,-0.1837251,17.98028,-0.5167349,-162.0139,18.20947,-0.4150079,-161.7855,-0.1179199,-0.2341309,1.095459,0.3419085,-0.4089237,0.01506107,-10.97846,5.777396,-12.50486,-11.99695,6.009216,-13.45811,Unknown
0.006835938,0.1467285,-0.4543457,-0.2435954,-0.4287176,-0.04632068,17.97501,-0.529108,-162.016,17.89569,-0.8202805,-162.0842,-0.1103516,-0.2163086,1.092529,0.2045038,-0.3325878,-0.0002061129,-10.97876,5.77013,-12.50538,-11.14382,5.658527,-12.53114,Unknown
0.001220703,0.1555176,-0.4553223,-0.2130611,-0.902,-0.3363969,17.98953,-0.5346925,-162.0034,18.85779,-0.1453625,-161.1416,-0.1152344,-0.2177734,1.092285,0.1892367,-0.2562519,0.2135344,-10.9807,5.769099,-12.50636,-11.2148,5.906929,-12.71124,Unknown
-0.0009765625,0.1459961,-0.4499512,-0.1367252,-0.8409313,-0.06158781,17.98726,-0.5339947,-162.0047,17.9767,0.1182824,-162.0229,-0.1101074,-0.2126465,1.094482,0.1129008,-0.04251146,-0.2444809,-10.97825,5.765892,-12.50665,-10.9411,5.639992,-12.3413,Unknown
-0.002197266,0.1442871,-0.4521484,-0.07565641,-0.382916,0.07581687,17.98037,-0.5236385,-162.0095,17.69844,0.2652546,-162.2994,-0.1174316,-0.2143555,1.087402,0.128168,0.4460382,0.03032825,-10.97857,5.778094,-12.50943,-11.08866,6.048141,-12.66779,Unknown
0.002441406,0.1428223,-0.4602051,-0.01458788,-0.2149771,0.07581687,17.96538,-0.5221319,-162.0233,17.24123,-0.2902954,-162.7562,-0.1130371,-0.215332,1.10498,0.08236647,0.5071069,-0.1070763,-10.97722,5.784662,-12.50907,-10.9714,5.733796,-12.41248,Unknown
-0.002685547,0.1428223,-0.4638672,0.07701516,0.1056336,0.0147481,17.94946,-0.503796,-162.0403,17.11305,0.3170225,-162.8838,-0.1108398,-0.2114258,1.093018,0.0976336,0.7055801,0.09139694,-10.9741,5.793056,-12.50394,-10.89318,5.685727,-12.3201,Unknown
0.003662109,0.1491699,-0.4575195,0.2907557,-0.123374,0.0147481,17.9559,-0.5042539,-162.0381,18.05753,-0.4360125,-161.9368,-0.1147461,-0.2158203,1.089355,0.05183208,0.4613054,0.04559542,-10.97678,5.80196,-12.50612,-11.14607,5.89919,-12.64649,Unknown
0.006103516,0.1384277,-0.4523926,0.3670917,-0.1386412,-0.09212208,17.94242,-0.5109897,-162.0581,17.01214,-0.7391421,-162.9708,-0.1142578,-0.2167969,1.099121,0.128168,-0.07304579,0.06086259,-10.97736,5.801314,-12.50649,-11.09979,5.82339,-12.56922,Unknown
-0.0002441406,0.1452637,-0.447998,0.1686182,-0.123374,0.0147481,17.94552,-0.5021104,-162.0574,17.96532,0.02970148,-162.0347,-0.1103516,-0.2104492,1.089844,0.128168,-0.3631221,0.0,-10.9733,5.793145,-12.50236,-10.87505,5.67757,-12.30011,Unknown
0.0002441406,0.1525879,-0.4536133,0.0922823,-0.1691756,0.2284887,17.95972,-0.4949739,-162.0413,18.59207,-0.02922801,-161.4079,-0.112793,-0.2138672,1.093994,0.2655725,-0.07304579,0.1219313,-10.97028,5.791838,-12.4999,-11.00447,5.777898,-12.46282,Unknown
0.003417969,0.1467285,-0.4560547,0.1533511,-0.001236677,0.04528236,17.95961,-0.4932692,-162.043,17.8343,-0.4087687,-162.1607,-0.1154785,-0.2121582,1.093994,0.2045038,-0.2257175,0.04559542,-10.96599,5.790786,-12.49821,-10.91596,5.916224,-12.45094,Unknown
0.005126953,0.1452637,-0.4387207,0.07701516,-0.001236677,-0.01578617,17.96793,-0.496134,-162.0357,18.31892,-0.6356039,-161.6693,-0.1162109,-0.2177734,1.098633,-0.05503809,-0.4241909,0.0,-10.9705,5.78721,-12.5015,-11.15132,5.923753,-12.66292,Unknown
-0.002685547,0.1450195,-0.4450684,0.1380839,-0.07757253,0.1216183,17.97155,-0.4807775,-162.0322,18.0472,0.3287101,-161.9496,-0.1137695,-0.2116699,1.094238,0.3266413,-0.3173206,0.3204046,-10.96411,5.783371,-12.49448,-10.89081,5.828514,-12.38619,Unknown
0.003173828,0.1455078,-0.4631348,0.0922823,-0.291313,-0.01578617,17.9623,-0.482936,-162.0429,17.44131,-0.3745856,-162.5544,-0.112793,-0.2160645,1.095947,0.38771,-0.439458,0.2288015,-10.96104,5.776561,-12.492,-11.09561,5.765878,-12.53826,Unknown
0.004882813,0.1437988,-0.453125,-0.1367252,-0.5813893,0.04528236,17.95316,-0.4935931,-162.049,17.60583,-0.588468,-162.3837,-0.1105957,-0.217041,1.096436,0.219771,-0.4699924,0.183,-10.96143,5.767139,-12.48998,-11.14192,5.650931,-12.52592,Unknown
0.004638672,0.1481934,-0.4536133,0.03121376,-0.7340611,0.03001523,17.95638,-0.5056505,-162.0456,18.09109,-0.5569241,-161.8997,-0.1142578,-0.2126465,1.094238,0.2808397,-0.2562519,-0.01547329,-10.95686,5.765078,-12.48923,-10.93935,5.852386,-12.44069,Unknown
0.004882813,0.1428223,-0.456543,-0.3657329,-0.6119237,-0.0005190372,17.93928,-0.5162291,-162.0571,17.37053,-0.5848189,-162.619,-0.1096191,-0.2109375,1.098633,0.2045038,0.09489316,0.0,-10.95104,5.7631,-12.48363,-10.81609,5.596434,-12.20934,Unknown
0.001708984,0.1469727,-0.4589844,-0.3657329,-0.5966565,-0.0005190372,17.93023,-0.5187388,-162.0608,17.75561,-0.2031723,-162.2431,-0.1157227,-0.2141113,1.092773,0.05183208,0.6445115,0.1066641,-10.95177,5.775972,-12.48351,-11.02562,5.933002,-12.55602,Unknown
0.003662109,0.1462402,-0.4660645,-0.197794,-0.3371145,-0.1073892,17.91712,-0.5219106,-162.0727,17.42014,-0.4295448,-162.5742,-0.1088867,-0.215332,1.086914,0.128168,0.7208474,-0.1223435,-10.95388,5.783298,-12.48597,-11.15154,5.612423,-12.51677,Unknown
0.001464844,0.1472168,-0.4555664,0.1075497,-0.123374,-0.2295268,17.91842,-0.5166711,-162.0762,17.90821,-0.1753042,-162.0909,-0.1135254,-0.217041,1.089844,0.128168,0.3849695,-0.1528779,-10.95712,5.789577,-12.49168,-11.20395,5.833129,-12.66655,Unknown
-0.002441406,0.1689453,-0.4543457,0.4739618,0.2735725,0.182687,17.97496,-0.4965446,-162.024,20.39703,0.2885695,-159.6007,-0.1159668,-0.2155762,1.10083,-0.02450383,0.1559618,0.06086259,-10.95875,5.794125,-12.49169,-11.02057,5.902339,-12.53672,Unknown
0.003173828,0.1477051,-0.4506836,0.2907557,-0.01650381,0.06054974,17.98264,-0.4945248,-162.0196,18.1454,-0.3834188,-161.8503,-0.1118164,-0.2116699,1.091309,0.3113741,0.2017633,0.07612977,-10.95342,5.796085,-12.48818,-10.92099,5.74385,-12.37241,Unknown
-0.002441406,0.1513672,-0.4541016,0.3518243,0.05983204,0.350626,17.99685,-0.4779101,-162.0053,18.4347,0.2922316,-161.5628,-0.1186523,-0.2197266,1.095459,-0.009236574,-0.1951832,0.1677328,-10.96004,5.798533,-12.49278,-11.2776,6.061959,-12.84147,Unknown
0.006103516,0.145752,-0.4589844,0.229687,-0.031771,0.04528236,17.99261,-0.4833417,-162.0119,17.61595,-0.7261384,-162.3681,-0.1135254,-0.2133789,1.091064,0.3113741,-0.4852595,-0.01547329,-10.95641,5.792041,-12.49297,-11.00767,5.830584,-12.4908,Unknown
0.004150391,0.1506348,-0.4472656,0.1686182,-0.291313,0.1521528,18.00748,-0.4880343,-161.997,18.61228,-0.5038531,-161.3804,-0.1120605,-0.2126465,1.0896,0.2045038,-0.4089237,0.07612977,-10.95401,5.785469,-12.4908,-10.98652,5.763986,-12.44025,Unknown
0.006103516,0.1469727,-0.4526367,-0.1214581,-0.2302443,-0.1073892,18.00529,-0.496354,-161.9986,17.98726,-0.7347896,-161.9967,-0.1181641,-0.2038574,1.089111,0.1739695,-0.5157939,0.09139694,-10.9432,5.783922,-12.48379,-10.54136,6.087231,-12.20773,Unknown
0.004150391,0.1494141,-0.456543,-0.01458788,-0.2302443,0.07581687,18.00739,-0.4997119,-161.9949,18.12116,-0.4950217,-161.8716,-0.1120605,-0.2121582,1.093262,0.3113741,-0.4547252,0.1066641,-10.93829,5.776479,-12.48012,-10.92645,5.745985,-12.37828,Unknown
0.007080078,0.1413574,-0.4560547,-0.1367252,-0.3981832,-0.0310533,17.98962,-0.5125621,-162.0107,17.21924,-0.8495562,-162.7585,-0.1166992,-0.21875,1.100586,0.08236647,-0.2715191,-0.01547329,-10.94192,5.775706,-12.48465,-11.1804,5.937381,-12.69525,Unknown
0.005371094,0.1450195,-0.4511719,-0.1672597,-0.5661222,-0.0310533,17.98372,-0.5236197,-162.0143,17.81771,-0.6493438,-162.1697,-0.1079102,-0.213623,1.092285,0.1739695,0.003290057,0.03032825,-10.94079,5.770998,-12.48168,-11.01362,5.537869,-12.3588,Unknown
0.003417969,0.1435547,-0.4453125,-0.1061909,-0.6271908,-0.1531909,17.97983,-0.530738,-162.0189,17.86719,-0.4185516,-162.1276,-0.1147461,-0.2175293,1.093994,0.1587023,-0.07304579,0.07612977,-10.94337,5.771975,-12.48433,-11.18618,5.873548,-12.6699,Unknown
0.001220703,0.1474609,-0.4377441,-0.3351984,-0.4439847,0.1979542,17.98732,-0.5301132,-162.003,18.61683,-0.1514155,-161.3825,-0.1096191,-0.2145996,1.089111,0.219771,0.2170305,0.07612977,-10.9429,5.772733,-12.48297,-11.09218,5.639749,-12.47621,Unknown
0.002929688,0.1467285,-0.4570313,-0.197794,-0.382916,0.1979542,17.98083,-0.5317585,-162.0042,17.79873,-0.3496962,-162.1976,-0.1105957,-0.2121582,1.096191,0.08236647,0.3544351,0.1677328,-10.94091,5.775278,-12.47726,-10.89967,5.656852,-12.31226,Unknown
0.002929688,0.1452637,-0.458252,0.1228168,-0.3676488,0.1979542,17.97478,-0.5335112,-162.0094,17.58803,-0.349174,-162.4083,-0.1169434,-0.2172852,1.103027,0.1129008,0.2017633,0.04559542,-10.9421,5.781511,-12.47924,-11.08343,5.938623,-12.60991,Unknown
-0.002441406,0.1462402,-0.4538574,0.03121376,-0.2455115,-0.0005190372,17.97293,-0.520583,-162.0119,17.85954,0.2933524,-162.1379,-0.112793,-0.2138672,1.097412,0.08236647,0.2017633,-0.1223435,-10.94147,5.78406,-12.47996,-10.97138,5.760678,-12.42521,Unknown
0.001953125,0.1459961,-0.4538574,0.3365571,0.05983204,0.1063511,17.97506,-0.5139862,-162.0135,17.8317,-0.2347195,-162.1666,-0.1147461,-0.2167969,1.098877,0.05183208,0.339168,0.03032825,-10.94391,5.790351,-12.48158,-11.10168,5.849346,-12.58325,Unknown
0.005859375,0.1450195,-0.4533691,0.1686182,-0.2607787,0.0147481,17.97277,-0.521645,-162.0179,17.73657,-0.7052559,-162.2485,-0.105957,-0.213623,1.085449,-0.009236574,-0.1341145,-0.0002061129,-10.94682,5.781993,-12.47975,-11.0825,5.47102,-12.3902,Unknown
0.005615234,0.1491699,-0.4555664,0.1991527,-0.1997099,0.1216183,17.97882,-0.5275703,-162.0129,18.12914,-0.671124,-161.8576,-0.1181641,-0.2158203,1.093262,0.2655725,-0.2867863,0.06086259,-10.94606,5.783195,-12.48294,-11.1041,6.052886,-12.68374,Unknown
0.001953125,0.1520996,-0.4553223,0.32129,0.04456491,0.091084,17.9934,-0.521026,-162.0019,18.47165,-0.2331092,-161.5268,-0.1123047,-0.2155762,1.093994,0.3571756,-0.4089237,0.01506107,-10.9437,5.776547,-12.4836,-11.09072,5.751367,-12.52707,Unknown
0.005615234,0.152832,-0.4521484,0.0922823,-0.2302443,0.1216183,18.00838,-0.5274713,-161.9863,18.67458,-0.6740584,-161.3123,-0.1096191,-0.2160645,1.095215,0.4182443,-0.3936565,0.2135344,-10.9408,5.767395,-12.48027,-11.10593,5.608266,-12.47396,Unknown
0.002929688,0.1513672,-0.4562988,0.1228168,-0.291313,0.1674199,18.01706,-0.5281872,-161.977,18.35178,-0.3491557,-161.6447,-0.114502,-0.2148438,1.078125,0.2045038,-0.3936565,0.03032825,-10.94315,5.765187,-12.48471,-11.20858,5.946302,-12.72454,Unknown
0.00390625,0.1413574,-0.4411621,0.01594663,-0.5050534,0.1216183,18.01227,-0.5347101,-161.9802,17.76588,-0.4831161,-162.2271,-0.1125488,-0.2185059,1.097412,0.2808397,-0.4241909,0.1371985,-10.94423,5.758522,-12.48548,-11.20363,5.743719,-12.62426,Unknown
