xa_S1,ya_S1,za_S1,xgb_S1,ybg_S1,zbg_S1,tilt_x_S1,tilt_y_S1,tilt_z_S1,tilt_accx_S1,tilt_accy_S1,tilt_accz_S1,xa_S2,ya_S2,za_S2,xgb_S2,ybg_S2,zbg_S2,tilt_x_S2,tilt_y_S2,tilt_z_S2,tilt_accx_S2,tilt_accy_S2,tilt_accz_S2,State_S2
-0.4362793,-0.8029785,0.5529785,0.0,0.0,0.0,-0.9748634,0.482152,-1.176427,-48.74322,24.10762,-58.82139,-0.2253418,-0.2438965,-0.3405762,-0.7779465,0.4262443,-0.2753282,-1.228825,1.134026,-5.375723,-30.84712,28.27742,-135.7253,Unknown
-0.442627,-0.807373,0.5507813,-0.8641985,-0.1188473,0.1219313,-1.944235,0.9580631,-2.333355,-48.80824,24.36507,-59.1125,-0.2280273,-0.2441406,-0.3388672,0.0,0.5636489,-0.5196033,-1.821609,1.692296,-7.984015,-30.8681,28.63325,-135.4086,Unknown
-0.4418945,-0.8156738,0.5473633,-0.3145801,0.6597786,0.702084,-2.894451,1.433016,-3.465525,-49.22398,24.22074,-59.45798,-0.2150879,-0.2390137,-0.3410645,0.0,1.113267,-0.3363969,-2.398332,2.220003,-10.5627,-30.65776,27.31395,-136.6875,Unknown
-0.4487305,-0.8100586,0.543457,-0.8489313,0.7361145,0.9768932,-3.827727,1.908517,-4.57467,-48.97586,24.70314,-59.59303,-0.2165527,-0.2397461,-0.3366699,-0.6252747,1.556015,-0.4890685,-2.977915,2.75152,-13.08225,-30.91793,27.6522,-136.1811,Unknown
-0.4384766,-0.800293,0.5415039,-0.4672519,0.03382444,0.8394885,-4.737155,2.358995,-5.657134,-48.95575,24.40752,-59.315,-0.2216797,-0.2368164,-0.3422852,-0.06038928,1.174336,-0.6722746,-3.522073,3.273396,-15.56059,-30.14445,28.03972,-136.5383,Unknown
-0.4423828,-0.8000488,0.5498047,-0.7573281,-0.7600687,0.793687,-5.624524,2.791372,-6.712648,-48.58612,24.49925,-58.97736,-0.2180176,-0.2436523,-0.3349609,0.01594663,0.4415114,-0.4127328,-4.078763,3.769623,-17.96931,-31.36835,27.76019,-135.6932,Unknown
-0.4440918,-0.7971191,0.5463867,-0.5893893,0.0,0.9768932,-6.491611,3.229148,-7.745775,-48.54568,24.6802,-59.08706,-0.2297363,-0.2397461,-0.3325195,-0.3504658,-0.4134504,-0.4432673,-4.61586,4.273494,-20.31724,-30.67604,29.26715,-135.0405,Unknown
-0.4462891,-0.8000488,0.5578613,-0.6657251,0.0,0.702084,-7.336294,3.656317,-8.753755,-48.23644,24.58755,-58.66076,-0.2226563,-0.2431641,-0.3352051,-0.9458857,-1.253145,-0.3058627,-5.159379,4.736139,-22.62457,-31.14294,28.26549,-135.474,Unknown
-0.4455566,-0.8122559,0.5471191,-0.6962595,-0.8822061,0.7326183,-8.179516,4.060356,-9.757338,-49.01974,24.46354,-59.43541,-0.2331543,-0.2424316,-0.3417969,-0.7626796,-1.818031,0.182687,-5.674011,5.198301,-24.87877,-30.36786,29.09135,-135.4598,Unknown
-0.4362793,-0.8083496,0.5537109,-0.2077099,-0.699,0.4730763,-8.99696,4.449597,-10.73407,-48.90934,24.00197,-58.91853,-0.2336426,-0.2419434,-0.3393555,-0.4878702,-1.543221,0.5338321,-6.176157,5.657149,-27.07846,-30.42269,29.27502,-135.2556,Unknown
-0.4365234,-0.8056641,0.5627441,-0.03977096,-0.2257175,0.2593359,-9.788073,4.836295,-11.68447,-48.52346,23.95035,-58.44453,-0.234375,-0.2424316,-0.3361816,-0.3504658,-0.642458,0.6407022,-6.669923,6.1243,-29.22573,-30.60691,29.48693,-134.9132,Unknown
-0.439209,-0.8059082,0.5634766,0.5861833,0.2780993,0.2746031,-10.55256,5.225007,-12.6158,-48.44331,24.06754,-58.453,-0.2258301,-0.2397461,-0.3334961,-0.2435954,0.02929771,0.0,-7.155133,6.57828,-31.34837,-30.76331,28.80324,-135.3576,Unknown
-0.4470215,-0.7956543,0.5505371,0.8457253,1.071992,0.2746031,-11.29569,5.631165,-13.53771,-48.28933,24.79754,-58.89985,-0.2287598,-0.2429199,-0.3374023,-0.6863437,0.7163206,0.8849771,-7.637947,7.033661,-33.41475,-30.79139,28.82092,-135.3179,Unknown
-0.4436035,-0.7966309,0.5566406,0.2350382,1.606344,0.2288015,-12.03071,6.032848,-14.43553,-48.21954,24.53471,-58.59694,-0.2207031,-0.2419434,-0.3398438,-0.3962674,0.0,0.0,-8.107423,7.450608,-35.46767,-30.83999,27.88104,-136.061,Unknown
-0.4465332,-0.7966309,0.5322266,-0.2840458,1.209397,0.1219313,-12.77216,6.428568,-15.34048,-48.90858,24.98923,-59.7669,-0.2253418,-0.2368164,-0.3359375,0.01594663,0.0,0.4116948,-8.551978,7.876272,-37.46831,-30.34607,28.73387,-135.7815,Unknown
-0.4470215,-0.7841797,0.5517578,-0.650458,0.7361145,0.01506107,-13.48239,6.810004,-16.20474,-47.8375,24.99543,-58.56387,-0.2185059,-0.2385254,-0.3359375,-0.1825268,0.7010534,-0.1837251,-8.998844,8.287833,-39.44328,-30.76114,27.93912,-136.0823,Unknown
-0.4440918,-0.7993164,0.552002,-0.8947329,0.1406947,-0.2292137,-14.19486,7.167239,-17.06165,-48.44816,24.56836,-58.88155,-0.2194824,-0.2370605,-0.3342285,-0.09092379,0.02929771,0.06054974,-9.433365,8.685977,-41.37305,-30.66249,28.1749,-135.9731,Unknown
-0.4440918,-0.798584,0.5517578,-0.9252671,-0.2409847,-0.2444809,-14.89225,7.512287,-17.90127,-48.42972,24.58491,-58.87502,-0.2231445,-0.2429199,-0.3364258,-0.04512215,-0.4439847,0.2742901,-9.866138,9.070677,-43.25259,-31.03658,28.26908,-135.5651,Unknown
-0.4433594,-0.7880859,0.5541992,-0.6962595,-0.05777865,-0.4429542,-15.56522,7.855357,-18.72012,-47.99496,24.71112,-58.49625,-0.2333984,-0.2363281,-0.3300781,-0.2741299,-1.100473,0.9918472,-10.27878,9.472084,-45.07034,-30.3103,29.89594,-134.8204,Unknown
-0.4401855,-0.7978516,0.5524902,-0.5130534,0.4613054,-0.5192901,-16.23053,8.192539,-19.52826,-48.47881,24.39807,-58.77089,-0.2277832,-0.2402344,-0.3337402,-0.2130611,-1.283679,1.495664,-10.69101,9.84344,-46.85157,-30.7334,28.98346,-135.2314,Unknown
-0.439209,-0.800293,0.5539551,-0.4825191,0.7361145,-0.6872291,-16.8839,8.525257,-20.32279,-48.54399,24.28738,-58.75009,-0.2297363,-0.2390137,-0.3349609,0.3976259,-0.3523817,1.159786,-11.08084,10.22488,-48.60339,-30.47472,29.17461,-135.2957,Unknown
-0.4350586,-0.8007813,0.552002,-0.4367175,0.0,-1.038374,-17.52718,8.836744,-21.10753,-48.72686,24.09962,-58.79634,-0.2250977,-0.2402344,-0.331543,0.672435,0.487313,1.220855,-11.46883,10.6031,-50.31861,-30.94194,28.80122,-135.202,Unknown
-0.442627,-0.8012695,0.5439453,-0.8489313,0.0,-1.297916,-18.16442,9.151258,-21.88879,-48.80718,24.56245,-59.28046,-0.223877,-0.2316895,-0.3317871,0.0,0.0,1.037649,-11.84075,10.97009,-52.01382,-30.06464,28.95247,-135.8415,Unknown
-0.4443359,-0.7978516,0.5571289,-0.4367175,0.9345879,-1.267382,-18.77215,9.47281,-22.64193,-48.22962,24.54193,-58.61432,-0.2319336,-0.2382813,-0.3320313,0.8861756,0.2735725,1.388794,-12.20116,11.34595,-53.65364,-30.46939,29.57548,-134.9576,Unknown
-0.4475098,-0.7971191,0.5539551,-0.2077099,1.178863,-1.282649,-19.36401,9.794537,-23.38239,-48.22299,24.75046,-58.78495,-0.2351074,-0.2348633,-0.3317871,0.7335038,-0.2760458,1.724672,-12.54726,11.71612,-55.25598,-30.00931,30.04371,-134.9541,Unknown
-0.4384766,-0.8029785,0.5527344,0.08236647,1.591076,-1.282649,-19.94952,10.10484,-24.10958,-48.696,24.21816,-58.86175,-0.2282715,-0.2414551,-0.3422852,0.8709083,0.2430381,1.419328,-12.89167,12.05714,-56.847,-30.40787,28.58852,-135.8499,Unknown
-0.4414063,-0.8083496,0.5532227,0.6167176,1.850618,-1.160511,-20.5174,10.4151,-24.82461,-48.79668,24.25773,-59.00818,-0.2297363,-0.2365723,-0.3395996,1.160985,-0.001236677,1.953679,-13.2176,12.39666,-58.40008,-29.98469,29.03393,-135.8417,Unknown
-0.4411621,-0.802002,0.5493164,0.6777863,1.89642,-1.145244,-21.07178,10.72102,-25.52444,-48.70156,24.40994,-59.03082,-0.2312012,-0.2404785,-0.3435059,1.267855,0.6552519,1.984214,-13.53755,12.73578,-59.91969,-30.14691,28.87131,-135.8388,Unknown
-0.4394531,-0.8039551,0.557373,0.0,2.064359,-1.282649,-21.62155,11.02075,-26.20653,-48.5601,24.19035,-58.68624,-0.2304688,-0.2414551,-0.3442383,1.359458,0.0,1.434595,-13.85286,13.05562,-61.41926,-30.23582,28.72773,-135.8828,Unknown
-0.4482422,-0.7993164,0.5554199,0.7846565,2.323901,-1.175779,-22.1431,11.32676,-26.87415,-48.23747,24.72691,-58.781,-0.2321777,-0.2385254,-0.342041,1.145718,0.4262443,1.449863,-14.15865,13.38294,-62.88513,-29.98435,29.10842,-135.7787,Unknown
-0.4394531,-0.8010254,0.5541992,0.9831298,2.49184,-0.8246336,-22.65691,11.62251,-27.52399,-48.55621,24.28297,-58.76002,-0.229248,-0.236084,-0.3334961,0.8251068,0.7010534,1.633069,-14.46931,13.7108,-64.31268,-30.25797,29.29483,-135.3823,Unknown
-0.4387207,-0.8039551,0.5546875,0.738855,2.537641,-0.7482977,-23.16689,11.90864,-28.15976,-48.66286,24.1881,-58.79926,-0.230957,-0.2358398,-0.3354492,0.9472442,1.052198,1.694137,-14.76749,14.03984,-65.71074,-30.07417,29.38959,-135.4611,Unknown
-0.4394531,-0.8010254,0.5568848,0.6625191,2.858252,-0.6566947,-23.66325,12.19747,-28.77896,-48.47166,24.24927,-58.63707,-0.2248535,-0.2385254,-0.3352051,0.6266336,1.433878,1.78574,-15.07454,14.35329,-67.08307,-30.58065,28.65862,-135.6398,Unknown
-0.4462891,-0.796875,0.5476074,0.03656495,2.675046,0.0,-24.1583,12.48837,-29.38447,-48.44287,24.77662,-59.05444,-0.2255859,-0.2348633,-0.3364258,0.8251068,1.769756,1.587267,-15.36385,14.66656,-68.43827,-30.10633,28.80253,-135.9322,Unknown
-0.4482422,-0.800293,0.5546875,-0.1161069,2.522374,-0.9925726,-24.64263,12.76758,-29.98716,-48.29495,24.71832,-58.83808,-0.2199707,-0.2358398,-0.3359375,0.0,1.861359,1.831542,-15.66511,14.96434,-69.76595,-30.42683,28.18763,-136.169,Unknown
-0.447998,-0.7956543,0.5458984,-0.1161069,2.201763,-1.145244,-25.11966,13.04269,-30.58679,-48.40897,24.90474,-59.12708,-0.2185059,-0.2375488,-0.3442383,1.420527,2.075099,1.281924,-15.93683,15.24521,-71.08994,-30.22556,27.58411,-136.8443,Unknown
-0.4440918,-0.7978516,0.5480957,-0.05503809,2.415504,-1.450588,-25.58838,13.30787,-31.17547,-48.51825,24.64491,-59.02586,-0.2214355,-0.2407227,-0.3366699,1.313656,1.433878,1.281924,-16.21585,15.52434,-72.36585,-30.85322,28.14801,-135.8278,Unknown
-0.4526367,-0.7973633,0.5507813,0.128168,2.186496,-1.267382,-26.03875,13.57457,-31.75072,-48.20062,25.0359,-59.00622,-0.2202148,-0.2329102,-0.3330078,1.451061,1.69342,1.022382,-16.4768,15.80615,-73.62638,-30.25889,28.45324,-136.0935,Unknown
-0.4465332,-0.7983398,0.5419922,-0.5130534,1.636878,-1.343718,-26.49829,13.8222,-32.32119,-48.66414,24.83278,-59.35269,-0.2260742,-0.2392578,-0.3325195,1.542664,1.265939,0.6407022,-16.73966,16.0865,-74.85023,-30.75396,28.89303,-135.2899,Unknown
-0.440918,-0.7949219,0.5507813,-0.07030535,0.9040535,-1.297916,-26.93755,14.04923,-32.86961,-48.40957,24.50933,-58.78793,-0.2263184,-0.2416992,-0.3405762,0.9930458,0.5178473,0.7323053,-17.002,16.34146,-76.05859,-30.5862,28.45404,-135.8068,Unknown
-0.4492188,-0.8061523,0.5524902,-0.833664,1.08726,-1.435321,-27.38198,14.27794,-33.41516,-48.54604,24.68588,-59.09236,-0.2243652,-0.244873,-0.3364258,0.9472442,0.7773893,0.5185649,-17.2729,16.59197,-77.23769,-31.19716,28.33358,-135.3692,Unknown
-0.449707,-0.8044434,0.5566406,-0.5283206,1.377336,-1.236847,-27.80848,14.50505,-33.9412,-48.34496,24.68845,-58.86856,-0.2270508,-0.239502,-0.3344727,0.7335038,0.2735725,0.5643663,-17.52955,16.84206,-78.3923,-30.64458,28.89541,-135.3839,Unknown
-0.4423828,-0.8081055,0.5493164,-0.4367175,0.7666489,-0.946771,-28.23645,14.71338,-34.46018,-48.88604,24.35802,-59.19404,-0.2341309,-0.2419434,-0.3349609,0.8709083,0.2583054,0.6559694,-17.77954,17.0995,-79.51253,-30.62627,29.53704,-134.8533,Unknown
-0.4274902,-0.8015137,0.548584,0.3571756,1.346802,-0.6414275,-28.64785,14.91271,-34.95721,-49.05156,23.75595,-58.87188,-0.2270508,-0.2412109,-0.3283691,0.7945726,0.02929771,0.8086412,-18.03585,17.3405,-80.60616,-31.14046,29.12914,-134.7487,Unknown
-0.4440918,-0.8049316,0.5524902,0.3571756,1.942221,-0.7482977,-29.04263,15.13029,-35.44823,-48.63191,24.45949,-58.99484,-0.2333984,-0.2380371,-0.3359375,0.7335038,0.8231909,1.572,-18.26827,17.59675,-81.67532,-30.19575,29.54814,-135.2197,Unknown
-0.4382324,-0.8088379,0.543457,0.5709161,1.972756,-0.8399009,-29.43742,15.34097,-35.94016,-49.2014,24.21441,-59.42707,-0.2260742,-0.2421875,-0.333252,0.0,0.0,1.08345,-18.52337,17.81995,-82.72924,-31.02316,28.75693,-135.1677,Unknown
-0.4384766,-0.793457,0.5515137,0.7846565,1.820084,-1.099443,-30.18073,15.74839,-36.85839,-48.39543,24.40699,-58.68516,-0.2333984,-0.2446289,-0.3342285,0.9930458,0.8231909,1.220855,-18.05615,19.04437,-83.62388,-30.96739,29.4016,-134.6693,Unknown
-0.4404297,-0.7927246,0.5583496,0.5861833,1.804817,-1.267382,-29.98141,17.63943,-38.49483,-48.1049,24.42889,-58.37951,-0.2294922,-0.2380371,-0.3364258,1.573198,2.029298,-2.290596,-18.26723,19.28946,-84.71071,-30.3065,29.1115,-135.4962,Unknown
-0.440918,-0.7868652,0.5791016,-2.390916,0.4765725,-1.679595,-30.37795,17.78271,-38.90711,-47.23114,24.2897,-57.29813,-0.2302246,-0.2421875,-0.3310547,2.031214,2.243038,-2.580672,-18.49182,19.52273,-85.7491,-30.98934,29.30418,-134.7331,Unknown
-0.4404297,-0.8010254,0.5620117,-2.971068,2.00329,-1.92387,-30.7798,17.94115,-39.32558,-48.28644,24.23243,-58.41638,-0.2233887,-0.2443848,-0.326416,2.489229,3.58655,-2.04632,-18.72203,19.75579,-86.75403,-31.71005,28.71562,-134.5919,Unknown
-0.4230957,-0.8012695,0.5559082,-3.01687,1.652145,-1.664328,-31.18391,18.07406,-39.73131,-48.91586,23.4533,-58.47055,-0.2224121,-0.2416992,-0.3408203,1.924343,6.899527,-2.04632,-18.93531,20.01587,-87.76819,-30.70597,28.02684,-136.0581,Unknown
-0.4396973,-0.8054199,0.5742188,-3.734427,2.308634,-1.694863,-31.57302,18.22357,-40.1192,-48.07764,23.966,-57.96305,-0.2211914,-0.2460938,-0.3325195,2.092282,3.90716,-1.786778,-19.15868,20.23565,-88.74191,-31.6417,28.13305,-135.1408,Unknown
-0.4489746,-0.8078613,0.557373,-3.39855,2.49184,-1.725397,-31.96074,18.38736,-40.52032,-48.46119,24.58154,-58.90744,-0.2233887,-0.2495117,-0.331543,2.397626,3.632351,-1.985252,-19.38199,20.4467,-89.68853,-31.96928,28.2963,-134.7113,Unknown
-0.4328613,-0.7990723,0.5771484,-2.680992,2.415504,-1.679595,-32.31677,18.52692,-40.88459,-47.92297,23.70811,-57.58123,-0.2224121,-0.2485352,-0.3395996,2.000679,6.899527,-2.137924,-19.59447,20.69633,-90.63653,-31.47628,27.85684,-135.5173,Unknown
-0.4348145,-0.7956543,0.5615234,-3.245878,2.247565,-1.755931,-32.68312,18.67063,-41.25731,-48.24827,24.0604,-58.23026,-0.2241211,-0.246582,-0.3337402,1.954878,2.746855,-2.428,-19.80623,20.88757,-91.55801,-31.52376,28.37407,-135.045,Unknown
-0.4377441,-0.8005371,0.5371094,-3.71916,2.278099,-1.618527,-33.06293,18.81691,-41.64468,-49.12249,24.42181,-59.51572,-0.2219238,-0.2434082,-0.3366699,1.298389,3.082733,-1.695176,-20.01336,21.07734,-92.46429,-31.11693,28.11042,-135.6262,Unknown
-0.440918,-0.8120117,0.5446777,-3.871832,2.400237,-1.618527,-33.4427,18.9613,-42.02521,-49.20554,24.2726,-59.48152,-0.2214355,-0.2458496,-0.3405762,2.031214,3.830824,-2.153191,-20.20886,21.2643,-93.36111,-31.18201,27.79714,-135.8281,Unknown
-0.4436035,-0.8051758,0.5498047,-2.940534,2.583443,-1.587992,-33.78893,19.10682,-42.38884,-48.7368,24.46485,-59.11736,-0.2185059,-0.251709,-0.3322754,1.954878,3.418611,-1.817313,-20.42449,21.43917,-94.21703,-32.33131,27.66275,-134.9101,Unknown
-0.4387207,-0.8012695,0.5578613,-2.696259,2.247565,-1.557458,-34.11949,19.23945,-42.73421,-48.46775,24.19685,-58.58859,-0.223877,-0.2502441,-0.3342285,2.031214,3.769756,-1.61884,-20.62383,21.6298,-95.05384,-31.88425,28.19996,-134.868,Unknown
-0.4301758,-0.8000488,0.559082,-2.42145,2.354435,-1.343718,-34.44463,19.36497,-43.06705,-48.5965,23.78484,-58.3885,-0.2260742,-0.25,-0.3400879,1.374725,3.067466,-1.282962,-20.82198,21.80277,-95.87549,-31.47429,28.17381,-135.2562,Unknown
-0.4343262,-0.8029785,0.5671387,-2.528321,2.339168,-1.374252,-34.75729,19.48649,-43.38756,-48.34319,23.83619,-58.14983,-0.2209473,-0.2438965,-0.333252,1.389992,3.90716,-1.405099,-21.01275,21.9871,-96.68583,-31.38237,28.14781,-135.3596,Unknown
-0.4309082,-0.8049316,0.552002,-2.772595,2.354435,-1.313183,-35.08244,19.60779,-43.71597,-48.97728,23.82116,-58.84316,-0.2058105,-0.2495117,-0.3388672,1.710603,4.166702,-1.481435,-21.2127,22.12577,-97.49912,-32.18353,26.06203,-136.3343,Unknown
-0.4367676,-0.8046875,0.53125,-2.436718,2.827718,-1.22158,-35.40383,19.74181,-44.05594,-49.48039,24.36901,-59.87627,-0.2143555,-0.2507324,-0.3359375,1.756404,4.273572,-1.069221,-21.4079,22.28355,-98.27425,-32.17772,27.08319,-135.522,Unknown
-0.4375,-0.8134766,0.5429688,-2.574122,2.537641,-1.236847,-35.71902,19.8638,-44.38281,-49.39748,24.10011,-59.55111,-0.2155762,-0.244873,-0.333252,1.848008,4.029298,-1.084488,-21.58604,22.44776,-99.03688,-31.67307,27.53249,-135.6087,Unknown
-0.4448242,-0.8151855,0.5483398,-2.070305,1.835351,-1.145244,-36.01712,19.98069,-44.70078,-49.10235,24.35965,-59.4395,-0.2145996,-0.25,-0.3408203,2.275488,4.136168,-1.23716,-21.75968,22.5939,-99.79251,-31.82891,26.91744,-135.9698,Unknown
-0.4428711,-0.817627,0.5517578,-1.61229,2.140695,-1.404786,-36.30149,20.09404,-45.01236,-49.12963,24.17937,-59.3162,-0.2158203,-0.2531738,-0.3344727,2.061748,3.968229,-1.267694,-21.94332,22.74486,-100.5184,-32.45726,27.22523,-135.154,Unknown
-0.4313965,-0.8034668,0.5578613,-1.337481,2.629244,-1.297916,-36.56965,20.20679,-45.30209,-48.72654,23.79917,-58.54503,-0.2216797,-0.2509766,-0.3510742,1.649534,3.433878,-1.02342,-22.10485,22.88084,-101.2491,-31.15147,27.18834,-136.3541,Unknown
-0.4448242,-0.8093262,0.5432129,-1.658092,2.323901,-0.8857023,-36.84216,20.32514,-45.59892,-49.05784,24.52999,-59.53586,-0.2165527,-0.2512207,-0.3398438,1.695336,3.90716,-1.496702,-22.27663,23.02328,-101.9601,-31.94003,27.13098,-135.6971,Unknown
-0.4455566,-0.8122559,0.5402832,-1.291679,2.49184,-0.4734885,-37.10897,20.44622,-45.8889,-49.23299,24.54766,-59.74987,-0.2143555,-0.2526855,-0.3361816,0.840374,3.723954,-0.7486105,-22.46605,23.15771,-102.6402,-32.36506,27.00768,-135.414,Unknown
-0.4387207,-0.8017578,0.5332031,-1.12374,2.384969,-0.2597481,-37.36859,20.56227,-46.16974,-49.26416,24.49581,-59.74029,-0.2160645,-0.2565918,-0.3435059,0.0,3.159069,-0.5196033,-22.66283,23.2728,-103.3081,-32.30511,26.74482,-135.6802,Unknown
-0.4436035,-0.8110352,0.5439453,-0.7878625,2.232298,0.1219313,-37.61454,20.67025,-46.43521,-49.12595,24.43015,-59.52683,-0.2133789,-0.2495117,-0.3410645,0.3823588,2.60945,0.0147481,-22.84009,23.38152,-103.9636,-31.80692,26.79072,-136.0917,Unknown
-0.4387207,-0.8151855,0.5383301,-0.4214504,2.217031,0.2135344,-37.85989,20.77313,-46.6998,-49.57216,24.18468,-59.82156,-0.2084961,-0.2512207,-0.3432617,0.0006792545,3.052198,-0.3821983,-23.02381,23.478,-104.6183,-32.02669,26.11184,-136.4363,Unknown
-0.4404297,-0.8071289,0.5407715,-0.8641985,2.308634,0.5799466,-38.09795,20.87707,-46.94863,-49.17001,24.38627,-59.53892,-0.2094727,-0.2543945,-0.3417969,-0.3351984,2.426244,0.182687,-23.21624,23.56771,-105.2441,-32.39888,26.18015,-136.0461,Unknown
-0.4492188,-0.8088379,0.546875,-0.8947329,2.217031,0.5494123,-38.32544,20.98625,-47.18985,-48.81454,24.7068,-59.41346,-0.2089844,-0.248291,-0.3430176,-0.3504658,2.151435,0.1216183,-23.39152,23.65333,-105.8692,-31.72241,26.26765,-136.586,Unknown
-0.4494629,-0.8146973,0.5366211,-0.6199236,1.926954,0.8700229,-38.55466,21.08959,-47.43379,-49.33094,24.73688,-60.0267,-0.2097168,-0.244873,-0.3393555,-0.4115343,1.785023,0.3353589,-23.56019,23.7371,-106.4765,-31.54278,26.61729,-136.4674,Unknown
-0.4538574,-0.8168945,0.5244141,-0.5283206,1.743748,0.0,-38.7842,21.19288,-47.69912,-49.66891,25.05796,-60.70031,-0.1989746,-0.239502,-0.3464355,-1.08329,1.58655,0.6254351,-23.72375,23.79144,-107.0988,-30.94221,25.28793,-138.0513,Unknown
-0.4790039,-0.8312988,0.5053711,0.06709921,1.575809,0.0,-39.00853,21.31647,-47.98959,-50.04997,26.21409,-62.22234,-0.2099609,-0.2397461,-0.3427734,-1.205428,1.632351,0.9460459,-23.88326,23.87269,-107.6847,-30.81323,26.65405,-137.0854,Unknown
-0.4462891,-0.7941895,0.5407715,3.700687,-0.08831299,0.0,-39.14516,21.38713,-48.21592,-48.56044,24.91434,-59.30639,-0.2216797,-0.2514648,-0.3430176,-0.381,-0.1997099,0.2284887,-24.04362,23.94287,-108.2408,-31.62098,27.52893,-135.6582,Unknown
-0.4475098,-0.8015137,0.5341797,1.242672,-0.347855,1.251702,-39.32391,21.45267,-48.42929,-48.99535,24.91971,-59.80457,-0.2192383,-0.2434082,-0.3479004,0.0,0.3957099,0.3658931,-24.17519,24.01563,-108.8054,-30.62215,27.30934,-136.7225,Unknown
-0.4489746,-0.8024902,0.5314941,1.380076,0.1254275,1.358572,-39.5,21.52547,-48.64151,-49.07519,25.00667,-59.97231,-0.2097168,-0.2441406,-0.3586426,0.0,0.746855,0.5643663,-24.30049,24.06227,-109.3829,-30.44027,25.79825,-138.0951,Unknown
-0.4526367,-0.8051758,0.5334473,0.9220611,0.2017633,1.618114,-39.6767,21.60012,-48.84475,-49.01315,25.10961,-59.99259,-0.2041016,-0.2390137,-0.3459473,-0.9306183,0.6094504,0.6865039,-24.44326,24.10782,-109.94,-30.7549,25.89177,-137.7442,Unknown
-0.4680176,-0.7973633,0.5476074,1.914428,-0.1646488,1.602847,-39.81312,21.68209,-49.03154,-47.90458,25.8196,-59.36243,-0.2172852,-0.25,-0.331543,0.0,-1.054672,0.6254351,-24.59916,24.1626,-110.4326,-32.2386,27.62222,-135.0271,Unknown
-0.4558105,-0.7946777,0.5471191,2.250305,-1.248618,1.358572,-39.94651,21.73584,-49.21402,-48.13646,25.28779,-59.15379,-0.2128906,-0.2314453,-0.3293457,-0.2130611,-1.482153,-0.06158781,-24.72107,24.21648,-110.9513,-30.54816,27.87316,-136.3239,Unknown
-0.4494629,-0.7739258,0.5585938,2.464046,-2.256252,1.007427,-40.05753,21.77449,-49.37651,-47.18783,25.21619,-58.02984,-0.2145996,-0.2248535,-0.331543,0.2754886,-0.993603,-0.6570077,-24.81569,24.2811,-111.4788,-29.65472,28.17779,-136.8473,Unknown
-0.449707,-0.782959,0.5566406,2.341908,-2.683733,0.6868168,-40.17342,21.80126,-49.54581,-47.57361,25.0853,-58.34656,-0.2214355,-0.2226563,-0.3381348,1.481595,-0.2760458,-0.5196033,-24.87458,24.36494,-111.9993,-28.84912,28.67622,-137.1175,Unknown
-0.4533691,-0.7666016,0.5610352,3.364809,-3.645565,-0.3818855,-40.25535,21.8219,-49.71635,-46.74309,25.51267,-57.79191,-0.2197266,-0.229248,-0.3200684,3.115183,-0.0470382,-0.6570077,-24.94558,24.46032,-112.4728,-30.56157,29.16628,-135.2268,Unknown
-0.4584961,-0.7814941,0.5524902,3.807557,-4.332588,-1.389519,-40.34653,21.83796,-49.91362,-47.42632,25.59737,-58.62643,-0.2192383,-0.239502,-0.3352051,3.817473,-0.2455115,-0.1989923,-25.0081,24.52791,-112.9445,-30.87756,28.02029,-135.9125,Unknown
-0.4553223,-0.7902832,0.5690918,3.883893,-4.561595,-2.41242,-40.42884,21.83531,-50.11156,-47.31679,25.05804,-58.03755,-0.2180176,-0.2438965,-0.3395996,4.153351,-1.543221,0.0147481,-25.06983,24.56546,-113.4069,-31.14727,27.53933,-136.071,Unknown
-0.4621582,-0.8059082,0.5522461,2.98313,-3.950908,-2.916237,-40.54077,21.84686,-50.33762,-48.21778,25.31669,-59.27108,-0.2092285,-0.2492676,-0.3364258,2.931977,-2.260779,1.205588,-25.16887,24.57194,-113.84,-32.17716,26.5513,-135.9509,Unknown
-0.4587402,-0.8144531,0.5412598,3.502214,-3.263885,-2.504023,-40.65726,21.86457,-50.56622,-48.93927,25.13154,-59.92762,-0.2026367,-0.2531738,-0.348877,2.641901,-3.787496,1.602534,-25.26884,24.52838,-114.2815,-32.1088,25.17775,-137.0925,Unknown
-0.4697266,-0.814209,0.5378418,3.944962,-3.202817,-2.03074,-40.76109,21.89429,-50.7892,-48.74831,25.70475,-60.22272,-0.2023926,-0.2497559,-0.3381348,1.649534,-5.482152,2.259023,-25.38813,24.47678,-114.6938,-32.36537,25.70896,-136.4476,Unknown
-0.4631348,-0.8059082,0.534668,3.960229,-3.950908,-1.557458,-40.86604,21.91397,-50.99662,-48.72584,25.5884,-60.09174,-0.206543,-0.2480469,-0.3395996,1.313656,-7.069939,1.953679,-25.50039,24.40646,-115.1003,-31.96637,26.1573,-136.4545,Unknown
-0.4511719,-0.7907715,0.5410156,4.235038,-5.584496,-0.855168,-40.95255,21.8979,-51.17485,-48.30399,25.21513,-59.27933,-0.2185059,-0.2460938,-0.3417969,1.344191,-7.787496,1.251389,-25.59547,24.35226,-115.5016,-31.24234,27.42039,-136.0842,Unknown
-0.4414063,-0.7990723,0.5458984,2.998397,-5.538694,-0.7024961,-41.0634,21.8689,-51.34409,-48.69891,24.5187,-59.12084,-0.2143555,-0.236084,-0.3425293,0.7182367,-6.978336,0.5643663,-25.67962,24.31469,-115.9248,-30.2961,27.26063,-137.0479,Unknown
-0.4504395,-0.8015137,0.5373535,1.044199,-5.40129,-1.038374,-41.20421,21.85787,-51.52537,-48.82018,25.02268,-59.69572,-0.208252,-0.2414551,-0.3376465,0.0,-6.749328,0.5032978,-25.79257,24.26203,-116.3317,-31.32691,26.64266,-136.6394,Unknown
-0.4523926,-0.7883301,0.5415039,0.9220611,-4.424191,-1.817,-41.32995,21.86198,-51.70587,-48.16925,25.31502,-59.21475,-0.2182617,-0.2370605,-0.3242188,1.206786,-7.451618,0.3200917,-25.88375,24.23767,-116.7039,-31.23853,28.52076,-135.1758,Unknown
-0.4433594,-0.7739258,0.5571289,0.6930535,-4.164649,-2.442954,-41.44089,21.86222,-51.86785,-47.38596,24.93522,-58.00957,-0.2197266,-0.236084,-0.3190918,1.985412,-7.146275,-0.0005190372,-25.96402,24.22721,-117.0637,-31.35665,28.96724,-134.6944,Unknown
-0.4387207,-0.782959,0.5620117,-0.299313,-4.469992,-3.084176,-41.57004,21.84878,-52.03474,-47.67851,24.47531,-57.94524,-0.232666,-0.2446289,-0.3261719,3.741137,-5.283679,-0.7791452,-26.01789,24.25923,-117.4141,-31.40732,29.71162,-134.0133,Unknown
-0.434082,-0.8095703,0.5610352,-2.482519,-4.699,-4.122344,-41.75063,21.8184,-52.22635,-48.77469,23.78338,-58.58557,-0.2260742,-0.2543945,-0.345459,5.664802,-2.79513,0.0,-26.05262,24.29144,-117.7744,-31.64053,27.78719,-135.4283,Unknown
-0.4379883,-0.8076172,0.552002,-1.871832,-3.767702,-4.748298,-41.91919,21.81273,-52.427,-48.8949,24.11956,-59.00144,-0.2233887,-0.2575684,-0.34375,5.573198,-1.512687,-1.924183,-26.09245,24.33292,-118.1519,-32.14024,27.4773,-135.2346,Unknown
-0.4282227,-0.807373,0.5490723,-1.749695,-2.424191,-4.488756,-42.09101,21.81446,-52.6245,-49.22402,23.68124,-59.00269,-0.2167969,-0.2697754,-0.3422852,4.718236,-1.360015,-2.32113,-26.1374,24.34456,-118.5348,-33.65719,26.44793,-134.6832,Unknown
-0.4152832,-0.8330078,0.5327148,-2.650458,-1.370756,-4.061275,-42.32818,21.80292,-52.86788,-50.96251,22.78218,-60.21628,-0.206543,-0.2697754,-0.3483887,4.168618,0.9300611,-3.298229,-26.22672,24.37364,-118.927,-33.66729,25.11466,-135.7182,Unknown
-0.4331055,-0.8381348,0.5437012,-3.200076,-1.324954,-3.00784,-42.53523,21.81614,-53.05563,-50.32887,23.43778,-60.0449,-0.2077637,-0.2712402,-0.3493652,3.603733,0.227771,-2.840214,-26.32704,24.39252,-119.3002,-33.71514,25.16118,-135.6382,Unknown
-0.4204102,-0.8352051,0.5358887,-2.665725,-1.935641,-2.198679,-42.73715,21.81246,-53.22834,-50.80243,22.96015,-60.18235,-0.2141113,-0.2705078,-0.3347168,2.443428,-0.9325343,-2.473802,-26.44952,24.41998,-119.6332,-34.24691,26.45111,-134.1341,Unknown
-0.427002,-0.8320313,0.550293,-1.902366,-2.775336,-1.129977,-42.91169,21.79888,-53.37091,-50.06585,23.17346,-59.52658,-0.2185059,-0.2648926,-0.3476563,0.2907557,-3.314214,-1.374565,-26.57278,24.4141,-119.9678,-32.82615,26.56183,-135.3542,Unknown
-0.4194336,-0.8239746,0.5537109,-0.9252671,-3.050145,0.03032825,-43.06441,21.77615,-53.48472,-49.86805,22.90413,-59.08368,-0.2207031,-0.260498,-0.3266602,-1.144359,-4.779863,-0.4738016,-26.72726,24.41245,-120.2501,-33.45585,27.84466,-133.7342,Unknown
-0.4194336,-0.8161621,0.5527344,0.03656495,-3.263885,0.7173512,-43.1952,21.75366,-53.58323,-49.63054,23.05032,-58.93734,-0.2253418,-0.2561035,-0.3205566,-1.922985,-5.085206,-0.5348701,-26.88247,24.42995,-120.5169,-33.16858,28.77617,-133.2193,Unknown
-0.4116211,-0.8151855,0.5549316,0.6014504,-2.928008,0.793687,-43.31738,21.73153,-53.67496,-49.71635,22.65592,-58.71425,-0.2263184,-0.2587891,-0.340332,-1.938252,-4.321847,-0.2447939,-27.02014,24.4357,-120.8043,-32.34122,27.89404,-134.7104,Unknown
-0.421875,-0.8286133,0.5483398,0.3266413,-2.011977,0.5952138,-43.44902,21.72743,-53.78214,-50.13987,23.00534,-59.4712,-0.2272949,-0.2609863,-0.3352051,-1.510771,-3.054672,0.6407022,-27.15643,24.46804,-121.0611,-32.79813,28.1482,-134.0849,Unknown
-0.4177246,-0.817627,0.5708008,0.5251145,-1.615031,0.2135344,-43.55558,21.72531,-53.86619,-49.13712,22.72951,-58.13149,-0.2189941,-0.2563477,-0.3330078,-0.9764199,-2.443985,0.9155113,-27.28262,24.49324,-121.3194,-32.74829,27.52434,-134.6456,Unknown
-0.4243164,-0.8117676,0.5571289,1.227405,-1.29442,0.06086259,-43.65074,21.73807,-53.96178,-49.21565,23.31461,-58.69054,-0.2211914,-0.2561035,-0.3352051,-0.5642061,-1.894366,1.587267,-27.39577,24.52893,-121.5642,-32.52554,27.67006,-134.7282,Unknown
-0.4274902,-0.8112793,0.5534668,1.395344,-1.202817,0.06086259,-43.74197,21.75608,-54.05939,-49.23805,23.52284,-58.88689,-0.2255859,-0.2536621,-0.3300781,-0.3504658,-1.940168,1.449863,-27.50054,24.5808,-121.797,-32.39396,28.45318,-134.1971,Unknown
-0.4226074,-0.8083496,0.5566406,1.395344,-1.202817,-0.1070763,-43.83107,21.77038,-54.1518,-49.15372,23.2961,-58.60645,-0.2280273,-0.2541504,-0.3310547,-0.5184045,-2.001237,1.144519,-27.6042,24.63277,-122.0265,-32.30251,28.65025,-134.1143,Unknown
-0.427002,-0.8093262,0.5620117,1.288473,-0.958542,0.04559542,-43.91367,21.78948,-54.23695,-48.90788,23.43004,-58.44265,-0.2209473,-0.2553711,-0.3254395,-0.5794735,-2.474519,1.266656,-27.72048,24.66588,-122.2462,-32.99212,28.10717,-133.9419,Unknown
-0.4304199,-0.8029785,0.5681152,0.9525955,0.0,0.2288015,-43.98952,21.82636,-54.30991,-48.40659,23.63336,-58.0534,-0.2226563,-0.2524414,-0.3225098,-0.7321453,-2.367649,0.9002442,-27.83186,24.71069,-122.4644,-32.78728,28.53061,-133.775,Unknown
-0.4155273,-0.7976074,0.5668945,0.7999237,-1.202817,0.2288015,-44.07101,21.83349,-54.37608,-48.61258,23.00796,-57.77536,-0.2333984,-0.2502441,-0.3410645,-0.2435954,-2.031771,0.3658931,-27.90271,24.76436,-122.7079,-31.19526,28.88734,-134.9052,Unknown
-0.4160156,-0.7990723,0.5722656,0.5098474,-1.324954,0.4578092,-44.15165,21.83618,-54.43333,-48.47824,22.9416,-57.57509,-0.2285156,-0.2553711,-0.3269043,-0.02985501,-1.131008,0.091084,-27.99766,24.83053,-122.9255,-32.62979,28.84908,-133.6498,Unknown
-0.4072266,-0.8007813,0.5678711,0.7235878,-0.7753359,0.3509389,-44.23651,21.83941,-54.4939,-48.89079,22.52961,-57.70275,-0.2246094,-0.2531738,-0.3300781,0.0922823,-0.9783359,0.3964274,-28.08394,24.88687,-123.1468,-32.37971,28.3663,-134.2828,Unknown
-0.4199219,-0.8051758,0.5556641,0.0,0.2170305,0.1524656,-44.33457,21.87043,-54.57253,-49.13971,23.23077,-58.53759,-0.2231445,-0.2563477,-0.3266602,-0.09092379,-0.07757253,0.6254351,-28.18246,24.95305,-123.3519,-32.94304,28.25323,-133.8651,Unknown
-0.4311523,-0.8056641,0.5671387,0.4182443,0.6139771,-0.04600763,-44.41203,21.91473,-54.64524,-48.51492,23.63427,-58.17404,-0.2192383,-0.2548828,-0.3254395,0.1686182,0.02929771,0.5490992,-28.27645,25.01322,-123.5582,-33.0058,27.93996,-134.0682,Unknown
-0.4294434,-0.8125,0.5537109,0.5098474,0.4613054,-0.3818855,-44.50078,21.9551,-54.73656,-49.22445,23.59405,-58.93067,-0.2207031,-0.2568359,-0.3188477,0.3060229,0.09036642,0.7323053,-28.37677,25.08083,-123.7418,-33.51743,28.32719,-133.2761,Unknown
-0.4262695,-0.7973633,0.5563965,0.9831298,0.3239008,0.03032825,-44.56998,21.99422,-54.80924,-48.68318,23.67332,-58.39276,-0.2260742,-0.2565918,-0.3273926,0.06174803,-0.4287176,0.7475727,-28.4647,25.14338,-123.931,-32.81894,28.5239,-133.7517,Unknown
-0.4291992,-0.8093262,0.5627441,0.0,0.2475649,0.1982672,-44.6552,22.02855,-54.8789,-48.83102,23.52863,-58.43804,-0.2226563,-0.253418,-0.3271484,-0.1367252,-0.7645955,0.8849771,-28.54998,25.19568,-124.1227,-32.63475,28.28253,-134.1215,Unknown
-0.427002,-0.8132324,0.5771484,0.9831298,0.5529084,0.2288015,-44.71983,22.05917,-54.93532,-48.56139,23.18024,-57.85694,-0.2224121,-0.2592773,-0.3286133,-0.09092379,-0.9478015,0.8391757,-28.64354,25.23751,-124.3057,-33.16113,27.98375,-133.8898,Unknown
-0.4318848,-0.8095703,0.5644531,0.9220611,0.262832,0.3204046,-44.78628,22.09454,-54.99994,-48.71992,23.6346,-58.4017,-0.2277832,-0.2536621,-0.3349609,-0.2283282,-0.9325343,0.0,-28.71513,25.28831,-124.5094,-32.05535,28.46304,-134.4944,Unknown
-0.4291992,-0.8093262,0.5532227,0.9220611,-0.1493817,0.4730763,-44.8597,22.12334,-55.07043,-49.13518,23.64414,-58.87241,-0.2219238,-0.253418,-0.3347168,-0.3504658,-0.8561985,0.7781069,-28.79069,25.32802,-124.7049,-32.25254,27.86119,-134.8176,Unknown
-0.4282227,-0.8183594,0.5585938,0.8915268,-0.08831299,0.3814733,-44.93632,22.14713,-55.1405,-49.30211,23.37337,-58.83517,-0.2209473,-0.2558594,-0.3127441,-0.3046641,0.0,0.8086412,-28.89436,25.39486,-124.8544,-33.75014,28.67001,-132.7727,Unknown
-0.4248047,-0.8081055,0.5651855,1.212137,0.171229,0.6410153,-44.99611,22.17281,-55.19305,-48.81651,23.30521,-58.23958,-0.2280273,-0.2514648,-0.3305664,-0.4573359,-1.161542,0.8239083,-28.96382,25.44637,-125.0308,-32.054,28.76729,-134.2398,Unknown
-0.4313965,-0.8012695,0.5734863,-2.818397,0.2780993,0.7478855,-45.0979,22.20605,-55.23456,-48.15195,23.64425,-57.78123,-0.2236328,-0.2502441,-0.3322754,-0.6252747,-1.329481,0.0,-29.03367,25.48317,-125.2245,-31.99688,28.2634,-134.714,Unknown
-0.423584,-0.800293,0.5661621,0.7999237,0.2780993,0.6868168,-45.15495,22.23339,-55.27945,-48.53852,23.36877,-57.9838,-0.2224121,-0.2490234,-0.3161621,-0.5336719,-0.9783359,0.701771,-29.11665,25.53766,-125.3784,-32.79005,28.92664,-133.4382,Unknown
-0.4162598,-0.8039551,0.5583496,0.2961069,0.1101603,0.4272748,-45.22948,22.25111,-55.3343,-49.09875,23.03834,-58.33627,-0.2211914,-0.248291,-0.3303223,-0.4878702,0.0,0.610168,-29.18076,25.59008,-125.5587,-31.98758,28.15885,-134.8094,Unknown
-0.4221191,-0.7944336,0.5678711,0.1739695,0.003290057,0.3509389,-45.28869,22.27368,-55.37757,-48.30964,23.3772,-57.73836,-0.2260742,-0.2539063,-0.322998,-0.3199313,-0.5050534,0.2284887,-29.25749,25.6473,-125.7148,-32.78213,28.82233,-133.5338,Unknown
-0.4257813,-0.8022461,0.5463867,-0.1161069,0.07962596,0.1677328,-45.36845,22.30308,-55.44693,-49.19116,23.68521,-58.96919,-0.2209473,-0.2492676,-0.3300781,-0.3962674,-0.1844428,0.3811603,-29.32038,25.69384,-125.8897,-32.1107,28.10991,-134.7394,Unknown
-0.4277344,-0.8049316,0.5532227,-0.1924427,0.3239008,-0.1376107,-45.44426,22.33478,-55.51493,-49.01713,23.65015,-58.74551,-0.2270508,-0.2504883,-0.3295898,-0.2588627,0.1819695,0.5185649,-29.37834,25.75733,-126.0502,-32.04104,28.74333,-134.2717,Unknown
-0.4265137,-0.8071289,0.5581055,-0.1161069,0.781916,0.04559542,-45.51632,22.36865,-55.57521,-48.96788,23.49188,-58.56005,-0.2219238,-0.2526855,-0.3293457,0.1686182,0.4720459,0.1521528,-29.43764,25.81171,-126.215,-32.46721,28.12945,-134.4011,Unknown
-0.4279785,-0.8068848,0.5488281,-0.1619084,0.4155039,-0.1376107,-45.59279,22.401,-55.6457,-49.22083,23.6809,-58.99883,-0.2202148,-0.2519531,-0.326416,-0.3351984,-0.001236677,0.5185649,-29.50577,25.85755,-126.3694,-32.61416,28.1047,-134.2884,Unknown
-0.4355469,-0.8061523,0.5554199,-0.2382443,0.2017633,0.1066641,-45.66013,22.43544,-55.70687,-48.7962,23.98454,-58.77729,-0.223877,-0.2412109,-0.3339844,-0.7779465,-1.207344,0.5490992,-29.54629,25.89306,-126.5423,-30.96002,28.52036,-135.4225,Unknown
-0.4355469,-0.8027344,0.5571289,-0.3145801,-0.01197708,0.4272748,-45.72398,22.46705,-55.75876,-48.62139,24.02458,-58.61557,-0.2224121,-0.2468262,-0.3239746,-0.640542,-1.024137,0.3658931,-29.60744,25.93291,-126.6917,-32.133,28.63816,-134.2775,Unknown
-0.4245605,-0.8054199,0.5588379,-0.299313,-0.2104504,0.4578092,-45.79253,22.48295,-55.80603,-48.93203,23.41693,-58.45875,-0.230957,-0.2463379,-0.3237305,-0.381,-0.8256641,0.3353589,-29.65604,25.99463,-126.8291,-31.77618,29.58554,-133.7923,Unknown
-0.4243164,-0.8051758,0.548584,-0.1619084,-0.1951832,0.183,-45.86411,22.50129,-55.86581,-49.26022,23.53365,-58.92063,-0.2302246,-0.2512207,-0.3239746,0.1686182,0.1819695,0.1521528,-29.70638,26.06376,-126.9613,-32.2965,29.31731,-133.5538,Unknown
-0.4243164,-0.8024902,0.5632324,0.05183208,-0.1188473,0.09139694,-45.91993,22.51757,-55.91079,-48.69305,23.40252,-58.18199,-0.2255859,-0.2543945,-0.3164063,0.1380839,0.07509923,0.5338321,-29.77458,26.12468,-127.0736,-33.2112,29.05836,-132.9408,Unknown
-0.4370117,-0.8134766,0.5651855,0.2655725,0.1254275,-0.04600763,-45.97206,22.54506,-55.96383,-48.7089,23.80626,-58.53128,-0.2253418,-0.2587891,-0.3300781,0.01594663,0.1819695,0.610168,-29.83733,26.16981,-127.2009,-32.92379,28.24711,-133.8878,Unknown
-0.4316406,-0.8022461,0.5649414,0.2045038,-0.07304579,-0.04600763,-46.01865,22.56799,-56.00914,-48.45202,23.74517,-58.19543,-0.2363281,-0.2548828,-0.3295898,0.06174803,-0.031771,0.3811603,-29.88264,26.23719,-127.3208,-32.14806,29.56253,-133.4777,Unknown
-0.4267578,-0.8049316,0.5639648,0.5861833,0.1254275,0.4883435,-46.06359,22.58789,-56.04661,-48.69665,23.47095,-58.24174,-0.2290039,-0.265625,-0.3398438,-0.3046641,-0.3523817,0.2132213,-29.94847,26.26656,-127.4533,-32.95054,27.96464,-134.0983,Unknown
-0.4248047,-0.798584,0.564209,0.5403817,0.4460382,0.702084,-46.1046,22.61235,-56.07628,-48.51112,23.48278,-58.0461,-0.2255859,-0.2509766,-0.3225098,-0.5947404,-0.031771,0.350626,-30.00816,26.31878,-127.5734,-32.52499,28.89939,-133.7024,Unknown
-0.4245605,-0.8049316,0.5585938,0.1739695,0.3849695,0.8394885,-46.15858,22.63396,-56.11239,-48.92268,23.42845,-58.45779,-0.2314453,-0.2509766,-0.3215332,-0.640542,0.2125039,0.3200917,-30.0645,26.38696,-127.6829,-32.35456,29.57158,-133.2832,Unknown
-0.4084473,-0.8027344,0.5646973,0.1892367,0.4613054,0.9768932,-46.21334,22.63996,-56.13406,-49.03563,22.59525,-57.91341,-0.2272949,-0.2492676,-0.3303223,-0.4726033,0.2583054,0.1368854,-30.10705,26.43833,-127.8154,-31.86771,28.77824,-134.3979,Unknown
-0.420166,-0.7954102,0.567627,0.00603056,0.5681756,0.9463588,-46.25698,22.66029,-56.15335,-48.39932,23.26668,-57.748,-0.2316895,-0.2438965,-0.3259277,-0.5794735,0.5025801,0.2284887,-30.14102,26.50988,-127.9376,-31.37964,29.64634,-134.0941,Unknown
-0.421875,-0.8007813,0.567627,-0.2840458,0.6750459,0.8394885,-46.30701,22.68217,-56.17608,-48.54973,23.25815,-57.90678,-0.2287598,-0.2502441,-0.3322754,-0.5336719,0.0,-0.09212208,-30.18177,26.55585,-128.0685,-31.81237,28.80842,-134.422,Unknown
-0.4313965,-0.8037109,0.5649414,-0.4977863,0.5223741,0.5036107,-46.35789,22.70985,-56.21022,-48.50983,23.70748,-58.2285,-0.223877,-0.2485352,-0.3308105,-0.4268017,0.7163206,0.06054974,-30.22221,26.60359,-128.1999,-31.88991,28.41634,-134.6822,Unknown
-0.425293,-0.8051758,0.5634766,-0.6046565,0.7513816,0.3967404,-46.41476,22.73471,-56.2452,-48.75643,23.40076,-58.25074,-0.2199707,-0.2497559,-0.3203125,-0.640542,0.838458,0.5032978,-30.2818,26.65261,-128.3066,-32.73109,28.43849,-133.9034,Unknown
-0.4294434,-0.802002,0.5578613,-0.3603816,0.3086336,0.4730763,-46.46622,22.75914,-56.283,-48.7228,23.72928,-58.483,-0.2260742,-0.2526855,-0.3278809,-0.6100078,0.4415114,0.1216183,-30.33241,26.69843,-128.4196,-32.3937,28.64059,-134.04,Unknown
-0.4313965,-0.807373,0.565918,-0.3756489,0.01855725,0.7326183,-46.51421,22.77684,-56.31279,-48.60802,23.63131,-58.2748,-0.2299805,-0.2509766,-0.3320313,-0.6100078,0.319374,0.3964274,-30.37185,26.74762,-128.5311,-31.85607,28.923,-134.286,Unknown
-0.4321289,-0.8100586,0.5549316,-0.03977096,-0.1188473,0.8089542,-46.56518,22.79463,-56.35165,-49.03366,23.75385,-58.85011,-0.2285156,-0.2460938,-0.3422852,-0.7016106,0.05983204,0.4727633,-30.39778,26.78322,-128.6607,-30.87769,28.46028,-135.5454,Unknown
-0.4267578,-0.8041992,0.5610352,0.02129769,-0.1035802,0.8852901,-46.60869,22.80679,-56.3718,-48.76469,23.51958,-58.35696,-0.2294922,-0.2502441,-0.3181152,0.0,-0.5355878,0.4880307,-30.44055,26.83127,-128.7435,-32.53637,29.55336,-133.1339,Unknown
-0.4257813,-0.8039551,0.5539551,-0.02450383,0.06435877,0.7631527,-46.65701,22.82278,-56.40714,-49.00755,23.56231,-58.6622,-0.2265625,-0.244873,-0.3300781,-1.098557,-0.07757253,0.3200917,-30.47692,26.87083,-128.8578,-31.45177,28.86609,-134.6954,Unknown
-0.4296875,-0.8037109,0.5627441,-0.08557248,0.6292443,0.5799466,-46.69755,22.8486,-56.43658,-48.62136,23.65092,-58.3057,-0.2219238,-0.2512207,-0.3291016,-4.16726,0.2888396,0.3200917,-30.57524,26.90149,-128.9654,-32.32972,28.19179,-134.4736,Unknown
-0.435791,-0.8022461,0.5668945,0.00603056,0.1254275,0.3356718,-46.72929,22.87194,-56.46616,-48.28943,23.92355,-58.1624,-0.2258301,-0.2580566,-0.3225098,-0.2741299,0.319374,0.4269619,-30.63261,26.94151,-129.0447,-33.24242,28.66742,-133.2433,Unknown
-0.4240723,-0.8027344,0.5644531,0.1739695,-0.01197708,0.442542,-46.76552,22.88175,-56.49292,-48.66832,23.37132,-58.12927,-0.2182617,-0.2495117,-0.3303223,-0.381,0.2125039,0.1216183,-30.66995,26.96181,-129.1599,-32.21957,27.80017,-134.8978,Unknown
-0.4362793,-0.7983398,0.5634766,-0.07030535,-0.01197708,0.534145,-46.79617,22.90513,-56.51976,-48.24652,24.05953,-58.22759,-0.2268066,-0.2446289,-0.3144531,-0.7016106,-0.3981832,0.4116948,-30.71118,27.01015,-129.2373,-32.24997,29.65247,-133.3082,Unknown
-0.4291992,-0.8027344,0.5605469,-0.009236574,0.2017633,0.6257481,-46.83375,22.92322,-56.54829,-48.66889,23.67122,-58.37516,-0.2263184,-0.2458496,-0.3237305,-0.4878702,-0.123374,0.1216183,-30.7421,27.05027,-129.3326,-31.8986,29.10673,-134.0919,Unknown
-0.4309082,-0.8032227,0.5668945,-0.2840458,-0.05777865,0.4730763,-46.8701,22.93727,-56.5728,-48.44227,23.66805,-58.12129,-0.2265625,-0.2502441,-0.3215332,-0.3351984,-0.2760458,0.1368854,-30.78148,27.08675,-129.416,-32.46483,29.07696,-133.6063,Unknown
-0.4265137,-0.8007813,0.5551758,-0.08557248,-0.1493817,0.3814733,-46.91071,22.94913,-56.60648,-48.8379,23.63975,-58.53714,-0.2260742,-0.2529297,-0.3271484,-0.6100078,0.05983204,0.1674199,-30.82338,27.11915,-129.5046,-32.45802,28.66568,-133.9606,Unknown
-0.4289551,-0.7998047,0.5571289,-0.2077099,0.3086336,0.4272748,-46.94895,22.96944,-56.6376,-48.68032,23.75334,-58.45564,-0.2258301,-0.2521973,-0.3342285,-0.5794735,0.578916,0.1063511,-30.85572,27.15208,-129.6056,-32.01463,28.34048,-134.6337,Unknown
-0.4309082,-0.8063965,0.5686035,-0.299313,0.339168,0.4578092,-46.98438,22.98687,-56.66057,-48.50011,23.5916,-58.1227,-0.2236328,-0.248291,-0.3203125,-0.4420686,0.6705191,-0.168458,-30.89389,27.1967,-129.6917,-32.43903,28.89009,-133.7883,Unknown
-0.4328613,-0.8024902,0.5593262,-0.4061831,0.3544351,0.3662061,-47.02285,23.00975,-56.69145,-48.60931,23.8702,-58.47346,-0.2263184,-0.2475586,-0.3291016,-0.4878702,0.6094504,0.2132213,-30.91853,27.23696,-129.7841,-31.79112,28.79147,-134.4554,Unknown
-0.4260254,-0.796875,0.5588379,-0.574122,0.2017633,0.4578092,-47.06213,23.02512,-56.71664,-48.59323,23.63962,-58.26521,-0.2226563,-0.248291,-0.3286133,-0.5184045,0.6705191,-0.01578617,-30.9478,27.26933,-129.8802,-32.02641,28.39571,-134.5769,Unknown
-0.4265137,-0.7998047,0.5656738,-0.390916,0.5223741,0.5646794,-47.09557,23.04233,-56.73522,-48.46618,23.52746,-58.03282,-0.229248,-0.265625,-0.3220215,-0.4268017,0.8231909,0.03001523,-31.01312,27.31154,-129.933,-33.90026,28.77465,-132.5449,Unknown
-0.432373,-0.8000488,0.5700684,-0.390916,0.7513816,0.3967404,-47.12328,23.06764,-56.75305,-48.19352,23.7558,-57.91822,-0.2241211,-0.2453613,-0.3354492,-0.6558094,0.0,0.182687,-31.02801,27.33204,-130.0372,-31.30742,28.33636,-135.269,Unknown
-0.4335938,-0.8051758,0.5507813,-0.390916,0.9498549,0.4883435,-47.16533,23.09859,-56.7901,-48.95768,23.96361,-58.94048,-0.2275391,-0.2514648,-0.333252,-0.6558094,0.7163206,0.4727633,-31.05569,27.36776,-130.1195,-31.93006,28.59157,-134.4992,Unknown
-0.4301758,-0.8024902,0.5612793,-0.3298473,0.781916,0.2746031,-47.19913,23.1224,-56.81723,-48.61298,23.71441,-58.34866,-0.2277832,-0.251709,-0.3278809,-0.4268017,0.6552519,0.3658931,-31.08504,27.40654,-130.1922,-32.23034,28.85732,-134.0048,Unknown
-0.4291992,-0.8022461,0.5563965,0.08236647,0.6750459,0.4120076,-47.22971,23.14384,-56.8463,-48.78432,23.731,-58.5529,-0.2236328,-0.2526855,-0.3310547,-0.3962674,0.746855,0.7170382,-31.11542,27.43408,-130.2668,-32.31284,28.23457,-134.4533,Unknown
-0.4335938,-0.7988281,0.5605469,0.2655725,0.9345879,0.3814733,-47.24966,23.17382,-56.87051,-48.42249,23.95611,-58.33705,-0.2233887,-0.2514648,-0.3278809,-0.4115343,0.487313,0.701771,-31.1461,27.46002,-130.3372,-32.36719,28.39659,-134.2688,Unknown
-0.4414063,-0.8083496,0.5541992,0.1434351,0.8429847,0.3814733,-47.27802,23.20683,-56.90714,-48.76606,24.24564,-58.96356,-0.2260742,-0.2495117,-0.3339844,-0.5489388,0.4720459,0.5490992,-31.16612,27.48716,-130.4178,-31.74372,28.47012,-134.7682,Unknown
-0.4350586,-0.8068848,0.5568848,0.08236647,0.7361145,0.3204046,-47.307,23.2321,-56.93872,-48.7877,23.92956,-58.7218,-0.2287598,-0.2468262,-0.3254395,-0.3962674,0.2125039,0.5338321,-31.18461,27.52536,-130.4829,-31.81894,29.2516,-134.0399,Unknown
-0.4401855,-0.8012695,0.5637207,0.06709921,0.7055801,0.3662061,-47.32489,23.26103,-56.96175,-48.24749,24.19467,-58.34141,-0.2287598,-0.2526855,-0.3276367,-0.3504658,0.319374,0.5490992,-31.21222,27.5583,-130.5425,-32.30733,28.93745,-133.8674,Unknown
-0.435791,-0.7961426,0.5678711,0.03656495,0.7666489,0.6410153,-47.33868,23.28746,-56.97242,-48.04115,24.01929,-57.96673,-0.2226563,-0.248291,-0.3286133,-0.4420686,0.6399847,0.5796337,-31.23457,27.58383,-130.6152,-32.02641,28.39571,-134.5769,Unknown
-0.4321289,-0.7929688,0.5524902,-0.1619084,0.8124504,0.3356718,-47.36424,23.31467,-56.99921,-48.50592,24.09063,-58.54206,-0.2258301,-0.2460938,-0.3249512,-0.4878702,0.7621221,0.1521528,-31.25459,27.6231,-130.685,-31.87716,28.98728,-134.2126,Unknown
-0.434082,-0.8007813,0.5563965,-0.1924427,0.7055801,0.2746031,-47.39202,23.33869,-57.02682,-48.61165,23.99695,-58.58162,-0.2229004,-0.2490234,-0.3232422,-0.4115343,0.5483816,0.259023,-31.28282,27.65109,-130.7486,-32.3837,28.64639,-134.0441,Unknown
-0.4367676,-0.798584,0.5615234,-0.4825191,0.6139771,0.3051374,-47.4169,23.36241,-57.04868,-48.30493,24.10363,-58.32919,-0.2263184,-0.2346191,-0.3330078,-0.4268017,0.3804427,0.091084,-31.26804,27.68477,-130.8445,-30.2298,29.05552,-135.6106,Unknown
-0.4338379,-0.8010254,0.5527344,-0.4825191,0.5376411,0.3662061,-47.45051,23.38359,-57.07737,-48.74276,24.02616,-58.75242,-0.2214355,-0.2487793,-0.3266602,-0.381,0.4567786,0.1674199,-31.29245,27.7041,-130.9142,-32.22716,28.33747,-134.4447,Unknown
-0.4353027,-0.8010254,0.5554199,-0.5893893,0.4155039,0.2746031,-47.48201,23.40291,-57.10503,-48.62102,24.06458,-58.64864,-0.2285156,-0.2485352,-0.3300781,-0.4878702,0.2735725,0.1521528,-31.30898,27.73294,-130.9807,-31.76068,28.94521,-134.3526,Unknown
-0.4282227,-0.8029785,0.5534668,-0.7573281,0.2017633,0.1982672,-47.52206,23.41194,-57.13387,-48.92825,23.70594,-58.69257,-0.2248535,-0.2490234,-0.3327637,-0.2741299,0.4567786,-0.0310533,-31.3226,27.75282,-131.0568,-31.8015,28.41341,-134.7639,Unknown
-0.4331055,-0.7949219,0.5651855,-0.4825191,0.3086336,0.3662061,-47.54119,23.4268,-57.1466,-48.14766,23.94337,-58.02179,-0.2294922,-0.2509766,-0.3320313,0.0,0.5636489,-0.1379237,-31.33362,27.78347,-131.1239,-31.87375,28.87148,-134.3137,Unknown
-0.4282227,-0.8066406,0.5515137,-0.6046565,0.5376411,0.4120076,-47.58166,23.43946,-57.17506,-49.11997,23.66462,-58.87241,-0.2290039,-0.2480469,-0.3273926,-0.2283282,0.4415114,-0.1989923,-31.34675,27.81668,-131.1866,-31.83358,29.14099,-134.1211,Unknown
-0.4367676,-0.8093262,0.5700684,-0.5283206,0.8277176,0.5799466,-47.60559,23.45817,-57.18774,-48.41585,23.8073,-58.20653,-0.2255859,-0.255127,-0.3269043,-0.5947404,0.6705191,0.0147481,-31.38284,27.84114,-131.2393,-32.71421,28.54642,-133.8282,Unknown
-0.4291992,-0.7993164,0.5549316,-0.6046565,0.7971831,0.534145,-47.63692,23.47675,-57.20709,-48.7273,23.8013,-58.54765,-0.2294922,-0.2546387,-0.3395996,-0.4878702,0.8537251,0.182687,-31.3989,27.86399,-131.3066,-31.85123,28.39853,-134.7318,Unknown
-0.4338379,-0.8005371,0.5507813,-0.5893893,0.9803894,0.3814733,-47.66801,23.50185,-57.23432,-48.78756,24.05926,-58.83033,-0.2263184,-0.2370605,-0.3344727,-0.6558094,0.6705191,0.259023,-31.38883,27.89459,-131.3883,-30.41322,28.90071,-135.5819,Unknown
-0.4350586,-0.7973633,0.5576172,-0.833664,0.781916,0.5494123,-47.69545,23.52513,-57.25065,-48.42713,24.09095,-58.45455,-0.223877,-0.2519531,-0.3295898,-0.7474122,0.6094504,0.07581687,-31.41746,27.91212,-131.4467,-32.30751,28.35321,-134.359,Unknown
-0.4423828,-0.8034668,0.5637207,-0.8947329,0.7055801,0.4730763,-47.71925,23.54955,-57.26764,-48.2716,24.26212,-58.42477,-0.2287598,-0.2478027,-0.3322754,-0.4268017,0.8842595,-0.04632068,-31.42661,27.94475,-131.5099,-31.5613,28.89381,-134.5743,Unknown
-0.4335938,-0.7993164,0.5698242,0.0,0.5834427,0.442542,-47.72778,23.56376,-57.27434,-48.14581,23.83133,-57.92747,-0.223877,-0.2492676,-0.3269043,-0.3962674,0.0,0.03001523,-31.4474,27.9573,-131.5652,-32.17482,28.57202,-134.2954,Unknown
-0.4353027,-0.8029785,0.5566406,-0.9405342,0.4918396,0.5188779,-47.76008,23.58,-57.29404,-48.65154,24.01433,-58.64064,-0.2263184,-0.248291,-0.3210449,-0.9306183,0.9453281,0.2437558,-31.47717,27.99403,-131.6045,-32.29737,29.1455,-133.6996,Unknown
-0.4353027,-0.8041992,0.5563965,-0.833664,0.59871,0.5799466,-47.79037,23.59653,-57.31384,-48.70243,23.9955,-58.6817,-0.230957,-0.2478027,-0.3300781,0.0,-0.1997099,0.259023,-31.47955,28.01581,-131.6538,-31.59631,29.22983,-134.2577,Unknown
-0.4272461,-0.8022461,0.5561523,-0.6962595,0.7513816,0.9310915,-47.8216,23.6084,-57.32464,-48.84034,23.63787,-58.5383,-0.2280273,-0.2460938,-0.3378906,-0.8542824,0.01403052,-0.07685494,-31.48407,28.02794,-131.7258,-31.11982,28.61278,-135.2036,Unknown
-0.4387207,-0.8081055,0.550293,-0.4825191,0.4613054,0.5799466,-47.85074,23.62591,-57.35222,-48.94759,24.16753,-59.1012,-0.2253418,-0.25,-0.3300781,-0.5794735,0.07509923,0.4269619,-31.50345,28.0396,-131.7739,-32.02709,28.55572,-134.4421,Unknown
-0.4294434,-0.8024902,0.5454102,-0.5130534,0.2170305,0.3814733,-47.88404,23.63406,-57.38093,-49.1389,23.87383,-59.06831,-0.2258301,-0.2438965,-0.3325195,-0.1367252,0.838458,0.5643663,-31.50023,28.06444,-131.8309,-31.2483,28.70645,-135.0109,Unknown
-0.4389648,-0.8037109,0.564209,-0.2687786,-0.1188473,0.07612977,-47.89702,23.64146,-57.39953,-48.34861,24.08562,-58.36274,-0.2255859,-0.2502441,-0.3146973,0.2449541,0.0,0.6712368,-31.52411,28.08906,-131.8453,-32.87429,29.29538,-133.0472,Unknown
-0.4382324,-0.8063965,0.5522461,-0.2840458,-0.2409847,-0.1986794,-47.92002,23.6481,-57.43373,-48.83815,24.15049,-58.9639,-0.2275391,-0.2502441,-0.3339844,-0.1519923,0.0,0.6407022,-31.53119,28.09928,-131.8918,-31.76661,28.60012,-134.6386,Unknown
-0.4367676,-0.8083496,0.5571289,0.03656495,-0.2562519,0.1524656,-47.93687,23.65105,-57.45819,-48.78921,23.98377,-58.76883,-0.2241211,-0.2509766,-0.3269043,-0.4420686,0.1056336,0.8086412,-31.55349,28.1095,-131.9263,-32.34251,28.53754,-134.1729,Unknown
-0.4343262,-0.8032227,0.564209,0.2503054,-0.07304579,0.442542,-47.94358,23.65439,-57.46873,-48.44453,23.86828,-58.28871,-0.2302246,-0.2473145,-0.3271484,-0.7474122,-0.1386412,0.7170382,-31.56791,28.13144,-131.9587,-31.72557,29.30865,-134.0749,Unknown
-0.4296875,-0.8029785,0.5554199,0.4640458,0.06435877,0.5494123,-47.95448,23.65733,-57.48373,-48.8294,23.75402,-58.6222,-0.2287598,-0.246582,-0.3276367,-0.8084807,-0.291313,0.86971,-31.5812,28.14793,-131.9926,-31.67784,29.15584,-134.2478,Unknown
-0.4301758,-0.7961426,0.5505371,0.1587023,0.3544351,0.702084,-47.96782,23.66827,-57.49811,-48.73074,23.96121,-58.68464,-0.2243652,-0.2470703,-0.3381348,-0.3046641,0.6399847,0.610168,-31.58076,28.15799,-132.0512,-31.33494,28.18044,-135.3746,Unknown
-0.4431152,-0.7963867,0.559082,-0.08557248,0.339168,0.4578092,-47.97266,23.68957,-57.51088,-48.14658,24.4842,-58.47268,-0.2263184,-0.2419434,-0.3251953,0.07701516,1.174336,0.1674199,-31.57623,28.19564,-132.0971,-31.41092,29.17735,-134.4676,Unknown
-0.4453125,-0.7932129,0.5524902,-0.4825191,-0.3631221,0.07612977,-47.98397,23.70513,-57.53409,-48.18405,24.73416,-58.72735,-0.2216797,-0.2446289,-0.3215332,0.5960991,1.540748,0.2132213,-31.57718,28.22944,-132.1369,-32.06213,28.7533,-134.2443,Unknown
-0.4418945,-0.7851563,0.5578613,-0.6962595,-0.9127405,-0.1223435,-47.99074,23.71052,-57.5499,-47.8105,24.64547,-58.235,-0.2214355,-0.2480469,-0.3322754,0.6113663,1.891893,-0.2447939,-31.57422,28.25288,-132.1971,-31.84871,28.10358,-134.98,Unknown
-0.4370117,-0.7998047,0.5598145,-0.833664,-1.553962,-0.2292137,-48.01029,23.69729,-57.57086,-48.39634,24.11518,-58.44053,-0.2258301,-0.2512207,-0.3300781,0.580832,1.58655,0.03001523,-31.5769,28.28245,-132.2395,-32.13491,28.56495,-134.3373,Unknown
-0.4414063,-0.8029785,0.5629883,-0.8794656,-1.981443,-0.07654199,-48.02903,23.67887,-57.58923,-48.30116,24.23265,-58.43294,-0.2263184,-0.2490234,-0.3371582,0.04648089,0.7773893,0.3353589,-31.57469,28.30165,-132.2882,-31.51859,28.36654,-135.0559,Unknown
-0.434082,-0.8046875,0.5612793,-0.7115266,-1.920374,0.04559542,-48.05639,23.63934,-57.60551,-48.59508,23.86673,-58.45473,-0.2253418,-0.2470703,-0.3378906,-0.3351984,0.8231909,0.1979542,-31.57439,28.31363,-132.3455,-31.31378,28.29541,-135.2976,Unknown
-0.451416,-0.8034668,0.5461426,-1.062672,-1.462359,-0.1070763,-48.08273,23.6435,-57.64194,-48.59188,24.92214,-59.34874,-0.2248535,-0.236084,-0.3369141,-0.01458788,1.708687,-0.04632068,-31.54783,28.34566,-132.4181,-30.23548,28.65934,-135.9407,Unknown
-0.4448242,-0.7961426,0.5625,-1.169542,-2.21045,-0.1070763,-48.09804,23.6287,-57.65736,-47.98889,24.52817,-58.3342,-0.2290039,-0.2526855,-0.3395996,0.06174803,1.556015,-0.06158781,-31.54944,28.36837,-132.4682,-31.67088,28.41358,-134.8807,Unknown
-0.435791,-0.7980957,0.5639648,-1.566489,-2.699,0.03032825,-48.12226,23.59978,-57.66766,-48.23431,24.03386,-58.19272,-0.2243652,-0.2434082,-0.340332,-0.3351984,1.067466,0.091084,-31.54056,28.38176,-132.5332,-30.84244,28.20123,-135.793,Unknown
-0.4375,-0.8054199,0.5622559,-1.917634,-2.225718,0.183,-48.16001,23.57305,-57.6809,-48.50632,24.00828,-58.4737,-0.2270508,-0.2502441,-0.3137207,-0.6710763,0.8231909,0.2284887,-31.57635,28.41543,-132.5369,-32.86999,29.50058,-132.8752,Unknown
-0.434082,-0.8078613,0.5500488,-2.20771,-1.859305,0.2746031,-48.20836,23.55504,-57.70443,-49.0632,23.94822,-59.04586,-0.2314453,-0.2463379,-0.3322754,-0.07565641,1.418611,0.2437558,-31.57221,28.45256,-132.5728,-31.31367,29.22909,-134.51,Unknown
-0.4306641,-0.8034668,0.5510254,-1.474885,-2.073046,0.03032825,-48.24513,23.53041,-57.72688,-48.96288,23.84739,-58.84898,-0.2248535,-0.2460938,-0.3398438,0.1075497,1.617084,-0.06158781,-31.56176,28.47101,-132.6333,-31.1285,28.18634,-135.5528,Unknown
-0.4396973,-0.8117676,0.5549316,-1.352748,-1.447092,0.04559542,-48.27822,23.52038,-57.75148,-48.90548,24.09211,-58.99013,-0.220459,-0.2451172,-0.3376465,0.4434273,1.647618,-0.04632068,-31.54988,28.48282,-132.695,-31.29375,27.85094,-135.6845,Unknown
-0.4411621,-0.8049316,0.5629883,-1.230611,-1.737168,-0.1834122,-48.29827,23.50815,-57.76869,-48.37628,24.18586,-58.47736,-0.2275391,-0.2480469,-0.3330078,0.7640381,0.8995267,-0.0310533,-31.54024,28.49994,-132.7354,-31.59194,28.72161,-134.6924,Unknown
-0.4406738,-0.8007813,0.5561523,-0.4519846,-1.660832,-0.1223435,-48.30762,23.50165,-57.78862,-48.45567,24.32247,-58.68098,-0.229248,-0.2460938,-0.3398438,0.6571679,0.3041069,-0.1379237,-31.51932,28.50743,-132.7887,-30.97727,28.65051,-135.2979,Unknown
-0.4309082,-0.8076172,0.5483398,-0.3756489,-1.431824,-0.06127481,-48.33076,23.48693,-57.81529,-49.18871,23.81782,-59.07724,-0.2297363,-0.2404785,-0.3278809,0.01594663,-0.7035267,-0.06158781,-31.50853,28.51626,-132.8257,-30.99165,29.46632,-134.5925,Unknown
-0.4326172,-0.8098145,0.5571289,-0.7573281,-1.40129,-0.1986794,-48.35415,23.47169,-57.83691,-48.94316,23.7553,-58.75019,-0.2233887,-0.2441406,-0.3391113,0.1075497,-0.7798626,0.2437558,-31.49708,28.49706,-132.8796,-31.01499,28.12944,-135.7005,Unknown
-0.4294434,-0.8012695,0.5629883,0.0,-1.141748,-0.09180916,-48.35772,23.45905,-57.84613,-48.53304,23.67888,-58.23073,-0.2331543,-0.2495117,-0.3339844,-0.04512215,0.0,0.9613131,-31.49761,28.51145,-132.8951,-31.49059,29.21669,-134.3632,Unknown
-0.4333496,-0.7995605,0.5617676,0.0,-1.141748,-0.504023,-48.35889,23.45141,-57.86255,-48.41579,23.91584,-58.2962,-0.2226563,-0.2346191,-0.3293457,-0.04512215,-0.810397,0.7933741,-31.47923,28.50687,-132.9367,-30.54764,28.83831,-135.5172,Unknown
-0.4279785,-0.8039551,0.5515137,-0.833664,-0.5005267,-0.2444809,-48.38378,23.44952,-57.88471,-49.03148,23.70045,-58.80326,-0.2197266,-0.2451172,-0.3300781,0.4281602,0.2583054,0.3964274,-31.47781,28.50296,-132.9736,-31.72289,28.12164,-135.0777,Unknown
-0.4384766,-0.796875,0.5598145,0.0,-0.179916,-0.6108932,-48.38122,23.46267,-57.90376,-48.25579,24.23948,-58.38817,-0.2263184,-0.2478027,-0.3276367,0.7640381,0.05983204,0.701771,-31.4749,28.51082,-132.9901,-31.89409,28.85162,-134.3123,Unknown
-0.427002,-0.8037109,0.5576172,-0.1619084,-0.2104504,-0.7024961,-48.393,23.46197,-57.9261,-48.85112,23.582,-58.50425,-0.2260742,-0.2480469,-0.3222656,0.6266336,-0.7035267,0.5338321,-31.48112,28.51235,-132.9997,-32.2155,29.07023,-133.8376,Unknown
-0.4287109,-0.8039551,0.560791,0.08236647,0.3849695,-0.9162367,-48.39833,23.47046,-57.9479,-48.71619,23.62275,-58.38781,-0.2255859,-0.2485352,-0.3261719,0.9625113,-0.6882596,0.6254351,-31.47885,28.5083,-133.0141,-32.0751,28.81585,-134.1798,Unknown
-0.4174805,-0.8127441,0.5620117,0.4029771,1.102527,0.0,-48.4096,23.47534,-57.95703,-49.25809,22.90374,-58.40449,-0.2307129,-0.2492676,-0.3337402,1.359458,-0.031771,0.4880307,-31.4606,28.51728,-133.0366,-31.56569,28.98037,-134.4971,Unknown
-0.4311523,-0.8044434,0.5571289,1.777023,1.972756,-1.038374,-48.39109,23.5104,-57.98514,-48.7904,23.77887,-58.59934,-0.2236328,-0.2441406,-0.3312988,2.015946,0.8231909,0.3658931,-31.43205,28.52863,-133.0712,-31.41615,28.51998,-135.0186,Unknown
-0.425293,-0.8034668,0.5551758,2.60145,2.766649,-1.236847,-48.36684,23.54879,-58.01416,-48.96307,23.53197,-58.58766,-0.2226563,-0.2470703,-0.322998,2.504496,0.9453281,0.1368854,-31.41064,28.54598,-133.091,-32.20234,28.70184,-134.1613,Unknown
-0.425293,-0.8039551,0.5488281,2.555649,2.995656,-1.465855,-48.34563,23.59387,-58.05326,-49.18493,23.6007,-58.89199,-0.2250977,-0.2468262,-0.3317871,2.565565,0.0,0.2742901,-31.37958,28.54628,-133.1215,-31.61733,28.56096,-134.8049,Unknown
-0.4299316,-0.8056641,0.5490723,2.006031,2.201763,-1.771199,-48.33362,23.62812,-58.09616,-49.12115,23.7959,-58.98314,-0.2263184,-0.2456055,-0.3337402,2.244954,0.6552519,0.7170382,-31.34588,28.55783,-133.1481,-31.34476,28.6421,-134.9795,Unknown
-0.4282227,-0.8012695,0.5612793,1.57855,1.636878,-1.649061,-48.31609,23.65242,-58.12432,-48.61743,23.64005,-58.2924,-0.2297363,-0.2490234,-0.3283691,1.313656,0.5483816,0.6865039,-31.33806,28.57695,-133.1578,-31.85619,29.13776,-134.1035,Unknown
-0.4343262,-0.8098145,0.5588379,1.242672,1.972756,-1.71013,-48.30966,23.68279,-58.15919,-48.84684,23.81782,-58.69465,-0.2224121,-0.2487793,-0.3283691,1.145718,0.0,0.3658931,-31.33644,28.57269,-133.18,-32.09908,28.36361,-134.5383,Unknown
-0.4321289,-0.8144531,0.5598145,1.639618,2.736115,-1.236847,-48.3,23.7217,-58.18888,-49.03192,23.61721,-58.73475,-0.2270508,-0.253418,-0.3356934,1.451061,0.578916,0.6865039,-31.32874,28.57696,-133.1986,-32.01814,28.3609,-134.6134,Unknown
-0.4296875,-0.8010254,0.564209,1.257939,1.621611,-1.11471,-48.2851,23.74471,-58.20494,-48.47948,23.68005,-58.17233,-0.2321777,-0.251709,-0.3344727,0.9625113,0.0,0.86971,-31.32346,28.58572,-133.2092,-31.72469,29.01484,-134.3258,Unknown
-0.4335938,-0.8093262,0.5637207,1.410611,1.652145,-0.763565,-48.2739,23.7671,-58.22034,-48.69301,23.73106,-58.45133,-0.2270508,-0.2458496,-0.3278809,0.6571679,-0.7951298,0.4269619,-31.32035,28.58207,-133.227,-31.6514,28.98791,-134.4142,Unknown
-0.4245605,-0.8066406,0.5646973,1.059466,2.217031,-0.4124198,-48.26858,23.79084,-58.22644,-48.78656,23.32452,-58.2221,-0.2319336,-0.2497559,-0.3366699,0.6571679,-0.8409313,0.8849771,-31.31335,28.578,-133.2433,-31.42109,28.95501,-134.6474,Unknown
-0.4206543,-0.8017578,0.5651855,0.7999237,2.140695,-0.6414275,-48.26609,23.80861,-58.23124,-48.69256,23.21092,-58.02626,-0.2285156,-0.2492676,-0.3339844,0.3365571,0.1056336,0.7781069,-31.31477,28.58273,-133.2599,-31.63157,28.73723,-134.6439,Unknown
-0.4211426,-0.810791,0.5563965,0.998397,2.476573,-0.4887558,-48.27174,23.83253,-58.24698,-49.28298,23.18435,-58.65913,-0.2175293,-0.2468262,-0.3259277,-0.5947404,0.8689924,0.5185649,-31.34077,28.58331,-133.2822,-32.20669,28.01573,-134.7311,Unknown
-0.4367676,-0.8022461,0.5605469,0.2045038,3.071992,-0.2444809,-48.27282,23.87904,-58.25467,-48.46592,24.0504,-58.46386,-0.206543,-0.244873,-0.3347168,0.8098397,2.365176,-0.3211298,-31.34017,28.5759,-133.3464,-31.90599,26.47432,-136.2566,Unknown
-0.4421387,-0.7973633,0.5456543,0.4335115,3.148328,-0.2597481,-48.27353,23.93952,-58.27541,-48.62711,24.58929,-59.10057,-0.2141113,-0.2475586,-0.3266602,1.756404,2.090366,-0.3821983,-31.3349,28.58675,-133.384,-32.36765,27.58213,-134.9435,Unknown
-0.4445801,-0.798584,0.5615234,0.6014504,1.102527,-0.3971527,-48.26147,23.96663,-58.28444,-48.11256,24.48453,-58.43505,-0.2211914,-0.2380371,-0.322998,1.466328,0.6857863,-0.7028093,-31.31411,28.60177,-133.4225,-31.30172,28.86692,-134.8281,Unknown
-0.4379883,-0.8015137,0.5488281,0.0976336,0.4613054,-0.1376107,-48.2705,23.97902,-58.30062,-48.77976,24.26962,-58.99927,-0.2229004,-0.2507324,-0.338623,0.8861756,0.4262443,-0.9623513,-31.30952,28.59359,-133.4735,-31.73595,27.87974,-135.2666,Unknown
-0.4316406,-0.7963867,0.550293,-0.4519846,-0.1341145,-0.01547329,-48.28594,23.97811,-58.30927,-48.71057,24.03221,-58.72153,-0.2285156,-0.2502441,-0.3308105,0.489229,-0.1997099,0.0,-31.3141,28.5958,-133.4902,-31.89812,28.8507,-134.3094,Unknown
-0.4416504,-0.8081055,0.5620117,-0.574122,0.2322977,-0.1070763,-48.2988,23.98526,-58.31677,-48.50677,24.16503,-58.60539,-0.220459,-0.2543945,-0.3376465,-0.4420686,-0.4897862,-0.7333436,-31.33925,28.5675,-133.5329,-32.24647,27.54122,-135.0865,Unknown
-0.440918,-0.8022461,0.565918,0.0,-0.5157939,0.3967404,-48.29673,23.98168,-58.31012,-48.19542,24.18521,-58.27561,-0.2287598,-0.2536621,-0.3339844,-2.27413,0.0,0.6559694,-31.38733,28.56836,-133.5397,-32.07166,28.61049,-134.356,Unknown
-0.4318848,-0.8041992,0.5583496,-0.9252671,-0.07304579,0.8242214,-48.31889,23.97706,-58.30274,-48.72484,23.80407,-58.54721,-0.2185059,-0.2612305,-0.3337402,-1.022222,-0.01650381,-0.9623513,-31.439,28.54223,-133.5715,-33.21936,27.27392,-134.4199,Unknown
-0.4304199,-0.814209,0.5495605,-0.8489313,0.5376411,0.0,-48.35284,23.97865,-58.32018,-49.39223,23.66143,-59.17483,-0.2180176,-0.244873,-0.3203125,0.6113663,1.90716,-1.115023,-31.44767,28.56558,-133.602,-32.29215,28.40144,-134.3326,Unknown
-0.4355469,-0.8061523,0.5524902,0.0,-0.4089237,0.7326183,-48.36356,23.97388,-58.32195,-48.88899,24.02065,-58.91145,-0.223877,-0.2468262,-0.3278809,2.611366,2.487313,-1.603572,-31.41771,28.60309,-133.6443,-31.86894,28.61281,-134.5362,Unknown
-0.4328613,-0.8024902,0.5666504,0.2655725,-0.179916,0.06086259,-48.35992,23.96734,-58.31742,-48.37682,23.77935,-58.14025,-0.2207031,-0.2553711,-0.3366699,1.878542,1.708687,-1.679908,-31.41137,28.60603,-133.693,-32.38957,27.5778,-134.9272,Unknown
-0.4428711,-0.8041992,0.5544434,0.128168,0.09489316,-0.2139466,-48.36248,23.97708,-58.33144,-48.57555,24.38899,-58.87154,-0.2202148,-0.2463379,-0.3327637,0.32129,0.5636489,-0.9623513,-31.41188,28.60291,-133.7383,-31.68866,28.00815,-135.2025,Unknown
-0.4355469,-0.8100586,0.5541992,-0.7267939,-0.8211374,-0.03074045,-48.38607,23.96325,-58.34386,-48.97205,23.92968,-58.9281,-0.220459,-0.2519531,-0.3330078,-0.4878702,-0.7493282,-0.9776182,-31.43527,28.5772,-133.7739,-32.24686,27.83146,-134.8473,Unknown
-0.4421387,-0.8066406,0.5322266,-0.7573281,-1.279153,0.8394885,-48.41629,23.95813,-58.3644,-49.37772,24.58456,-59.94673,-0.2158203,-0.2504883,-0.3291016,-0.6863437,-0.07757253,-1.34403,-31.46617,28.55565,-133.8155,-32.47571,27.55684,-134.8664,Unknown
-0.4367676,-0.8056641,0.5490723,-1.902366,-2.149382,0.6410153,-48.45491,23.93,-58.36913,-48.94942,24.13136,-59.07262,-0.217041,-0.2556152,-0.3374023,0.229687,0.1056336,-1.756244,-31.48354,28.52901,-133.8685,-32.50345,27.14605,-135.1765,Unknown
-0.4223633,-0.8054199,0.557373,-1.12374,-2.531061,0.6257481,-48.483,23.88072,-58.36249,-49.03307,23.32644,-58.49708,-0.2207031,-0.2463379,-0.3222656,0.7335038,0.0,-1.72571,-31.48858,28.52944,-133.8999,-32.23849,28.55046,-134.256,Unknown
-0.4328613,-0.7937012,0.5463867,-1.566489,-2.714267,0.2593359,-48.50901,23.84968,-58.36874,-48.70868,24.19051,-58.85259,-0.2363281,-0.2407227,-0.3322754,1.939611,1.067466,-1.908916,-31.44142,28.57336,-133.9413,-30.55642,29.94085,-134.5666,Unknown
-0.4436035,-0.8000488,0.565918,-2.757328,-3.645565,-0.3666183,-48.54039,23.80619,-58.37191,-48.05174,24.35486,-58.25809,-0.244873,-0.2531738,-0.328125,1.252588,-1.863832,-0.6112061,-31.4288,28.58603,-133.9309,-31.73117,30.57665,-132.9716,Unknown
-0.4211426,-0.800293,0.5803223,-1.291679,-2.699,-0.6719618,-48.55139,23.75189,-58.36058,-48.14087,23.07487,-57.31137,-0.2409668,-0.2597656,-0.3413086,-1.434435,-3.955435,0.9613131,-31.45733,28.54659,-133.9177,-31.87115,29.3274,-133.9284,Unknown
-0.4179688,-0.809082,0.583252,-1.093206,0.01855725,-0.4582213,-48.56398,23.73184,-58.34689,-48.43109,22.73663,-57.36175,-0.2375488,-0.2561035,-0.3400879,-3.388634,-3.970702,2.38116,-31.51179,28.5005,-133.889,-31.68953,29.16046,-134.2335,Unknown
-0.4279785,-0.8183594,0.5761719,1.059466,2.888786,0.1524656,-48.55209,23.76272,-58.33852,-48.748,23.15243,-58.04033,-0.2392578,-0.2578125,-0.3337402,-3.510771,-3.161542,2.686504,-31.5756,28.47537,-133.8416,-32.12175,29.56775,-133.4969,Unknown
-0.4274902,-0.8198242,0.5769043,3.044199,4.552908,1.068496,-48.51204,23.8163,-58.31679,-48.78704,23.09535,-58.03751,-0.2231445,-0.2529297,-0.3198242,-3.327565,-0.7798626,2.259023,-31.67842,28.46208,-133.7834,-32.96656,28.68998,-133.4772,Unknown
-0.4155273,-0.815918,0.5529785,1.975496,5.026191,1.755519,-48.49147,23.91044,-58.2883,-49.71018,22.85915,-58.87097,-0.2175293,-0.2453613,-0.3283691,-1.068023,3.708687,1.46513,-31.69895,28.50643,-133.787,-31.91987,27.95365,-135.0406,Unknown
-0.4262695,-0.8037109,0.5400391,1.914428,4.858252,1.205901,-48.48221,23.97886,-58.29093,-49.43539,23.7604,-59.30628,-0.2058105,-0.2436523,-0.3205566,0.8098397,4.563649,0.86971,-31.70513,28.54486,-133.8014,-32.60338,27.07368,-135.1446,Unknown
-0.4370117,-0.7932129,0.5400391,2.189237,3.774282,0.2288015,-48.45614,24.04447,-58.30558,-48.78756,24.48505,-59.19182,-0.2111816,-0.2460938,-0.331543,1.802206,4.136168,0.6559694,-31.68728,28.57248,-133.829,-32.04871,27.08815,-135.6342,Unknown
-0.4382324,-0.8046875,0.5358887,1.151069,2.720847,-0.4734885,-48.45713,24.08858,-58.33954,-49.29509,24.38394,-59.67867,-0.2194824,-0.2458496,-0.322998,1.389992,2.334641,1.159786,-31.67695,28.60335,-133.8239,-32.1927,28.40034,-134.4232,Unknown
-0.4401855,-0.7990723,0.5378418,0.738855,1.942221,-0.6872291,-48.45681,24.12657,-58.37243,-48.98425,24.56013,-59.47857,-0.2145996,-0.2470703,-0.3337402,1.389992,1.113267,1.67887,-31.66118,28.59425,-133.834,-31.90995,27.33017,-135.562,Unknown
-0.447998,-0.8093262,0.5449219,0.2350382,0.781916,0.0,-48.46268,24.14879,-58.39495,-48.92344,24.66296,-59.49872,-0.2163086,-0.2531738,-0.3347168,1.634267,0.319374,1.510931,-31.65247,28.57241,-133.8381,-32.42665,27.26711,-135.1477,Unknown
-0.4418945,-0.8034668,0.5495605,0.219771,-0.02724427,-1.420053,-48.46474,24.15373,-58.42922,-48.72725,24.41586,-59.06474,-0.2268066,-0.2556152,-0.3308105,1.054115,-0.3676488,1.770473,-31.65514,28.56553,-133.8184,-32.50912,28.48075,-134.0697,Unknown
-0.4455566,-0.8076172,0.5566406,0.219771,-0.179916,-1.267382,-48.46365,24.15678,-58.45581,-48.5605,24.42988,-58.88945,-0.2246094,-0.2485352,-0.3361816,0.3365571,-0.902,1.755206,-31.64868,28.54589,-133.8183,-31.57957,28.24669,-135.1016,Unknown
-0.4360352,-0.815918,0.5585938,0.6167176,0.2933664,-0.6872291,-48.46582,24.15388,-58.47432,-49.02555,23.79598,-58.87616,-0.2231445,-0.2504883,-0.3405762,-0.1367252,0.0,1.862076,-31.64971,28.53149,-133.8232,-31.59969,27.82565,-135.433,Unknown
-0.4372559,-0.8098145,0.5529785,0.3419085,0.2475649,-0.6108932,-48.47067,24.15509,-58.49382,-48.9595,24.03231,-59.0003,-0.223877,-0.2463379,-0.3435059,0.1533511,-0.5050534,1.46513,-31.63456,28.51207,-133.8447,-30.99717,27.90706,-135.9008,Unknown
-0.4448242,-0.8127441,0.5517578,-0.4825191,-0.2867863,-0.3971527,-48.4861,24.15529,-58.5139,-48.91068,24.36204,-59.22525,-0.2260742,-0.2490234,-0.3342285,0.0922823,-0.8867329,1.694137,-31.63412,28.49831,-133.8393,-31.68069,28.47567,-134.8199,Unknown
-0.435791,-0.8061523,0.5559082,-0.6199236,-0.5157939,-0.3055496,-48.50098,24.14442,-58.52327,-48.77469,23.99044,-58.75818,-0.2216797,-0.2453613,-0.3293457,0.5350306,-0.2760458,1.526198,-31.62845,28.49173,-133.8392,-31.71755,28.35869,-134.8849,Unknown
-0.4375,-0.7993164,0.5559082,-0.5130534,0.1559618,-0.04600763,-48.50781,24.14761,-58.52571,-48.49025,24.1969,-58.61374,-0.2192383,-0.237793,-0.3413086,0.5960991,0.1667023,1.327725,-31.59469,28.48017,-133.8737,-30.37854,27.7912,-136.5401,Unknown
-0.4414063,-0.7954102,0.5463867,-0.5893893,0.3697023,-0.2902825,-48.51738,24.16169,-58.53965,-48.55301,24.58021,-59.00943,-0.217041,-0.2412109,-0.3295898,1.817473,0.7621221,0.3811603,-31.56477,28.4815,-133.8996,-31.43437,27.98652,-135.4473,Unknown
-0.4465332,-0.7814941,0.5466309,-0.1924427,0.07962596,-0.8093664,-48.5081,24.18142,-58.55533,-47.91224,25.08959,-58.72882,-0.2236328,-0.2456055,-0.331543,2.061748,0.1514351,0.2284887,-31.53428,28.48325,-133.9172,-31.55589,28.4578,-134.9463,Unknown
-0.4445801,-0.796875,0.5678711,0.05183208,-0.2867863,0.0,-48.49426,24.18226,-58.54633,-47.85381,24.43432,-58.10506,-0.2270508,-0.2558594,-0.3364258,0.8861756,-1.589023,0.4116948,-31.53597,28.45667,-133.9237,-32.22691,28.24414,-134.5229,Unknown
-0.4423828,-0.8056641,0.5588379,-0.299313,-0.439458,0.0,-48.49852,24.17826,-58.5494,-48.50193,24.28383,-58.70005,-0.2297363,-0.2458496,-0.3435059,-0.3351984,-2.856199,0.9460459,-31.52517,28.41635,-133.9431,-30.74919,28.53992,-135.5917,Unknown
-0.4389648,-0.8068848,0.5571289,-0.4825191,-0.4547252,-0.4582213,-48.5093,24.17035,-58.5604,-48.68327,24.11698,-58.76219,-0.2250977,-0.2468262,-0.3288574,-0.07565641,-2.30658,0.8849771,-31.53115,28.39034,-133.9431,-31.77246,28.6981,-134.5509,Unknown
-0.4328613,-0.7961426,0.5507813,0.1129008,-0.1493817,-0.2750153,-48.51068,24.16672,-58.56715,-48.65567,24.09076,-58.7093,-0.2297363,-0.2468262,-0.3220215,0.5350306,-1.375283,0.7781069,-31.53192,28.3927,-133.9265,-31.96309,29.51951,-133.6812,Unknown
-0.4304199,-0.8017578,0.5690918,-0.2840458,-0.2104504,-0.4124198,-48.51129,24.15314,-58.56144,-48.33224,23.64259,-57.97878,-0.232666,-0.2473145,-0.3308105,0.8251068,-1.024137,0.5490992,-31.51888,28.39865,-133.9254,-31.44592,29.39276,-134.2526,Unknown
-0.4338379,-0.7932129,0.5568848,0.3419085,0.1559618,-0.3666183,-48.50301,24.15451,-58.56262,-48.33214,24.11494,-58.36889,-0.2248535,-0.2434082,-0.3271484,0.7793052,-0.8714657,0.4727633,-31.50735,28.39534,-133.9326,-31.51517,28.87352,-134.6326,Unknown
-0.4372559,-0.7939453,0.5637207,0.2350382,0.6750459,-0.4887558,-48.49065,24.165,-58.56097,-48.05774,24.18281,-58.12083,-0.2265625,-0.2453613,-0.3349609,0.7335038,-0.9172672,0.6407022,-31.49208,28.38723,-133.9469,-31.24719,28.61931,-135.0853,Unknown
-0.4306641,-0.7978516,0.5622559,0.1739695,0.7971831,-0.6566947,-48.48655,24.16881,-58.56266,-48.40507,23.80831,-58.1954,-0.223877,-0.2451172,-0.3278809,1.145718,-0.7645955,0.5949008,-31.47921,28.38171,-133.9521,-31.69072,28.67312,-134.645,Unknown
-0.435791,-0.8017578,0.5546875,-0.07030535,0.1864962,-0.7024961,-48.49102,24.16986,-58.57587,-48.65806,24.08445,-58.70667,-0.2299805,-0.2473145,-0.3288574,1.267855,-0.810397,0.442229,-31.46389,28.3862,-133.9513,-31.64511,29.20158,-134.2382,Unknown
-0.4313965,-0.8015137,0.5605469,-0.6046565,-0.3325878,-1.145244,-48.50152,24.15759,-58.58867,-48.57183,23.80062,-58.37412,-0.2241211,-0.2497559,-0.3212891,0.840374,-1.375283,0.7170382,-31.47266,28.37512,-133.9368,-32.52003,28.84332,-133.7544,Unknown
-0.4318848,-0.7998047,0.5461426,-0.8641985,-0.4089237,-1.343718,-48.52337,24.14911,-58.61666,-48.95867,24.03398,-59.00078,-0.2290039,-0.2495117,-0.3259277,0.580832,-1.71116,0.9155113,-31.47649,28.36729,-133.9236,-32.0624,29.15748,-133.9014,Unknown
-0.4328613,-0.8063965,0.5585938,0.0,0.1559618,-1.343718,-48.52831,24.14446,-58.63483,-48.77053,23.80987,-58.60294,-0.2255859,-0.2473145,-0.3349609,0.7335038,-1.146275,0.701771,-31.46585,28.35207,-133.9352,-31.48351,28.44853,-135.0186,Unknown
-0.439209,-0.8056641,0.5534668,-0.8489313,0.1406947,-1.572725,-48.54521,24.14756,-58.66331,-48.74945,24.19624,-58.90311,-0.2231445,-0.2470703,-0.3259277,1.359458,2.99113,0.6254351,-31.4584,28.3984,-133.9357,-32.02597,28.61685,-134.3918,Unknown
-0.432373,-0.8010254,0.5544434,0.0,-0.4852595,-1.740664,-48.54881,24.13661,-58.68702,-48.72483,23.93296,-58.65445,-0.2290039,-0.2504883,-0.3259277,1.741137,-1.039405,0.2437558,-31.4469,28.3976,-133.9302,-32.16318,29.12222,-133.8406,Unknown
-0.4343262,-0.8078613,0.5598145,-0.7725954,-0.4852595,-1.511657,-48.56413,24.12356,-58.70754,-48.74734,23.84045,-58.60248,-0.2270508,-0.2480469,-0.3300781,1.374725,-1.207344,0.3048244,-31.43302,28.38803,-133.9365,-31.76345,28.80662,-134.4674,Unknown
-0.4282227,-0.8049316,0.5576172,0.0,-0.4241909,-1.649061,-48.57013,24.10726,-58.72864,-48.86419,23.62045,-58.55048,-0.2280273,-0.2546387,-0.331543,1.40526,-1.405817,0.1368854,-31.43161,28.3732,-133.9384,-32.32631,28.61076,-134.1261,Unknown
-0.427002,-0.8088379,0.5571289,-1.077939,-0.347855,-1.526924,-48.59446,24.0903,-58.74808,-49.04722,23.49767,-58.65316,-0.2365723,-0.2529297,-0.3259277,0.6419008,-2.123374,0.4727633,-31.43614,28.37114,-133.9179,-32.13007,29.83129,-133.2622,Unknown
-0.4272461,-0.8083496,0.5761719,-1.352748,-0.439458,-1.175779,-48.61077,24.06777,-58.74605,-48.41549,23.28699,-57.78214,-0.2321777,-0.2468262,-0.3334961,0.04648089,-1.98597,0.7170382,-31.43228,28.3611,-133.9205,-31.27499,29.23129,-134.5425,Unknown
-0.4274902,-0.8168945,0.5600586,-1.764962,0.09489316,-1.11471,-48.64721,24.05463,-58.76089,-49.22244,23.34571,-58.72359,-0.2282715,-0.2519531,-0.3276367,0.0006792545,-1.818031,1.144519,-31.44863,28.34361,-133.903,-32.25032,28.91183,-133.9406,Unknown
-0.4313965,-0.809082,0.5588379,-1.139008,0.5681756,-1.160511,-48.66999,24.0562,-58.77664,-48.8932,23.6878,-58.63844,-0.2429199,-0.2519531,-0.3232422,0.1380839,-2.30658,1.602534,-31.45618,28.35595,-133.8559,-31.92756,30.65624,-132.7251,Unknown
-0.4150391,-0.8061523,0.5632324,-0.009236574,1.178863,-0.8246336,-48.67765,24.05004,-58.77628,-49.04631,22.88154,-58.15242,-0.2358398,-0.2556152,-0.3259277,0.0,-7.863832,2.97658,-31.47567,28.27407,-133.8007,-32.43092,29.65614,-133.1412,Unknown
-0.4223633,-0.8149414,0.5646973,0.7541222,2.293366,-0.5650916,-48.67636,24.06198,-58.7765,-49.13006,23.07386,-58.39962,-0.232666,-0.2443848,-0.3308105,0.7029693,2.823191,1.342992,-31.45868,28.34002,-133.7936,-31.14287,29.49676,-134.4326,Unknown
-0.4250488,-0.8129883,0.5615234,1.120534,2.904053,-0.4582213,-48.66834,24.08896,-58.77831,-49.09909,23.2767,-58.52987,-0.2319336,-0.2504883,-0.3256836,0.0,-1.146275,2.045282,-31.47084,28.34526,-133.7607,-32.06669,29.44446,-133.6524,Unknown
-0.434082,-0.7978516,0.5585938,2.372443,2.81245,-0.595626,-48.62885,24.12897,-58.77967,-48.43768,24.02199,-58.40875,-0.2312012,-0.2600098,-0.3259277,0.6113663,-1.421084,2.426962,-31.49405,28.33904,-133.7148,-33.05083,29.00955,-133.1294,Unknown
-0.4296875,-0.8095703,0.567627,2.509847,2.629244,-0.1986794,-48.59528,24.15224,-58.77139,-48.6722,23.48887,-58.22929,-0.2363281,-0.2521973,-0.3212891,-0.7016106,-1.298947,2.472764,-31.52061,28.35424,-133.6624,-32.30592,30.05366,-132.9104,Unknown
-0.4206543,-0.8171387,0.5566406,3.044199,3.071992,0.7478855,-48.56878,24.1753,-58.76093,-49.50781,23.04752,-58.79817,-0.2407227,-0.253418,-0.3129883,-1.46497,-2.581389,3.08345,-31.56414,28.36911,-133.5837,-32.69247,30.86861,-131.8434,Unknown
-0.4272461,-0.8120117,0.5478516,3.319008,3.774282,0.6562824,-48.54087,24.21489,-58.7599,-49.44991,23.56533,-59.15944,-0.2358398,-0.2563477,-0.3273926,-1.358099,-1.085206,2.717038,-31.6014,28.377,-133.5366,-32.42868,29.56097,-133.2252,Unknown
-0.423584,-0.8139648,0.5637207,4.097634,4.568176,1.037962,-48.49178,24.26098,-58.73815,-49.09803,23.16195,-58.4354,-0.2297363,-0.2563477,-0.3393555,-1.800848,0.05983204,3.342992,-31.63639,28.37788,-133.5085,-32.02739,28.37705,-134.5916,Unknown
-0.421875,-0.8120117,0.5561523,3.700687,3.835351,1.557046,-48.45385,24.29618,-58.71469,-49.31553,23.20208,-58.70983,-0.229248,-0.2580566,-0.331543,-1.755046,-0.5966565,2.701771,-31.6803,28.37452,-133.4782,-32.6277,28.6192,-133.8457,Unknown
-0.4199219,-0.8117676,0.5554199,3.395344,4.293366,1.953992,-48.42577,24.33154,-58.68784,-49.37863,23.11889,-58.71232,-0.2248535,-0.2624512,-0.3286133,-3.922985,0.1514351,3.220855,-31.77216,28.37189,-133.4324,-33.39008,28.13153,-133.5567,Unknown
-0.4296875,-0.8054199,0.5622559,3.517481,4.827718,2.747885,-48.37949,24.38841,-58.64109,-48.69729,23.62689,-58.37022,-0.2226563,-0.2519531,-0.3308105,-3.67871,0.0,2.16742,-31.83652,28.36778,-133.4226,-32.28624,28.16673,-134.5338,Unknown
-0.4387207,-0.7990723,0.557373,3.471679,4.995656,3.175366,-48.32897,24.45893,-58.59274,-48.40504,24.24261,-58.55709,-0.2172852,-0.2546387,-0.3349609,-2.533672,0.746855,1.266656,-31.88512,28.35692,-133.4371,-32.52852,27.31228,-135.0185,Unknown
-0.4399414,-0.7966309,0.5563965,3.761756,5.316267,3.48071,-48.27714,24.52987,-58.54429,-48.3184,24.35888,-58.55841,-0.2229004,-0.25,-0.322998,-3.174893,0.0,0.091084,-31.94406,28.36223,-133.4462,-32.4985,28.62256,-133.9602,Unknown
-0.4475098,-0.7983398,0.5510254,2.738855,4.568176,3.053229,-48.23849,24.60173,-58.5075,-48.35766,24.76538,-58.94893,-0.2236328,-0.2580566,-0.3310547,-4.151992,0.7621221,-0.168458,-32.0234,28.36714,-133.4621,-32.8597,28.0476,-134.1124,Unknown
-0.4321289,-0.7980957,0.5585938,1.807557,3.346802,3.465443,-48.21704,24.63733,-58.45418,-48.49454,23.9217,-58.38855,-0.2258301,-0.25,-0.3269043,-5.113824,0.4567786,-0.2753282,-32.09667,28.38118,-133.4794,-32.17855,28.75542,-134.1376,Unknown
-0.4272461,-0.8015137,0.5493164,0.38771,2.247565,3.328038,-48.22806,24.65012,-58.41613,-49.03411,23.73489,-58.83483,-0.2316895,-0.2431641,-0.3239746,-4.945885,1.571282,-0.3974657,-32.15553,28.43201,-133.4949,-31.40453,29.76793,-133.9672,Unknown
-0.4187012,-0.7980957,0.5476074,-0.4367175,1.453672,3.572313,-48.25356,24.64634,-58.36964,-49.18196,23.39269,-58.71701,-0.2241211,-0.2431641,-0.3208008,-4.564207,2.029298,-0.1379237,-32.21215,28.47336,-133.5096,-31.85557,29.10737,-134.1299,Unknown
-0.4311523,-0.8093262,0.5541992,-0.574122,1.346802,3.251702,-48.27747,24.64645,-58.33469,-49.05554,23.72799,-58.85305,-0.2307129,-0.2497559,-0.3146973,-3.449702,2.792656,-0.2753282,-32.29809,28.56417,-133.5013,-32.62157,29.86674,-132.7859,Unknown
-0.4521484,-0.8081055,0.5559082,-0.131374,1.270466,2.732618,-48.2836,24.67713,-58.28685,-48.4357,24.74855,-59.02217,-0.2380371,-0.2421875,-0.3308105,-2.839015,2.792656,0.0147481,-32.30828,28.63672,-133.5161,-30.72097,30.13923,-134.2503,Unknown
-0.4321289,-0.8022461,0.5532227,0.4335115,1.468939,2.77842,-48.28781,24.68346,-58.25501,-48.81305,23.91421,-58.73729,-0.2338867,-0.2495117,-0.3320313,-3.434435,2.365176,0.4116948,-32.34053,28.68414,-133.5231,-31.5646,29.38524,-134.1533,Unknown
-0.4396973,-0.8039551,0.5581055,0.128168,1.881153,2.610481,-48.29092,24.69946,-58.22722,-48.53103,24.19311,-58.65608,-0.2412109,-0.2456055,-0.3352051,-3.861916,2.39571,0.7628398,-32.36531,28.74834,-133.5262,-30.74113,30.13334,-134.2377,Unknown
-0.4284668,-0.8032227,0.5690918,-0.299313,2.262832,2.946359,-48.29812,24.70917,-58.17915,-48.43111,23.52153,-57.98925,-0.2346191,-0.2495117,-0.3127441,-3.968786,2.349908,1.35826,-32.42337,28.81339,-133.4851,-32.54568,30.38859,-132.4004,Unknown
-0.434082,-0.8098145,0.5566406,0.219771,2.842985,3.343305,-48.30759,24.73065,-58.14552,-48.92249,23.83275,-58.79158,-0.2297363,-0.2470703,-0.3359375,-4.335198,2.685786,1.801008,-32.46386,28.85362,-133.4865,-31.26119,28.85092,-134.8776,Unknown
-0.4401855,-0.8046875,0.5517578,0.2045038,3.621611,3.434908,-48.31331,24.77493,-58.11153,-48.74433,24.2828,-58.97069,-0.2333984,-0.2429199,-0.3334961,-4.411535,2.930061,2.045282,-32.49598,28.90955,-133.4809,-30.82761,29.4965,-134.7112,Unknown
-0.4523926,-0.8007813,0.5512695,0.8304581,4.155962,3.37384,-48.30111,24.83961,-58.08096,-48.31349,24.95419,-59.06239,-0.2287598,-0.2392578,-0.3291016,-3.78558,3.113267,2.38116,-32.5147,28.96099,-133.4753,-30.83525,29.3459,-134.8333,Unknown
-0.4526367,-0.793457,0.5461426,0.8762596,4.186496,3.511244,-48.28715,24.90364,-58.05369,-48.20403,25.16916,-59.12617,-0.2258301,-0.2348633,-0.3283691,-3.037488,3.662886,2.197954,-32.5193,29.02005,-133.4779,-30.51191,29.22168,-135.2231,Unknown
-0.4570313,-0.7922363,0.5495605,0.0,4.323901,3.068496,-48.28027,24.97635,-58.0275,-47.9427,25.36129,-58.99973,-0.2145996,-0.2297363,-0.3364258,-2.59474,3.372809,1.877344,-32.50311,29.04151,-133.5214,-29.92982,27.77917,-136.9406,Unknown
-0.4533691,-0.7954102,0.5559082,0.0,4.140695,2.793687,-48.27375,25.03447,-58.00331,-47.95428,25.04149,-58.73434,-0.2209473,-0.2224121,-0.3361816,-2.716878,3.082733,2.136886,-32.47172,29.08056,-133.5596,-28.93678,28.72836,-136.9991,Unknown
-0.454834,-0.7868652,0.5432129,1.166336,3.972756,2.183,-48.25114,25.10098,-57.99383,-48.00038,25.43994,-59.1339,-0.2297363,-0.2314453,-0.3364258,-2.075656,1.861359,1.35826,-32.4428,29.11173,-133.5876,-29.60206,29.362,-135.8923,Unknown
-0.4482422,-0.7839355,0.536377,1.319008,3.468939,1.786053,-48.23357,25.1518,-57.99527,-48.27746,25.26253,-59.29095,-0.2211914,-0.2363281,-0.3337402,-2.029855,1.540748,1.480397,-32.43481,29.12031,-133.6116,-30.55132,28.40838,-135.8756,Unknown
-0.4482422,-0.7849121,0.5375977,1.441145,3.346802,1.251702,-48.21321,25.20252,-58.00211,-48.27476,25.22776,-59.25737,-0.2248535,-0.2397461,-0.3342285,-3.08329,0.8689924,1.999481,-32.44663,29.12395,-133.6195,-30.75951,28.66361,-135.4787,Unknown
-0.4545898,-0.7841797,0.5456543,1.868626,3.392603,0.9310915,-48.17815,25.25728,-58.00743,-47.83394,25.44699,-58.95243,-0.2224121,-0.232666,-0.3378906,-1.632908,0.0,1.236122,-32.41822,29.11075,-133.658,-29.90597,28.46391,-136.391,Unknown
-0.4516602,-0.7836914,0.5319824,2.143435,3.40787,0.5646794,-48.1515,25.30876,-58.03031,-48.31582,25.49367,-59.5388,-0.2263184,-0.2363281,-0.3317871,-1.724512,0.7773893,1.144519,-32.40469,29.12108,-133.6759,-30.47382,29.05601,-135.3973,Unknown
-0.4570313,-0.7905273,0.5498047,1.944962,3.19413,0.2746031,-48.11735,25.35735,-58.04461,-47.87367,25.3904,-58.9475,-0.223877,-0.2338867,-0.329834,-1.587107,0.05983204,1.190321,-32.38639,29.11893,-133.6967,-30.40084,28.97244,-135.532,Unknown
-0.4633789,-0.793457,0.559082,0.9831298,2.659779,0.1219313,-48.09224,25.39708,-58.05568,-47.53614,25.51953,-58.68135,-0.2250977,-0.2407227,-0.3327637,-1.19016,0.5178473,0.3964274,-32.37475,29.11868,-133.7225,-30.92961,28.72607,-135.2763,Unknown
-0.4580078,-0.7907715,0.5488281,0.8304581,2.384969,-0.1223435,-48.07594,25.43312,-58.0766,-47.88747,25.44604,-59.01189,-0.2158203,-0.2414551,-0.3393555,-0.7626796,0.04456491,0.3658931,-32.35806,29.08482,-133.7694,-30.9798,27.39275,-136.3393,Unknown
-0.4611816,-0.7946777,0.5527344,0.5861833,2.140695,-0.1986794,-48.06236,25.46541,-58.09738,-47.82795,25.47436,-58.96972,-0.2194824,-0.2382813,-0.3427734,-0.6558094,0.227771,-0.04632068,-32.32746,29.06114,-133.8271,-30.34587,27.73354,-136.6163,Unknown
-0.4709473,-0.7988281,0.5585938,0.0976336,1.270466,-0.1834122,-48.05074,25.49052,-58.11685,-47.55316,25.78717,-58.93625,-0.2258301,-0.2392578,-0.3413086,-0.6863437,-0.3065802,-0.07685494,-32.29723,29.04439,-133.8727,-30.31124,28.44873,-136.0516,Unknown
-0.4570313,-0.786377,0.559082,0.02129769,0.2780993,-0.07654199,-48.0382,25.49172,-58.12407,-47.43932,25.34572,-58.42156,-0.2277832,-0.2414551,-0.3364258,-1.006954,-1.176809,-0.1837251,-32.28054,29.02247,-133.9056,-30.72301,28.8135,-135.3843,Unknown
-0.4606934,-0.7900391,0.5585938,-0.05503809,-0.2715191,0.4730763,-48.02814,25.48711,-58.12632,-47.4951,25.46076,-58.584,-0.2307129,-0.2409668,-0.3342285,-1.693977,-1.512687,0.03001523,-32.27182,29.00619,-133.9282,-30.68202,29.24594,-135.0533,Unknown
-0.4580078,-0.8044434,0.5556641,-0.2840458,-0.5005267,0.9463588,-48.03482,25.47252,-58.13131,-48.16687,25.10101,-59.02484,-0.234375,-0.2370605,-0.3449707,-1.800848,-1.726428,0.06054974,-32.24514,28.98561,-133.9683,-29.61446,29.24619,-135.9806,Unknown
-0.4599609,-0.7941895,0.5598145,0.1892367,-0.3936565,0.9158244,-48.02385,25.46391,-58.12758,-47.62581,25.3317,-58.61795,-0.2385254,-0.2297363,-0.333252,-2.27413,-1.863832,0.4727633,-32.21915,28.98871,-133.9856,-29.27414,30.51049,-135.1796,Unknown
-0.4597168,-0.7871094,0.5693359,0.479313,-0.2715191,1.160099,-47.99807,25.45715,-58.1082,-47.08673,25.32516,-58.01126,-0.2346191,-0.2368164,-0.3447266,-1.78558,-1.268412,0.1521528,-32.19287,28.97612,-134.0228,-29.59292,29.29146,-135.9604,Unknown
-0.4523926,-0.7897949,0.5556641,0.7999237,-0.1341145,1.312771,-47.98204,25.44806,-58.09866,-47.78439,25.10169,-58.59609,-0.230957,-0.2287598,-0.3342285,-1.602374,-0.5050534,0.2132213,-32.15866,28.98353,-134.0554,-29.3831,29.69346,-135.7956,Unknown
-0.4501953,-0.7834473,0.5588379,0.6167176,-0.179916,1.007427,-47.96416,25.43805,-58.08816,-47.5111,25.07092,-58.26455,-0.222168,-0.2336426,-0.3322754,-1.724512,-0.5813893,0.2895572,-32.14699,28.96884,-134.0873,-30.30777,28.67631,-135.8634,Unknown
-0.4543457,-0.7819824,0.5522461,0.7999237,-0.2257175,1.266969,-47.94426,25.43375,-58.07958,-47.55695,25.38897,-58.59066,-0.2346191,-0.2290039,-0.3354492,-1.953519,0.6705191,0.3353589,-32.11533,28.99892,-134.114,-29.22374,30.01274,-135.6559,Unknown
-0.4572754,-0.7792969,0.5598145,0.3419085,-0.1341145,1.129565,-47.92373,25.43285,-58.06687,-47.15253,25.48071,-58.21882,-0.2316895,-0.2353516,-0.3361816,-2.350466,0.5941832,0.4574962,-32.10678,29.01664,-134.1352,-29.96073,29.44814,-135.5093,Unknown
-0.4626465,-0.7866211,0.5571289,-0.3298473,-0.05777865,1.053229,-47.91744,25.43612,-58.06197,-47.36673,25.63903,-58.59618,-0.2348633,-0.2280273,-0.3405762,-2.319932,0.4415114,0.6865039,-32.076,29.03908,-134.1651,-28.86275,29.81388,-136.1345,Unknown
-0.4650879,-0.7868652,0.5651855,0.4487787,0.4918396,1.129565,-47.89391,25.44751,-58.04952,-47.07097,25.64386,-58.26984,-0.230957,-0.2321777,-0.3398438,-1.831382,0.7773893,0.9765801,-32.05078,29.0557,-134.1887,-29.46877,29.29869,-136.0608,Unknown
-0.4626465,-0.7888184,0.5561523,0.8609924,1.102527,1.053229,-47.87289,25.46698,-58.04692,-47.47598,25.61051,-58.69365,-0.2297363,-0.2275391,-0.3427734,-1.358099,0.6857863,1.220855,-32.00586,29.06757,-134.2216,-28.87329,29.17884,-136.6705,Unknown
-0.4624023,-0.7895508,0.5646973,0.9373282,1.667412,1.09903,-47.84757,25.48993,-58.03728,-47.24965,25.47107,-58.31867,-0.2280273,-0.2341309,-0.3435059,-1.174893,0.6857863,1.541466,-31.97483,29.07122,-134.243,-29.59063,28.74596,-136.4256,Unknown
-0.4682617,-0.7866211,0.5639648,1.471679,1.972756,0.9005573,-47.80938,25.52548,-58.03059,-47.01992,25.81731,-58.36466,-0.2280273,-0.2358398,-0.3322754,-1.251229,0.1361679,1.404061,-31.96047,29.07644,-134.2448,-30.33705,29.23246,-135.3666,Unknown
-0.4628906,-0.7873535,0.5549316,1.349542,1.881153,0.9005573,-47.78243,25.55595,-58.0311,-47.45379,25.66636,-58.71781,-0.2277832,-0.2324219,-0.3361816,-1.235962,0.07509923,1.35826,-31.93391,29.07859,-134.2599,-29.7847,29.13232,-135.931,Unknown
-0.4697266,-0.7868652,0.5620117,1.257939,1.591076,0.9158244,-47.75054,25.58485,-58.02751,-47.05075,25.90937,-58.48012,-0.2277832,-0.2353516,-0.3417969,-1.861916,-0.3065802,1.007115,-31.91885,29.06775,-134.2844,-29.81223,28.76196,-136.2211,Unknown
-0.4765625,-0.7890625,0.552002,0.9220611,0.873519,0.7173512,-47.72708,25.6126,-58.03813,-47.25561,26.33009,-59.08578,-0.2290039,-0.2336426,-0.3464355,-1.861916,-0.6577252,0.9918472,-31.89509,29.05122,-134.3169,-29.36253,28.72453,-136.6394,Unknown
-0.4643555,-0.7922363,0.560791,0.5251145,0.2170305,0.793687,-47.71314,25.61487,-58.03746,-47.41608,25.56672,-58.5881,-0.2333984,-0.2370605,-0.3303223,-1.098557,0.0,0.1063511,-31.87977,29.06735,-134.325,-30.37527,29.85786,-134.7967,Unknown
-0.463623,-0.7890625,0.5581055,0.4945802,-0.179916,0.9768932,-47.70012,25.61264,-58.03579,-47.40104,25.62695,-58.62402,-0.2255859,-0.2297363,-0.3413086,-1.78558,0.7315878,-0.06158781,-31.85474,29.07148,-134.3728,-29.31575,28.73615,-136.6696,Unknown
-0.4743652,-0.7907715,0.5537109,0.6319848,-0.5157939,0.8394885,-47.68328,25.61619,-58.04307,-47.32277,26.16895,-59.01674,-0.2255859,-0.2353516,-0.3469238,-2.182527,-1.589023,0.5185649,-31.84229,29.03239,-134.4133,-29.62829,28.28501,-136.7805,Unknown
-0.4660645,-0.7868652,0.5571289,0.7999237,-1.050145,1.251702,-47.66364,25.60441,-58.03682,-47.28944,25.79928,-58.65047,-0.2260742,-0.2346191,-0.3327637,-2.97642,-2.062305,0.3658931,-31.8513,29.00427,-134.4321,-30.25082,29.04118,-135.6045,Unknown
-0.458252,-0.7858887,0.5595703,0.6930535,-1.706634,1.69445,-47.64838,25.57706,-58.02092,-47.37613,25.40754,-58.40465,-0.2270508,-0.2353516,-0.3408203,-2.854282,-2.291313,0.3658931,-31.85394,28.96512,-134.4618,-29.88574,28.731,-136.1837,Unknown
-0.4580078,-0.7849121,0.5563965,0.05183208,-2.027244,1.190634,-47.64353,25.54484,-58.01346,-47.44376,25.45646,-58.52278,-0.2329102,-0.2255859,-0.3232422,-2.625275,-2.718794,0.9002442,-31.84584,28.95742,-134.4575,-29.51905,30.57794,-134.9111,Unknown
-0.451416,-0.7790527,0.5522461,0.00603056,-2.225718,1.221168,-47.64105,25.50725,-58.00479,-47.52406,25.30102,-58.47746,-0.2355957,-0.2263184,-0.3359375,-1.693977,-1.512687,0.7323053,-31.80976,28.96119,-134.4743,-28.87984,30.1836,-135.7997,Unknown
-0.4575195,-0.7819824,0.5690918,0.3724428,-2.653198,0.8089542,-47.62234,25.46704,-57.9909,-46.9613,25.31714,-57.86532,-0.2363281,-0.230957,-0.3356934,-1.419168,-0.8867329,0.6865039,-31.78165,28.9712,-134.4838,-29.3609,30.11331,-135.4516,Unknown
-0.4604492,-0.7800293,0.5708008,0.3266413,-2.637931,0.0,-47.60041,25.42836,-57.98673,-46.76603,25.47192,-57.7822,-0.237793,-0.2331543,-0.3261719,-1.373366,-1.222611,0.9613131,-31.76643,28.98724,-134.468,-30.01135,30.672,-134.4043,Unknown
-0.4567871,-0.782959,0.5656738,0.7235878,-2.240985,-0.07654199,-47.58016,25.39304,-57.9888,-47.11937,25.30952,-58.03404,-0.2365723,-0.2324219,-0.3410645,-1.037488,-1.726428,0.0,-31.73128,28.97854,-134.4947,-29.24642,29.82094,-135.8025,Unknown
-0.451416,-0.7800293,0.574707,1.227405,-1.706634,0.01506107,-47.54784,25.35972,-57.9783,-46.86639,24.98147,-57.47478,-0.2353516,-0.230957,-0.3376465,-1.129092,-1.665359,1.022382,-31.69813,28.97437,-134.5044,-29.29903,29.91265,-135.6783,Unknown
-0.4511719,-0.7824707,0.5668945,1.013664,-0.9738091,0.09139694,-47.52703,25.33975,-57.9752,-47.2023,25.02943,-57.88625,-0.2365723,-0.2290039,-0.3232422,-1.098557,-1.237878,1.190321,-31.67545,28.99359,-134.4862,-29.75673,30.84526,-134.472,Unknown
-0.4550781,-0.7827148,0.5773926,1.059466,-0.4852595,-0.3513512,-47.49679,25.3273,-57.97033,-46.79401,25.07397,-57.47332,-0.2365723,-0.2277832,-0.3308105,-0.7932138,-1.161542,1.266656,-31.63865,29.00661,-134.4821,-29.25238,30.49828,-135.2088,Unknown
-0.447998,-0.78125,0.564209,1.105267,-0.5310611,-0.4582213,-47.47699,25.31161,-57.97633,-47.31888,24.93285,-57.9332,-0.2338867,-0.2231445,-0.3273926,0.3365571,-3.176809,1.648336,-31.58118,28.99086,-134.4755,-29.01263,30.55401,-135.364,Unknown
-0.4475098,-0.7766113,0.5664063,1.471679,0.0,-0.504023,-47.44766,25.30468,-57.97842,-47.09257,24.96504,-57.71023,-0.2338867,-0.2277832,-0.3134766,0.4434273,-0.4439847,0.5949008,-31.5478,29.02724,-134.4545,-30.21632,31.11458,-133.8361,Unknown
-0.4523926,-0.7678223,0.5639648,1.135802,-0.9280076,-0.6719618,-47.41758,25.29388,-57.98153,-46.72248,25.40122,-57.67331,-0.2368164,-0.2275391,-0.3337402,0.3976259,0.3651755,0.8239083,-31.48939,29.06258,-134.4561,-29.07517,30.3825,-135.4608,Unknown
-0.456543,-0.7663574,0.5617676,1.319008,-0.6226641,-1.282649,-47.37214,25.28722,-58.00679,-46.63237,25.66283,-57.79907,-0.2387695,-0.2226563,-0.3291016,0.6877022,-0.001236677,0.5032978,-31.42428,29.10135,-134.4646,-28.70569,31.00213,-135.2294,Unknown
-0.4484863,-0.7717285,0.5627441,1.410611,-0.9432748,-1.771199,-47.34539,25.2716,-58.02635,-47.00201,25.15298,-57.76992,-0.2319336,-0.2265625,-0.333252,0.5197632,-0.5203207,0.3811603,-31.37139,29.11013,-134.4855,-29.16204,29.92283,-135.7863,Unknown
-0.4423828,-0.7653809,0.5664063,1.059466,-1.126481,-1.801733,-47.31894,25.248,-58.03935,-46.80192,24.91986,-57.35196,-0.2373047,-0.2294922,-0.324707,0.9014427,-0.3371145,0.2284887,-31.32491,29.13956,-134.4829,-29.71001,30.82932,-134.5263,Unknown
-0.4428711,-0.7705078,0.5788574,0.906794,-1.40129,-2.046008,-47.29107,25.21606,-58.04708,-46.59179,24.68081,-56.92215,-0.2397461,-0.2268066,-0.3269043,0.9625113,0.1667023,-0.09212208,-31.26972,29.18049,-134.4891,-29.22577,31.0715,-134.7274,Unknown
-0.4475098,-0.7729492,0.5622559,0.4029771,-1.538695,-2.51929,-47.28145,25.1924,-58.07688,-47.08653,25.08886,-57.80874,-0.2348633,-0.2277832,-0.3205566,1.13045,-0.1081069,-0.01578617,-31.22414,29.21224,-134.4878,-29.82137,30.8475,-134.4142,Unknown
-0.4487305,-0.7731934,0.5737305,1.028931,-1.340221,-3.00784,-47.25489,25.16863,-58.10573,-46.70975,24.9886,-57.30861,-0.236084,-0.2255859,-0.3227539,1.344191,-0.4592519,0.1979542,-31.16847,29.24013,-134.4885,-29.4287,30.94436,-134.6664,Unknown
-0.4453125,-0.7731934,0.5717773,1.303741,-1.202817,-3.145244,-47.22768,25.14453,-58.1368,-46.85311,24.84766,-57.34753,-0.2353516,-0.2285156,-0.3254395,1.863275,-0.4134504,0.091084,-31.11049,29.26163,-134.4928,-29.63902,30.61905,-134.7721,Unknown
-0.4348145,-0.7636719,0.572998,1.670153,-0.6837328,-3.099443,-47.19286,25.1213,-58.15751,-46.71389,24.48589,-56.89418,-0.2424316,-0.2319336,-0.3291016,1.970145,-0.382916,0.1216183,-31.05267,29.29222,-134.4902,-29.57119,31.05376,-134.4476,Unknown
-0.4475098,-0.769043,0.581543,1.639618,0.0,-2.733031,-47.15337,25.11683,-58.1685,-46.34352,24.89795,-56.83187,-0.2470703,-0.2314453,-0.3286133,0.7182367,-0.382916,-0.2142596,-31.0086,29.33232,-134.4865,-29.37712,31.57898,-134.1474,Unknown
-0.4462891,-0.7822266,0.5842285,1.212137,0.0,-2.565092,-47.128,25.10581,-58.18338,-46.77567,24.56577,-57.02766,-0.2446289,-0.2275391,-0.3342285,0.5350306,-0.2302443,-0.7944121,-30.95675,29.36602,-134.5079,-28.78269,31.1749,-135.0117,Unknown
-0.4523926,-0.7905273,0.5854492,0.2045038,-0.7753359,-2.366618,-47.12055,25.087,-58.19755,-46.89578,24.69696,-57.26823,-0.2490234,-0.2365723,-0.3334961,0.4586947,-0.5355878,-0.6722746,-30.92314,29.39768,-134.5107,-29.61363,31.34275,-134.155,Unknown
-0.4484863,-0.7919922,0.5878906,0.3266413,-0.1951832,-2.107076,-47.11266,25.07141,-58.20739,-46.96579,24.45117,-57.14078,-0.2426758,-0.234375,-0.3395996,0.5197632,-0.6119237,-0.9165497,-30.88333,29.40995,-134.5377,-29.31495,30.46091,-135.1881,Unknown
-0.439209,-0.7873535,0.5805664,0.5251145,0.6292443,-1.649061,-47.10756,25.06281,-58.21189,-47.24361,24.17874,-57.22049,-0.2402344,-0.2307129,-0.3422852,-0.09092379,-0.1539084,-0.8554807,-30.84464,29.42362,-134.5743,-28.88603,30.19902,-135.7811,Unknown
-0.4440918,-0.7890625,0.576416,0.03656495,0.9193206,-1.282649,-47.11128,25.06297,-58.21563,-47.31871,24.44009,-57.51883,-0.2390137,-0.2351074,-0.3364258,0.1533511,1.006397,-0.4585342,-30.81889,29.45422,-134.5916,-29.67018,30.21398,-135.099,Unknown
-0.4440918,-0.7890625,0.5695801,-0.3145801,1.530008,-1.099443,-47.12431,25.07478,-58.22403,-47.53146,24.5291,-57.82771,-0.2434082,-0.2351074,-0.345459,0.3518243,2.075099,-0.7791452,-30.77912,29.50005,-134.623,-29.08884,30.22054,-135.5903,Unknown
-0.4484863,-0.8000488,0.5800781,-1.01687,1.774282,-1.053641,-47.14668,25.08757,-58.2288,-47.4952,24.4102,-57.68834,-0.2458496,-0.2426758,-0.3525391,0.32129,2.899527,-0.9012823,-30.74813,29.54732,-134.6546,-29.4503,29.87429,-135.5821,Unknown
-0.4599609,-0.8085938,0.574707,-1.917634,2.308634,-1.206313,-47.18379,25.115,-58.24663,-47.68673,24.87522,-58.29263,-0.2431641,-0.237793,-0.3571777,0.5044961,3.296474,-0.7944121,-30.70226,29.59563,-134.7012,-28.82521,29.53989,-136.4022,Unknown
-0.4631348,-0.8115234,0.5622559,-1.871832,3.071992,-1.465855,-47.22939,25.16049,-58.2825,-48.08818,25.13158,-58.96288,-0.2194824,-0.2392578,-0.3513184,0.8251068,3.281206,-0.5348701,-30.67628,29.59815,-134.7602,-30.00981,27.31031,-137.2567,Unknown
-0.463623,-0.8046875,0.5629883,-0.8794656,3.774282,-1.11471,-47.25399,25.21819,-58.30873,-47.81289,25.27122,-58.77506,-0.2333984,-0.2382813,-0.3459473,0.8251068,2.792656,-0.3821983,-30.64595,29.62565,-134.7911,-29.72561,29.05743,-136.0456,Unknown
-0.4509277,-0.8007813,0.5541992,-0.9099999,4.568176,-0.5345572,-47.28659,25.27341,-58.32806,-48.25999,24.8458,-58.90847,-0.2341309,-0.2382813,-0.3393555,-0.02985501,2.99113,0.1063511,-30.63399,29.66612,-134.8028,-30.02585,29.45072,-135.4507,Unknown
-0.4501953,-0.7922363,0.5539551,-1.520687,4.888786,0.04559542,-47.32283,25.33924,-58.3349,-47.98046,24.9716,-58.70334,-0.2312012,-0.2319336,-0.3352051,-0.7779465,3.265939,0.259023,-30.62604,29.71205,-134.8163,-29.6647,29.5617,-135.6673,Unknown
-0.4538574,-0.7883301,0.5537109,-2.20771,5.041458,0.2746031,-47.36392,25.41109,-58.33758,-47.75478,25.22606,-58.67061,-0.2270508,-0.2312012,-0.3410645,-1.281764,3.708687,0.2437558,-30.6198,29.74582,-134.8459,-29.43515,28.85641,-136.4657,Unknown
-0.4504395,-0.7814941,0.5327148,-2.619924,5.438405,0.4578092,-47.41749,25.48681,-58.35324,-48.24531,25.46648,-59.43458,-0.2285156,-0.2351074,-0.3388672,-1.068023,3.861359,-0.2295268,-30.62128,29.78744,-134.8712,-29.90886,28.98901,-135.9455,Unknown
-0.4379883,-0.7722168,0.545166,-2.711527,5.621611,0.702084,-47.46572,25.55692,-58.34478,-47.83624,24.86065,-58.44682,-0.2265625,-0.2304688,-0.3291016,-1.907718,1.678153,0.6712368,-30.63645,29.80474,-134.8744,-29.97738,29.41878,-135.52,Unknown
-0.4499512,-0.7773438,0.5412598,-2.971068,5.606344,0.3967404,-47.51689,25.63638,-58.35057,-47.84018,25.40879,-58.92594,-0.2197266,-0.2224121,-0.3330078,-1.235962,6.77739,0.0,-30.62345,29.8767,-134.913,-29.1384,28.75345,-136.8064,Unknown
-0.4484863,-0.7844238,0.541748,-3.856565,5.392603,0.09139694,-47.58189,25.70153,-58.36341,-48.12118,25.19458,-59.05495,-0.2133789,-0.2265625,-0.3422852,-1.022222,4.670519,-0.8860154,-30.61246,29.89716,-134.9822,-29.32312,27.46695,-137.7211,Unknown
-0.4519043,-0.7849121,0.5449219,-3.917634,5.377336,-0.2444809,-47.64688,25.77277,-58.37907,-47.9522,25.31127,-58.96662,-0.21875,-0.2268066,-0.3349609,-0.6252747,7.449145,0.0,-30.60041,29.97677,-135.0175,-29.55009,28.40267,-136.7493,Unknown
-0.4624023,-0.7827148,0.5458984,-3.581756,4.827718,-0.6566947,-47.69804,25.84534,-58.40146,-47.57208,25.85283,-59.01587,-0.2106934,-0.2319336,-0.3398438,-0.1519923,5.174336,-1.405099,-30.59295,29.99562,-135.0843,-30.11552,27.11615,-137.3232,Unknown
-0.467041,-0.7858887,0.5322266,-3.444351,3.881153,-0.6108932,-47.75433,25.90948,-58.43826,-47.98095,26.20006,-59.79281,-0.2092285,-0.2351074,-0.3349609,-0.3351984,5.052198,-2.168458,-30.60099,30.00661,-135.1481,-30.76548,27.07911,-136.784,Unknown
-0.4597168,-0.8063965,0.5407715,-3.673358,2.995656,-0.9009695,-47.82257,25.93913,-58.47737,-48.64658,25.33661,-59.77568,-0.2211914,-0.2404785,-0.3442383,-0.07565641,5.159069,-2.244794,-30.59895,30.03787,-135.208,-30.44331,27.77806,-136.4943,Unknown
-0.4645996,-0.8083496,0.5476074,-3.459618,2.232298,-0.9009695,-47.88461,25.9621,-58.51252,-48.38198,25.4471,-59.57261,-0.217041,-0.2397461,-0.3527832,-0.04512215,3.58655,-2.183725,-30.5889,30.02922,-135.2857,-30.06291,26.96899,-137.4885,Unknown
-0.4675293,-0.8181152,0.5397949,-2.742061,1.40787,-0.8857023,-47.94489,25.97358,-58.55916,-48.88294,25.50107,-60.19337,-0.2185059,-0.2402344,-0.3425293,-0.289397,2.685786,-1.72571,-30.59328,30.01965,-135.3359,-30.59535,27.57676,-136.5269,Unknown
-0.4645996,-0.8227539,0.5327148,-2.467252,0.7666489,-0.763565,-48.00892,25.9726,-58.61092,-49.33321,25.36119,-60.58579,-0.2172852,-0.2382813,-0.3518066,-0.1367252,2.441511,-1.435634,-30.58248,29.99683,-135.4001,-29.953,27.0839,-137.4907,Unknown
-0.4729004,-0.8273926,0.5239258,-1.917634,0.7666489,0.0,-48.06763,25.97992,-58.66269,-49.53504,25.77516,-61.19962,-0.2202148,-0.2353516,-0.3500977,0.1533511,1.632351,-0.8096795,-30.56156,29.97059,-135.4505,-29.6414,27.56545,-137.3663,Unknown
-0.4697266,-0.8327637,0.53125,-1.001603,0.873519,-0.9925726,-48.11171,25.98096,-58.72189,-49.58422,25.4327,-60.94173,-0.2111816,-0.2404785,-0.3432617,0.2754886,1.036931,-0.01578617,-30.56276,29.92127,-135.4819,-30.82407,26.74232,-137.0048,Unknown
-0.4777832,-0.8190918,0.5283203,-0.3603816,0.0,-0.7940992,-48.13454,25.98361,-58.77664,-48.98829,26.11347,-60.87564,-0.2133789,-0.2404785,-0.3591309,0.5044961,0.3804427,0.5338321,-30.54264,29.85394,-135.5277,-29.92764,26.27525,-138.1648,Unknown
-0.4794922,-0.8220215,0.5241699,0.3571756,0.6445115,-0.5498245,-48.14992,25.9972,-58.83226,-49.1661,26.18916,-61.1539,-0.2094727,-0.2438965,-0.3493652,-0.2130611,-1.558489,1.388794,-30.55292,29.75909,-135.5456,-30.91055,26.18016,-137.3782,Unknown
-0.4724121,-0.8273926,0.5202637,0.2961069,0.3849695,-0.3971527,-48.17601,25.99847,-58.88833,-49.65721,25.79681,-61.36283,-0.2077637,-0.2390137,-0.3474121,0.1075497,-1.818031,1.220855,-30.55148,29.66176,-135.5697,-30.55984,26.22913,-137.6486,Unknown
-0.4675293,-0.8342285,0.5229492,0.5251145,0.262832,-0.7177633,-48.20359,25.99038,-58.94767,-49.94086,25.4006,-61.32826,-0.2102051,-0.2390137,-0.3498535,0.8251068,-1.955435,1.694137,-30.53539,29.56752,-135.5875,-30.35355,26.38661,-137.7039,Unknown
-0.4719238,-0.8347168,0.5100098,1.227405,-0.1493817,0.0,-48.22596,25.98347,-59.00857,-50.22456,25.75472,-61.99252,-0.2041016,-0.2358398,-0.3569336,1.603733,-1.772229,2.48803,-30.49787,29.46022,-135.6163,-29.83795,25.50505,-138.8525,Unknown
-0.4733887,-0.8334961,0.5056152,2.051832,-0.6226641,-1.252115,-48.23675,25.97266,-59.09059,-50.27341,25.90092,-62.18921,-0.2050781,-0.2416992,-0.3547363,2.290756,-2.398183,2.839176,-30.46718,29.34884,-135.6293,-30.53509,25.53652,-138.2172,Unknown
-0.4758301,-0.8220215,0.5083008,2.693053,-1.447092,-1.465855,-48.22976,25.95761,-59.16581,-49.73491,26.21248,-61.84599,-0.2070313,-0.2399902,-0.3481445,2.122817,-3.360015,3.129252,-30.43956,29.23421,-135.6245,-30.64646,26.08693,-137.6853,Unknown
-0.4694824,-0.8134766,0.5080566,3.303741,-2.088313,-1.389519,-48.20906,25.9294,-59.23472,-49.62289,26.08198,-61.58983,-0.2067871,-0.2368164,-0.3530273,1.40526,-4.291313,3.495664,-30.41276,29.10946,-135.6303,-30.06337,25.94028,-138.3129,Unknown
-0.4699707,-0.8183594,0.5012207,3.288473,-2.347855,-1.145244,-48.19942,25.90044,-59.30627,-49.9833,26.09237,-62.0264,-0.2023926,-0.2375488,-0.357666,1.389992,-5.131008,3.724672,-30.38466,28.9566,-135.6408,-30.0294,25.23808,-138.8941,Unknown
-0.4672852,-0.8188477,0.5168457,3.57855,-2.240985,-1.206313,-48.17494,25.86471,-59.36324,-49.60513,25.76074,-61.26825,-0.2058105,-0.236084,-0.3532715,1.267855,-5.100473,3.846809,-30.35964,28.82438,-135.644,-30.00358,25.84457,-138.4408,Unknown
-0.4785156,-0.8120117,0.5063477,3.822824,-2.286786,-1.236847,-48.14642,25.84738,-59.42803,-49.3714,26.56703,-61.75404,-0.2041016,-0.2297363,-0.3464355,1.237321,-5.527954,3.999481,-30.32909,28.68965,-135.6408,-29.74183,26.15091,-138.4254,Unknown
-0.4799805,-0.8212891,0.498291,4.067099,-2.286786,-1.22158,-48.12148,25.8278,-59.50449,-49.88882,26.54909,-62.35348,-0.2050781,-0.2341309,-0.371582,1.298389,-5.879099,4.121618,-30.28109,28.53003,-135.6684,-28.88342,25.0299,-140.0496,Unknown
-0.4829102,-0.8151855,0.4938965,4.097634,-2.378389,-1.389519,-48.09328,25.81367,-59.58419,-49.72361,26.86932,-62.46829,-0.199707,-0.2375488,-0.3554688,1.634267,-5.60429,3.953679,-30.25757,28.3833,-135.6783,-30.22585,25.0378,-138.8774,Unknown
-0.4934082,-0.8227539,0.4880371,4.509847,-2.424191,-1.862802,-48.06659,25.80981,-59.67881,-49.8522,27.28413,-63.0371,-0.1936035,-0.2380371,-0.3571777,2.138084,-5.98597,4.426962,-30.22831,28.21319,-135.6864,-30.36618,24.27773,-139.3362,Unknown
-0.4892578,-0.8286133,0.4924316,4.204504,-3.218084,-1.92387,-48.04436,25.78455,-59.77151,-50.04573,26.91168,-62.89949,-0.2019043,-0.2307129,-0.3671875,2.290756,-7.176809,4.396428,-30.16679,28.04275,-135.7109,-28.83625,24.96618,-140.1397,Unknown
-0.4873047,-0.8254395,0.4941406,4.173969,-3.859305,-2.03074,-48.021,25.7494,-59.8605,-49.94394,26.86365,-62.72849,-0.1967773,-0.2307129,-0.3640137,2.42816,-8.09284,4.121618,-30.11298,27.86168,-135.7442,-29.14194,24.54109,-140.2049,Unknown
-0.4851074,-0.810791,0.4797363,3.944962,-4.286786,-2.41242,-48.00486,25.7205,-59.95801,-49.92032,27.24521,-63.08097,-0.1965332,-0.2299805,-0.3486328,2.962512,-9.451619,4.091084,-30.06485,27.66951,-135.7502,-29.88364,25.19995,-139.0511,Unknown
-0.4885254,-0.8071289,0.4921875,3.57855,-5.065412,-2.549824,-47.97879,25.67819,-60.04533,-49.3313,27.32817,-62.44966,-0.1872559,-0.2304688,-0.3591309,3.83274,-9.573756,3.892611,-29.96998,27.37419,-135.7557,-29.64131,23.69307,-140.4139,Unknown
-0.4855957,-0.8059082,0.479248,3.441145,-6.011977,-2.992573,-47.93664,25.5767,-60.17203,-49.74956,27.37928,-63.00793,-0.1782227,-0.2216797,-0.3518066,4.779305,-10.68826,2.76284,-29.89182,27.14406,-135.8236,-29.34054,23.20002,-141.0442,Unknown
-0.5068359,-0.8154297,0.4985352,2.860992,-8.744802,-3.481122,-47.91698,25.50393,-60.26754,-48.91659,27.93703,-62.55946,-0.1877441,-0.2253418,-0.3554688,5.771672,-13.23788,2.27429,-29.7946,26.8874,-135.8831,-29.27274,24.04065,-140.4734,Unknown
-0.5043945,-0.8278809,0.496582,3.548015,-12.04251,-3.343718,-47.8959,25.36855,-60.36888,-49.47033,27.58602,-62.87668,-0.1901855,-0.2243652,-0.3496094,5.634267,-13.23788,1.510931,-29.70412,26.64704,-135.9418,-29.41186,24.59948,-139.9261,Unknown
-0.5039063,-0.8371582,0.5041504,3.715954,-16.7448,-2.855168,-47.8751,25.16058,-60.45763,-49.58705,27.2775,-62.70818,-0.1999512,-0.2385254,-0.3596191,7.863275,-13.7417,0.3964274,-29.60416,26.42278,-136.0,-30.10056,24.86071,-139.1241,Unknown
-0.5039063,-0.8493652,0.503418,4.98313,-21.95091,-3.068908,-47.84956,24.89697,-60.55039,-50.01648,27.03816,-62.99017,-0.204834,-0.2351074,-0.3691406,7.863275,-11.57376,-0.1073892,-29.47877,26.22581,-136.0778,-29.11392,25.08091,-139.8115,Unknown
-0.4892578,-0.8469238,0.5087891,6.143435,-26.7906,-3.832267,-47.80607,24.53209,-60.64606,-50.1908,26.3446,-62.51707,-0.213623,-0.2441406,-0.3479004,7.695336,-11.28368,-0.3516641,-29.39367,26.06913,-136.1015,-30.88005,26.68513,-137.0014,Unknown
-0.4594727,-0.8242188,0.5297852,7.227405,-30.68373,-5.649061,-47.73586,24.09288,-60.72995,-49.60764,25.124,-60.6889,-0.220459,-0.2443848,-0.3349609,9.496862,-14.42872,0.259023,-29.3027,25.90977,-136.0859,-31.35973,27.99928,-135.5031,Unknown
-0.4362793,-0.7993164,0.5473633,5.441145,-32.92801,-7.068908,-47.68232,23.64413,-60.79216,-48.79136,24.24413,-58.99067,-0.2548828,-0.2336426,-0.3305664,8.168618,-16.42872,2.564366,-29.1813,25.794,-136.0008,-29.23706,32.19662,-133.7126,Unknown
-0.420166,-0.7827148,0.5891113,3.990763,-30.45473,-8.748298,-47.61496,23.18786,-60.83391,-47.24754,23.21441,-56.44983,-0.2565918,-0.2387695,-0.3312988,6.672435,-16.9478,3.739939,-29.09308,25.67183,-135.8935,-29.67428,32.14216,-133.3868,Unknown
-0.4125977,-0.7683105,0.5825195,8.922061,-26.17992,-7.954404,-47.4736,22.8026,-60.85933,-47.10478,23.16748,-56.25869,-0.2543945,-0.2268066,-0.3234863,4.092282,-18.79513,5.816275,-29.02827,25.53767,-135.7603,-28.86028,32.77804,-133.5054,Unknown
-0.4052734,-0.7844238,0.5737305,10.0213,-23.92037,-6.442954,-47.33994,22.44766,-60.87654,-48.15627,22.63679,-56.9841,-0.2583008,-0.2312012,-0.3271484,2.290756,-16.24551,7.312458,-28.99659,25.46029,-135.6116,-29.01575,32.81333,-133.3413,Unknown
-0.3928223,-0.7819824,0.5947266,10.86099,-21.88984,-5.481122,-47.19717,22.13425,-60.85021,-47.65201,21.7936,-55.79969,-0.2663574,-0.2387695,-0.314209,2.519763,-20.52032,7.556733,-28.9816,25.32978,-135.4142,-30.09907,34.01711,-131.2957,Unknown
-0.3781738,-0.7805176,0.6132813,12.76939,-20.7906,-4.946771,-47.01131,21.80306,-60.80063,-47.28948,20.85585,-54.73552,-0.2609863,-0.2331543,-0.3054199,1.741137,-17.68063,7.373527,-28.98066,25.26431,-135.2269,-30.1292,34.18525,-131.1118,Unknown
-0.3857422,-0.7697754,0.6162109,13.59382,-18.97381,-4.458221,-46.81732,21.53399,-60.73397,-46.63741,21.36565,-54.40955,-0.2617188,-0.229248,-0.3061523,1.939611,-15.7875,6.747573,-28.96548,25.21461,-135.0501,-29.64743,34.38322,-131.3458,Unknown
-0.3994141,-0.7670898,0.6323242,14.41824,-17.78297,-3.939137,-46.58353,21.27969,-60.65376,-45.72542,21.88924,-53.82793,-0.2558594,-0.2180176,-0.3017578,3.451061,-13.05467,5.541466,-28.9126,25.20842,-134.9059,-28.85769,34.50012,-131.9141,Unknown
-0.3925781,-0.7478027,0.6420898,15.44114,-18.10358,-3.878068,-46.32122,21.02232,-60.55282,-44.81705,21.71725,-52.75639,-0.2661133,-0.2277832,-0.3059082,4.42816,-12.04704,4.625435,-28.86013,25.23706,-134.767,-29.32695,34.90463,-131.1309,Unknown
-0.4040527,-0.7358398,0.6535645,15.79229,-18.91274,-3.526924,-46.05334,20.7888,-60.43211,-43.7608,22.32052,-52.09784,-0.2680664,-0.2358398,-0.300293,3.603733,-13.66536,4.213222,-28.83726,25.23285,-134.611,-30.36538,35.07084,-130.0657,Unknown
-0.3881836,-0.7512207,0.6665039,15.30374,-19.8593,-2.931504,-45.79219,20.50375,-60.30164,-44.24417,21.13315,-51.75434,-0.2895508,-0.2302246,-0.296875,1.115183,-13.17681,4.045282,-28.82596,25.29986,-134.4383,-29.03737,37.62254,-128.7482,Unknown
-0.388916,-0.7373047,0.6850586,14.50985,-20.53106,-2.213947,-45.53938,20.23455,-60.13771,-43.10523,21.12788,-50.58608,-0.2854004,-0.2336426,-0.3012695,1.741137,-15.26841,1.999481,-28.81145,25.30578,-134.3049,-29.37985,36.81814,-129.2421,Unknown
-0.3618164,-0.7348633,0.692627,12.90679,-21.18755,-1.71013,-45.30368,19.91265,-59.95575,-43.2407,19.71232,-49.78252,-0.2927246,-0.2216797,-0.2939453,0.7945726,-16.7646,1.297191,-28.78592,25.32298,-134.1733,-28.11893,38.48786,-128.6781,Unknown
-0.3630371,-0.7255859,0.6936035,12.79992,-21.24862,-0.6414275,-45.06595,19.59971,-59.75553,-42.82531,19.88366,-49.47328,-0.2851563,-0.2175293,-0.2915039,-0.7932138,-15.94017,-0.06158781,-28.7834,25.34413,-134.0728,-28.0773,38.09629,-129.1032,Unknown
-0.3564453,-0.7265625,0.7023926,11.28847,-21.21808,4.07613,-44.85248,19.28439,-59.4814,-42.68941,19.42865,-49.0448,-0.2888184,-0.2214355,-0.2868652,-1.235962,-13.10047,0.0,-28.7968,25.41575,-133.9563,-28.54492,38.55434,-128.2462,Unknown
-0.3339844,-0.7485352,0.6940918,9.349542,-21.18755,1.175366,-44.7016,18.94957,-59.26933,-44.18029,18.11672,-49.74209,-0.298584,-0.2416992,-0.2810059,-2.961153,-20.10811,-0.168458,-28.87186,25.40863,-133.8032,-30.51854,38.85368,-126.1855,Unknown
-0.3444824,-0.7333984,0.6936035,8.00603,-21.32495,1.282237,-44.56654,18.65486,-59.05507,-43.44094,18.84285,-49.43605,-0.3012695,-0.2302246,-0.2802734,-1.648176,-14.91727,-2.382198,-28.9032,25.47544,-133.6916,-29.22712,39.71347,-126.4712,Unknown
-0.3005371,-0.7519531,0.7075195,6.418244,-20.82114,0.6410153,-44.46824,18.30028,-58.84167,-44.36886,16.22935,-48.85596,-0.3010254,-0.2241211,-0.2980957,-2.579473,-16.7646,-1.603572,-28.91812,25.5141,-133.609,-27.88005,38.90866,-128.46,Unknown
-0.3557129,-0.7419434,0.7087402,6.87626,-19.43182,0.4578092,-44.34643,18.05008,-58.64374,-43.09498,19.12038,-49.25942,-0.3151855,-0.230957,-0.2963867,-3.342832,-17.19208,-1.51197,-28.95078,25.55091,-133.5026,-28.09411,39.99068,-127.1808,Unknown
-0.3029785,-0.7634277,0.7055664,5.960229,-18.43946,-0.01547329,-44.26857,17.743,-58.45782,-44.8339,16.24898,-49.33639,-0.3129883,-0.2255859,-0.2902832,-3.08329,-15.65009,-1.61884,-28.97418,25.61803,-133.3955,-27.85437,40.40984,-126.9577,Unknown
-0.3181152,-0.7568359,0.7131348,6.311374,-16.94327,0.1524656,-44.17251,17.47926,-58.26685,-44.10454,17.00959,-49.02095,-0.3081055,-0.2224121,-0.3017578,-3.693977,-16.62719,-1.008152,-28.991,25.66588,-133.3105,-27.28125,39.41703,-128.4534,Unknown
-0.3632813,-0.7294922,0.713623,6.402977,-14.31732,0.5799466,-44.04788,17.32514,-58.0694,-42.33319,19.59492,-48.79227,-0.3044434,-0.2216797,-0.2919922,-4.243596,-15.11574,0.3048244,-29.02801,25.72451,-133.1956,-27.72247,39.70737,-127.7878,Unknown
-0.3312988,-0.7351074,0.7114258,6.937328,-12.30205,0.5799466,-43.9275,17.15669,-57.87104,-43.128,17.94472,-48.57743,-0.3071289,-0.2126465,-0.2893066,-4.121458,-15.71116,1.602534,-29.04298,25.78994,-133.0632,-26.74733,40.54346,-127.7563,Unknown
-0.3586426,-0.7463379,0.7160645,6.891527,-11.35549,0.8852901,-43.80728,17.02911,-57.68356,-42.98186,19.12401,-49.14761,-0.3024902,-0.2167969,-0.2900391,-4.27413,-16.62719,2.182687,-29.06783,25.84349,-132.9306,-27.35359,39.87386,-127.9309,Unknown
-0.362793,-0.7253418,0.7177734,6.754122,-9.935641,0.4883435,-43.67941,16.94364,-57.49298,-42.04687,19.57143,-48.49004,-0.3139648,-0.2163086,-0.2854004,-4.686344,-18.04704,2.442229,-29.09562,25.88617,-132.7725,-27.01274,41.24193,-126.8171,Unknown
-0.3439941,-0.7319336,0.7207031,6.38771,-7.859305,0.3051374,-43.56205,16.85954,-57.30452,-42.50629,18.51494,-48.29435,-0.3200684,-0.2175293,-0.2910156,-6.045123,-18.74933,4.136886,-29.13649,25.92038,-132.5951,-26.6957,41.37776,-126.9429,Unknown
-0.3381348,-0.7346191,0.730957,5.822824,-6.332588,-0.09180916,-43.4526,16.79067,-57.1176,-42.36927,18.07065,-47.89072,-0.3227539,-0.2224121,-0.2692871,-5.724512,-19.28368,5.953679,-29.18999,25.99223,-132.3513,-27.88441,42.74125,-124.4897,Unknown
-0.3232422,-0.7155762,0.7485352,5.135802,-5.309687,-0.07654199,-43.33851,16.72872,-56.90368,-41.27129,17.33559,-46.36933,-0.3325195,-0.2304688,-0.2573242,-4.228328,-17.80276,4.640702,-29.24292,26.08884,-132.0852,-28.72879,43.90786,-122.4575,Unknown
-0.2910156,-0.7241211,0.7556152,2.448779,-4.958542,-0.2444809,-43.27186,16.63205,-56.6877,-41.80585,15.53947,-45.92484,-0.3347168,-0.2348633,-0.2543945,-3.984054,-15.90963,5.617802,-29.30042,26.21381,-131.7986,-29.18953,44.0311,-121.8878,Unknown
-0.2478027,-0.7304688,0.7436523,0.9373282,-3.172282,-0.7482977,-43.25226,16.52022,-56.4859,-42.981,13.37229,-46.04762,-0.338623,-0.2338867,-0.2290039,-1.877183,-13.8333,5.755206,-29.33752,26.40561,-131.4599,-29.77583,45.9714,-119.0938,Unknown
-0.2236328,-0.7185059,0.7363281,-0.5130534,-1.111214,-1.129977,-43.25547,16.41875,-56.28524,-43.03578,12.26374,-45.62248,-0.338623,-0.2338867,-0.229248,0.4586947,-8.276046,4.335359,-29.33983,26.68308,-131.1536,-29.76757,45.95646,-119.1197,Unknown
-0.2224121,-0.7260742,0.7490234,-2.345115,2.415504,-2.183412,-43.28054,16.36423,-56.09735,-42.90007,12.03562,-45.3932,-0.3342285,-0.2363281,-0.2387695,0.8098397,-4.245512,4.823908,-29.33941,26.98407,-130.8647,-29.914,44.85289,-120.2551,Unknown
-0.2397461,-0.7617188,0.7502441,-3.71916,6.201764,-3.542191,-43.35044,16.38089,-55.96321,-44.04226,12.63893,-46.78669,-0.3276367,-0.2370605,-0.251709,4.32129,1.510214,3.266656,-29.28601,27.33574,-130.6374,-29.84594,43.45774,-121.8989,Unknown
-0.2585449,-0.7875977,0.739502,-3.597023,8.675045,-5.43532,-43.43938,16.44997,-55.88913,-45.15326,13.45857,-48.26396,-0.3156738,-0.2397461,-0.2543945,8.290756,5.815557,2.304824,-29.1985,27.71049,-130.4469,-30.59796,42.08364,-122.6912,Unknown
-0.2790527,-0.7995605,0.7280273,-1.841298,10.17123,-7.099442,-43.51028,16.54992,-55.85505,-45.7214,14.47001,-49.31497,-0.315918,-0.2487793,-0.2683105,12.06175,8.059832,1.46513,-29.05669,28.09091,-130.2906,-30.97296,40.80744,-123.7132,Unknown
-0.2890625,-0.791748,0.7277832,0.1434351,11.74375,-8.229214,-43.54427,16.69245,-55.84273,-45.31509,15.04492,-49.1906,-0.315918,-0.2585449,-0.2756348,13.87854,10.22777,1.175053,-28.90476,28.47732,-130.1481,-31.66089,39.89391,-124.0272,Unknown
-0.2937012,-0.7868652,0.7131348,1.334275,13.01092,-8.473489,-43.56525,16.85906,-55.84375,-45.57431,15.45986,-49.66608,-0.3146973,-0.2612305,-0.2800293,13.05412,10.28884,1.694137,-28.78365,28.83717,-130.0099,-31.80442,39.4117,-124.3986,Unknown
-0.3078613,-0.7834473,0.7248535,1.563282,13.83535,-8.427688,-43.56953,17.03349,-55.82787,-44.85138,16.08965,-49.26788,-0.3139648,-0.2697754,-0.293457,10.88618,10.97586,2.48803,-28.69031,29.18627,-129.8798,-32.11812,38.22519,-125.3337,Unknown
-0.3215332,-0.7834473,0.7114258,1.09,13.4384,-7.297916,-43.58412,17.22838,-55.81794,-45.10022,16.90044,-49.96725,-0.3032227,-0.2670898,-0.3071289,7.466328,10.74685,3.526198,-28.64909,29.4837,-129.7785,-31.75118,36.68546,-127.2373,Unknown
-0.3398438,-0.7805176,0.7131348,0.647252,12.82772,-5.00784,-43.59666,17.4162,-55.77122,-44.6551,17.81961,-50.04686,-0.3063965,-0.267334,-0.2990723,4.046481,9.006396,3.709405,-28.65622,29.77389,-129.6551,-31.97964,37.37325,-126.3342,Unknown
-0.3374023,-0.7783203,0.7011719,-0.5435878,12.75138,-2.549824,-43.63286,17.61237,-55.70177,-45.0071,17.8526,-50.42438,-0.3049316,-0.2602539,-0.3012695,0.1228168,7.418611,4.045282,-28.70656,30.03646,-129.5411,-31.26354,37.44991,-126.9247,Unknown
-0.3496094,-0.7854004,0.7001953,-1.062672,12.64451,-0.2139466,-43.67785,17.81359,-55.60764,-45.10145,18.37983,-50.83833,-0.295166,-0.2563477,-0.2910156,-3.861916,7.189603,4.732306,-28.82388,30.28691,-129.4139,-31.73452,37.27442,-126.6637,Unknown
-0.3413086,-0.7849121,0.6972656,-1.871832,12.72085,2.045595,-43.73812,18.00449,-55.48206,-45.31536,18.00884,-50.83201,-0.2883301,-0.2456055,-0.2890625,-6.732145,6.212504,4.823908,-28.96036,30.5112,-129.3065,-31.02958,37.23975,-127.3505,Unknown
-0.3564453,-0.7890625,0.6901855,-2.177176,11.82008,3.877656,-43.8022,18.18215,-55.34803,-45.44889,18.77883,-51.44054,-0.2844238,-0.2353516,-0.2827148,-7.953519,6.01403,5.236122,-29.10622,30.7436,-129.1923,-30.40733,37.71096,-127.4453,Unknown
-0.3518066,-0.7849121,0.6787109,-1.688626,10.4613,5.083764,-43.8661,18.34686,-55.20082,-45.75585,18.72866,-51.72434,-0.2783203,-0.2290039,-0.2878418,-7.709244,4.426244,5.449862,-29.28565,30.96643,-129.0632,-29.76726,37.11347,-128.6116,Unknown
-0.3544922,-0.7653809,0.682373,-0.6809924,8.797183,6.060863,-43.90079,18.55101,-54.98668,-44.86639,19.07087,-51.02751,-0.2687988,-0.2341309,-0.2758789,-6.793213,5.769756,4.686504,-29.42567,31.16407,-128.9678,-31.29338,36.60761,-127.7371,Unknown
-0.359375,-0.7514648,0.675293,0.9831298,6.461306,5.465443,-43.89812,18.66659,-54.82598,-44.48994,19.58092,-50.96836,-0.2695313,-0.2145996,-0.2678223,-5.342832,3.815557,3.999481,-29.50483,31.35977,-128.8868,-29.45702,38.14476,-127.86,Unknown
-0.3601074,-0.7429199,0.6689453,2.067099,5.041458,4.579947,-43.87696,18.76356,-54.6818,-44.35966,19.80964,-50.98359,-0.2797852,-0.2106934,-0.2700195,-4.014588,1.510214,3.495664,-29.53885,31.5382,-128.8137,-28.45159,39.24556,-127.6303,Unknown
-0.3549805,-0.7353516,0.6723633,3.028931,3.056725,3.48071,-43.83874,18.82241,-54.55104,-44.04368,19.60909,-50.53127,-0.2790527,-0.217041,-0.2709961,-3.068023,0.2125039,2.396428,-29.57637,31.68636,-128.7517,-29.1601,38.7899,-127.4724,Unknown
-0.3476563,-0.730957,0.6901855,3.68542,1.804817,2.579947,-43.77591,18.85402,-54.41302,-43.40609,19.07635,-49.5461,-0.2780762,-0.215332,-0.2714844,-2.121458,-1.069939,2.091084,-29.59376,31.81289,-128.7012,-28.9902,38.74694,-127.6651,Unknown
-0.355957,-0.7370605,0.6862793,3.944962,0.7971831,2.274603,-43.71893,18.87719,-54.29399,-43.63289,19.46594,-50.02197,-0.2814941,-0.220459,-0.2861328,-2.045122,-2.657725,1.404061,-29.60749,31.89616,-128.6799,-28.77752,37.92944,-128.669,Unknown
-0.3618164,-0.748291,0.6835938,3.334275,-0.347855,1.923458,-43.67659,18.88745,-54.19113,-44.05313,19.6459,-50.56463,-0.2841797,-0.2290039,-0.28125,-1.724512,-3.558489,0.7628398,-29.63674,31.96752,-128.6475,-29.8024,38.07985,-127.6185,Unknown
-0.3566895,-0.7512207,0.6816406,3.746489,0.0,1.831855,-43.63435,18.89717,-54.09357,-44.31783,19.37336,-50.65945,-0.2822266,-0.2460938,-0.2875977,-1.327565,-4.596656,0.2284887,-29.6918,31.99478,-128.6217,-31.41402,36.70868,-127.5261,Unknown
-0.3520508,-0.7568359,0.6787109,3.914427,-1.004344,1.908191,-43.59828,18.88649,-54.00135,-44.70823,19.10131,-50.88509,-0.2780762,-0.2304688,-0.2915039,-0.9916873,-5.283679,-0.2905953,-29.70703,32.01855,-128.6314,-29.77271,36.80791,-128.9075,Unknown
-0.3503418,-0.7504883,0.6745605,3.548015,-2.073046,2.121931,-43.57034,18.86325,-53.90898,-44.63496,19.14626,-50.83869,-0.2839355,-0.2392578,-0.2797852,-0.7474122,-5.22261,-1.328763,-29.74333,32.05425,-128.6183,-30.97273,37.64225,-126.9991,Unknown
-0.3525391,-0.7529297,0.6855469,2.662519,-3.141748,2.015061,-43.5463,18.82173,-53.811,-44.32504,19.09652,-50.49126,-0.2929688,-0.2363281,-0.2861328,0.0,-5.192076,-1.969985,-29.74824,32.10262,-128.6197,-29.98892,38.28891,-127.241,Unknown
-0.3537598,-0.7568359,0.6875,1.395344,-3.798237,2.152466,-43.54262,18.77115,-53.7141,-44.38809,19.08478,-50.5481,-0.2944336,-0.2312012,-0.2927246,-1.266496,-4.382916,-3.038687,-29.75413,32.16184,-128.6525,-29.1118,38.2851,-128.0231,Unknown
-0.3640137,-0.7607422,0.6779785,0.906794,-3.981443,2.106664,-43.55186,18.73036,-53.63292,-44.67135,19.65787,-51.20372,-0.2971191,-0.2321777,-0.2998047,-1.480237,-4.214977,-3.710443,-29.75562,32.22238,-128.7001,-28.81355,38.08051,-128.4874,Unknown
-0.3557129,-0.7695313,0.6816406,0.1587023,-4.10358,2.488344,-43.57914,18.68119,-53.55011,-45.02452,19.08662,-51.19926,-0.282959,-0.2336426,-0.2966309,-1.861916,-3.818031,-4.015786,-29.78149,32.25875,-128.7641,-29.68033,36.84678,-128.9507,Unknown
-0.3618164,-0.7685547,0.6843262,-0.08557248,-4.332588,3.007427,-43.6047,18.63131,-53.4578,-44.79446,19.3715,-51.14513,-0.2983398,-0.2375488,-0.2988281,-2.823748,-3.207344,-4.366931,-29.81458,32.32659,-128.8147,-29.3605,38.00834,-128.0817,Unknown
-0.361084,-0.7714844,0.6784668,-0.574122,-4.164649,3.526511,-43.64322,18.58475,-53.36605,-45.10845,19.36462,-51.46247,-0.2966309,-0.2336426,-0.2954102,-3.327565,-2.520321,-4.229527,-29.85052,32.40747,-128.8613,-29.16601,38.22312,-128.0377,Unknown
-0.3588867,-0.7709961,0.6794434,-1.001603,-3.798237,4.030328,-43.687,18.54223,-53.26703,-45.09652,19.25064,-51.37728,-0.298584,-0.2304688,-0.2973633,-3.861916,-1.650092,-4.21426,-29.88,32.50542,-128.9069,-28.67482,38.43706,-128.2514,Unknown
